timestamp,accel_x,accel_y,accel_z,gyro_x,gyro_y,gyro_z,mag_x,mag_y,mag_z
2026-06-27 11:37:50.644,0.00,0.00,0.00,0.00,0.00,0.00,0.00,0.00,0.00
2026-06-27 11:37:50.659,0.70,0.72,10.09,-0.00,-0.00,-0.00,70.19,-12.75,-33.38
2026-06-27 11:37:50.676,0.66,0.70,9.57,-0.00,0.00,0.00,70.19,-12.75,-33.38
2026-06-27 11:37:50.695,0.66,0.69,9.65,-0.00,-0.00,0.00,70.19,-12.75,-33.38
2026-06-27 11:37:50.709,0.66,0.71,9.68,-0.00,0.00,0.00,70.19,-12.75,-33.38
2026-06-27 11:37:50.726,0.67,0.71,9.63,-0.00,0.00,-0.00,70.19,-12.75,-33.38
2026-06-27 11:37:50.739,0.67,0.72,9.67,-0.00,-0.00,0.00,70.19,-12.75,-33.38
2026-06-27 11:37:50.756,0.69,0.68,9.68,-0.00,-0.00,0.00,69.50,-12.38,-32.19
2026-06-27 11:37:50.769,0.66,0.71,9.64,-0.00,-0.00,0.00,69.50,-12.38,-32.19
2026-06-27 11:37:50.787,0.68,0.72,9.63,-0.00,-0.00,0.00,69.50,-12.38,-32.19
2026-06-27 11:37:50.799,0.69,0.70,9.67,-0.00,-0.00,-0.00,69.75,-11.69,-31.38
2026-06-27 11:37:50.816,0.65,0.69,9.64,-0.00,-0.00,0.00,69.75,-11.69,-31.38
2026-06-27 11:37:50.828,0.67,0.68,9.63,-0.00,0.00,0.00,69.75,-11.69,-31.38
2026-06-27 11:37:50.841,0.68,0.70,9.65,-0.00,-0.00,0.00,69.75,-11.69,-31.38
2026-06-27 11:37:50.857,0.67,0.70,9.68,-0.00,0.00,-0.00,69.50,-11.69,-31.38
2026-06-27 11:37:50.870,0.65,0.68,9.64,-0.00,0.00,-0.00,69.50,-11.69,-31.38
2026-06-27 11:37:50.887,0.66,0.69,9.66,-0.00,0.00,-0.00,69.50,-11.69,-31.38
2026-06-27 11:37:50.899,0.69,0.70,9.66,-0.00,0.00,0.00,69.50,-11.69,-32.19
2026-06-27 11:37:50.916,0.67,0.68,9.67,0.00,0.00,0.00,69.50,-11.69,-32.19
2026-06-27 11:37:50.928,0.68,0.69,9.66,-0.00,-0.00,-0.00,69.50,-11.69,-32.19
2026-06-27 11:37:50.941,0.67,0.70,9.67,-0.00,-0.00,0.00,69.50,-11.69,-32.19
2026-06-27 11:37:50.957,0.67,0.69,9.63,-0.00,0.00,0.00,70.19,-11.25,-33.75
2026-06-27 11:37:50.970,0.67,0.69,9.64,-0.00,0.00,0.00,70.19,-11.25,-33.75
2026-06-27 11:37:50.987,0.67,0.70,9.66,-0.00,0.00,0.00,70.19,-11.25,-33.75
2026-06-27 11:37:50.000,0.67,0.71,9.69,-0.01,-0.00,0.00,69.75,-12.06,-32.56
2026-06-27 11:37:51.016,0.67,0.69,9.68,-0.00,0.00,0.00,69.75,-12.06,-32.56
2026-06-27 11:37:51.029,0.69,0.69,9.66,-0.00,0.00,0.00,69.75,-12.06,-32.56
2026-06-27 11:37:51.042,0.67,0.70,9.68,-0.00,-0.00,-0.00,69.75,-12.06,-32.56
2026-06-27 11:37:51.057,0.67,0.72,9.67,-0.00,-0.00,-0.00,70.50,-11.25,-32.56
2026-06-27 11:37:51.070,0.66,0.69,9.64,-0.00,-0.00,0.00,70.50,-11.25,-32.56
2026-06-27 11:37:51.087,0.68,0.69,9.64,-0.00,-0.01,0.00,70.50,-11.25,-32.56
2026-06-27 11:37:51.100,0.67,0.69,9.63,-0.00,-0.00,0.00,69.69,-11.69,-31.75
2026-06-27 11:37:51.117,0.66,0.71,9.65,-0.00,0.00,-0.00,69.69,-11.69,-31.75
2026-06-27 11:37:51.130,0.67,0.69,9.68,-0.00,0.00,0.00,69.69,-11.69,-31.75
2026-06-27 11:37:51.142,0.66,0.70,9.67,-0.00,-0.00,-0.00,69.69,-11.69,-31.75
2026-06-27 11:37:51.158,0.67,0.70,9.66,-0.01,-0.00,-0.00,69.69,-11.69,-32.19
2026-06-27 11:37:51.171,0.68,0.71,9.65,-0.00,-0.00,0.00,69.69,-11.69,-32.19
2026-06-27 11:37:51.187,0.65,0.69,9.65,-0.00,0.00,-0.00,69.69,-11.69,-32.19
2026-06-27 11:37:51.200,0.68,0.70,9.67,-0.00,0.00,0.00,69.38,-12.75,-32.19
2026-06-27 11:37:51.217,0.66,0.69,9.66,-0.00,0.00,-0.00,69.38,-12.75,-32.19
2026-06-27 11:37:51.230,0.68,0.70,9.66,-0.00,-0.00,0.00,69.38,-12.75,-32.19
2026-06-27 11:37:51.242,0.68,0.72,9.66,-0.00,-0.00,-0.00,69.38,-12.75,-32.19
2026-06-27 11:37:51.257,0.68,0.70,9.65,-0.00,-0.00,0.00,69.69,-12.06,-31.38
2026-06-27 11:37:51.270,0.68,0.70,9.64,-0.00,0.00,0.00,69.69,-12.06,-31.38
2026-06-27 11:37:51.287,0.68,0.69,9.67,-0.00,-0.00,0.00,69.69,-12.06,-31.38
2026-06-27 11:37:51.300,0.67,0.69,9.66,-0.00,-0.01,0.00,69.69,-12.06,-30.56
2026-06-27 11:37:51.317,0.68,0.68,9.64,0.00,0.00,0.00,69.69,-12.06,-30.56
2026-06-27 11:37:51.330,0.65,0.71,9.67,-0.00,0.00,0.00,69.69,-12.06,-30.56
2026-06-27 11:37:51.342,0.67,0.71,9.63,0.00,0.00,-0.00,69.69,-12.06,-30.56
2026-06-27 11:37:51.358,0.67,0.71,9.67,0.00,-0.00,0.00,69.00,-12.06,-31.00
2026-06-27 11:37:51.371,0.67,0.70,9.67,0.00,0.00,-0.00,69.00,-12.06,-31.00
2026-06-27 11:37:51.388,0.67,0.72,9.66,0.00,-0.00,-0.00,69.00,-12.06,-31.00
2026-06-27 11:37:51.400,0.67,0.68,9.66,0.00,0.00,-0.00,70.06,-12.06,-32.19
2026-06-27 11:37:51.417,0.68,0.70,9.64,0.00,0.00,0.00,70.06,-12.06,-32.19
2026-06-27 11:37:51.430,0.65,0.70,9.64,-0.00,0.00,0.00,70.06,-12.06,-32.19
2026-06-27 11:37:51.443,0.65,0.69,9.65,-0.00,0.00,0.00,70.06,-12.06,-32.19
2026-06-27 11:37:51.458,0.67,0.71,9.65,0.00,0.00,-0.00,70.06,-12.06,-30.56
2026-06-27 11:37:51.470,0.66,0.71,9.62,-0.00,0.00,0.00,70.06,-12.06,-30.56
2026-06-27 11:37:51.488,0.67,0.70,9.63,0.00,0.00,0.00,70.06,-12.06,-30.56
2026-06-27 11:37:51.500,0.67,0.69,9.68,0.00,0.00,0.00,69.00,-11.69,-31.38
2026-06-27 11:37:51.517,0.66,0.69,9.67,0.00,0.00,-0.00,69.00,-11.69,-31.38
2026-06-27 11:37:51.530,0.66,0.71,9.66,0.00,0.00,0.00,69.00,-11.69,-31.38
2026-06-27 11:37:51.543,0.68,0.70,9.65,0.00,0.00,0.00,69.00,-11.69,-31.38
2026-06-27 11:37:51.558,0.66,0.71,9.65,0.00,-0.00,0.00,70.50,-12.38,-31.38
2026-06-27 11:37:51.570,0.66,0.72,9.64,0.00,0.00,-0.00,70.50,-12.38,-31.38
2026-06-27 11:37:51.587,0.65,0.70,9.67,-0.00,0.00,0.00,70.50,-12.38,-31.38
2026-06-27 11:37:51.600,0.66,0.69,9.65,0.00,0.00,-0.00,69.69,-12.38,-31.00
2026-06-27 11:37:51.616,0.65,0.70,9.66,0.00,0.00,0.00,69.69,-12.38,-31.00
2026-06-27 11:37:51.643,0.67,0.72,9.65,0.00,0.00,0.00,69.69,-12.38,-31.00
2026-06-27 11:37:51.658,0.66,0.70,9.66,-0.00,0.00,0.00,69.69,-11.69,-31.38
2026-06-27 11:37:51.670,0.68,0.69,9.65,0.00,-0.00,0.00,69.69,-11.69,-31.38
2026-06-27 11:37:51.688,0.69,0.68,9.67,0.00,0.00,0.00,69.69,-11.69,-31.38
2026-06-27 11:37:51.701,0.68,0.71,9.68,0.00,-0.00,-0.00,69.38,-11.69,-31.00
2026-06-27 11:37:51.718,0.66,0.70,9.68,0.00,0.00,0.00,69.38,-11.69,-31.00
2026-06-27 11:37:51.731,0.68,0.70,9.66,0.00,-0.00,0.00,69.38,-11.69,-31.00
2026-06-27 11:37:51.743,0.68,0.70,9.66,0.00,-0.00,0.00,69.38,-11.69,-31.00
2026-06-27 11:37:51.758,0.68,0.68,9.68,-0.00,0.00,0.00,69.38,-11.69,-31.38
2026-06-27 11:37:51.770,0.66,0.69,9.63,0.00,0.00,0.00,69.38,-11.69,-31.38
2026-06-27 11:37:51.788,0.67,0.70,9.68,-0.00,0.00,0.00,69.38,-11.69,-31.38
2026-06-27 11:37:51.801,0.69,0.71,9.66,0.00,0.00,-0.00,69.38,-11.25,-31.00
2026-06-27 11:37:51.818,0.66,0.70,9.65,-0.00,0.00,-0.00,69.38,-11.25,-31.00
2026-06-27 11:37:51.831,0.67,0.69,9.67,0.00,0.00,0.00,69.38,-11.25,-31.00
2026-06-27 11:37:51.844,0.65,0.70,9.67,0.00,0.00,-0.00,69.38,-11.25,-31.00
2026-06-27 11:37:51.858,0.68,0.70,9.66,0.00,0.00,0.00,68.56,-11.25,-31.38
2026-06-27 11:37:51.871,0.69,0.69,9.66,0.00,0.00,0.00,68.56,-11.25,-31.38
2026-06-27 11:37:51.888,0.68,0.70,9.66,0.00,0.00,0.00,68.56,-11.25,-31.38
2026-06-27 11:37:51.901,0.68,0.70,9.67,0.00,0.00,-0.00,69.69,-11.69,-31.38
2026-06-27 11:37:51.920,0.68,0.73,9.66,-0.00,0.00,0.00,69.69,-11.69,-31.38
2026-06-27 11:37:51.935,0.65,0.70,9.68,-0.00,0.00,0.00,69.69,-11.69,-31.38
2026-06-27 11:37:51.949,0.67,0.70,9.64,-0.00,-0.00,0.00,69.69,-11.69,-31.38
2026-06-27 11:37:51.967,0.67,0.70,9.67,0.00,-0.00,0.00,69.69,-11.69,-31.38
2026-06-27 11:37:51.980,0.66,0.71,9.63,0.00,0.00,-0.00,69.69,-11.69,-31.38
2026-06-27 11:37:51.992,0.67,0.71,9.66,0.00,0.00,0.00,69.69,-11.69,-31.38
2026-06-27 11:37:52.008,0.67,0.69,9.68,0.00,0.00,-0.00,69.38,-11.25,-31.75
2026-06-27 11:37:52.021,0.66,0.70,9.64,0.00,-0.00,-0.00,69.38,-11.25,-31.75
2026-06-27 11:37:52.038,0.65,0.70,9.64,0.00,0.00,0.00,69.38,-11.25,-31.75
2026-06-27 11:37:52.052,0.66,0.71,9.66,0.00,-0.00,-0.00,69.69,-12.75,-31.00
2026-06-27 11:37:52.069,0.68,0.70,9.67,0.00,-0.00,-0.00,69.69,-12.75,-31.00
2026-06-27 11:37:52.081,0.68,0.69,9.66,0.00,0.00,-0.00,69.69,-12.75,-31.00
2026-06-27 11:37:52.094,0.67,0.71,9.66,-0.00,0.00,-0.00,69.69,-12.75,-31.00
2026-06-27 11:37:52.109,0.67,0.70,9.67,0.00,-0.00,0.00,69.69,-11.69,-31.00
2026-06-27 11:37:52.122,0.68,0.70,9.65,0.00,-0.00,-0.00,69.69,-11.69,-31.00
2026-06-27 11:37:52.139,0.66,0.69,9.66,0.00,0.00,0.00,69.69,-11.69,-31.00
2026-06-27 11:37:52.156,0.66,0.71,9.66,0.00,-0.00,0.00,70.06,-11.69,-31.75
2026-06-27 11:37:52.169,0.67,0.70,9.63,0.00,0.00,-0.00,70.06,-11.69,-31.75
2026-06-27 11:37:52.182,0.68,0.70,9.66,0.00,0.00,0.00,70.06,-11.69,-31.75
2026-06-27 11:37:52.195,0.67,0.70,9.64,0.00,0.00,0.00,70.06,-11.69,-31.75
2026-06-27 11:37:52.210,0.67,0.71,9.66,0.00,0.00,0.00,69.38,-10.88,-32.56
2026-06-27 11:37:52.223,0.66,0.71,9.65,0.00,0.00,0.00,69.38,-10.88,-32.56
2026-06-27 11:37:52.239,0.67,0.70,9.66,-0.00,0.00,-0.00,69.38,-10.88,-32.56
2026-06-27 11:37:52.251,0.68,0.69,9.65,0.00,0.00,-0.00,69.38,-11.69,-31.38
2026-06-27 11:37:52.269,0.66,0.72,9.65,0.00,0.00,-0.00,69.38,-11.69,-31.38
2026-06-27 11:37:52.282,0.66,0.69,9.65,0.00,-0.00,0.00,69.38,-11.69,-31.38
2026-06-27 11:37:52.294,0.65,0.71,9.68,0.00,0.00,-0.00,69.38,-11.69,-31.38
2026-06-27 11:37:52.310,0.68,0.70,9.67,0.00,0.00,0.00,70.06,-12.06,-32.19
2026-06-27 11:37:52.322,0.67,0.70,9.65,0.00,0.00,-0.00,70.06,-12.06,-32.19
2026-06-27 11:37:52.339,0.68,0.70,9.66,0.00,-0.00,-0.00,70.06,-12.06,-32.19
2026-06-27 11:37:52.353,0.67,0.71,9.68,-0.00,-0.00,0.00,69.38,-11.69,-32.19
2026-06-27 11:37:52.369,0.67,0.69,9.65,0.00,-0.00,0.00,69.38,-11.69,-32.19
2026-06-27 11:37:52.385,0.67,0.70,9.66,-0.00,0.00,0.00,69.38,-11.69,-32.19
2026-06-27 11:37:52.400,0.65,0.69,9.66,0.00,-0.00,0.00,69.38,-11.69,-30.56
2026-06-27 11:37:52.412,0.68,0.73,9.67,0.00,-0.00,0.00,69.38,-11.69,-30.56
2026-06-27 11:37:52.429,0.68,0.69,9.66,0.00,-0.00,-0.00,69.38,-11.69,-30.56
2026-06-27 11:37:52.442,0.67,0.70,9.68,-0.00,0.00,0.00,69.38,-11.69,-30.56
2026-06-27 11:37:52.460,0.68,0.72,9.65,0.00,0.00,0.00,69.38,-12.38,-31.75
2026-06-27 11:37:52.472,0.65,0.68,9.65,0.00,0.00,0.00,69.38,-12.38,-31.75
2026-06-27 11:37:52.490,0.68,0.70,9.64,0.00,0.00,0.00,69.38,-12.38,-31.75
2026-06-27 11:37:52.502,0.66,0.69,9.64,0.00,0.00,0.00,69.69,-12.06,-31.38
2026-06-27 11:37:52.520,0.66,0.68,9.66,0.00,-0.00,-0.00,69.69,-12.06,-31.38
2026-06-27 11:37:52.532,0.66,0.69,9.65,0.00,-0.00,0.00,69.69,-12.06,-31.38
2026-06-27 11:37:52.544,0.67,0.71,9.66,-0.00,0.00,0.00,69.69,-12.06,-31.38
2026-06-27 11:37:52.560,0.65,0.70,9.67,0.00,0.00,-0.00,69.38,-12.06,-31.38
2026-06-27 11:37:52.572,0.68,0.70,9.64,0.00,-0.00,0.00,69.38,-12.06,-31.38
2026-06-27 11:37:52.590,0.67,0.72,9.64,-0.00,0.00,0.00,69.38,-12.06,-31.38
2026-06-27 11:37:52.602,0.66,0.72,9.66,0.00,0.00,0.00,69.00,-11.69,-31.00
2026-06-27 11:37:52.620,0.65,0.69,9.67,-0.00,0.00,-0.00,69.00,-11.69,-31.00
2026-06-27 11:37:52.632,0.67,0.69,9.66,0.00,0.00,-0.00,69.00,-11.69,-31.00
2026-06-27 11:37:52.644,0.67,0.72,9.67,0.00,-0.00,0.00,69.00,-11.69,-31.00
2026-06-27 11:37:52.660,0.68,0.69,9.67,0.00,0.00,0.00,69.38,-11.69,-31.38
2026-06-27 11:37:52.673,0.67,0.70,9.63,0.00,-0.00,-0.00,69.38,-11.69,-31.38
2026-06-27 11:37:52.690,0.68,0.69,9.65,0.00,0.00,0.00,69.38,-11.69,-31.38
2026-06-27 11:37:52.702,0.68,0.71,9.65,0.00,-0.00,0.00,69.69,-12.06,-30.56
2026-06-27 11:37:52.720,0.68,0.70,9.66,0.00,-0.00,-0.00,69.69,-12.06,-30.56
2026-06-27 11:37:52.732,0.67,0.71,9.67,0.00,0.00,0.00,69.69,-12.06,-30.56
2026-06-27 11:37:52.745,0.67,0.68,9.64,0.00,0.00,-0.00,69.69,-12.06,-30.56
2026-06-27 11:37:52.762,0.67,0.69,9.67,-0.00,-0.00,0.00,69.00,-11.69,-32.19
2026-06-27 11:37:52.778,0.67,0.69,9.68,0.00,0.00,0.00,69.00,-11.69,-32.19
2026-06-27 11:37:52.791,0.65,0.71,9.66,0.00,0.00,0.00,69.00,-11.69,-32.19
2026-06-27 11:37:52.804,0.66,0.71,9.66,-0.00,-0.00,0.00,69.69,-12.38,-32.56
2026-06-27 11:37:52.820,0.68,0.71,9.65,0.00,-0.00,0.00,69.69,-12.38,-32.56
2026-06-27 11:37:52.832,0.66,0.70,9.64,0.00,0.00,0.00,69.69,-12.38,-32.56
2026-06-27 11:37:52.845,0.67,0.70,9.66,0.00,0.00,-0.00,69.69,-12.38,-32.56
2026-06-27 11:37:52.861,0.68,0.68,9.67,-0.00,0.00,0.00,70.06,-12.38,-31.00
2026-06-27 11:37:52.873,0.68,0.70,9.60,0.00,0.00,0.00,70.06,-12.38,-31.00
2026-06-27 11:37:52.891,0.67,0.68,9.65,0.00,0.00,0.00,70.06,-12.38,-31.00
2026-06-27 11:37:52.903,0.68,0.71,9.66,-0.00,0.00,-0.00,69.69,-11.25,-31.00
2026-06-27 11:37:52.920,0.67,0.69,9.64,-0.00,-0.00,0.00,69.69,-11.25,-31.00
2026-06-27 11:37:52.932,0.68,0.68,9.65,0.00,-0.00,0.00,69.69,-11.25,-31.00
2026-06-27 11:37:52.946,0.67,0.68,9.66,0.00,0.00,-0.00,69.69,-11.25,-31.00
2026-06-27 11:37:52.961,0.68,0.70,9.66,0.00,0.00,-0.00,70.06,-11.69,-32.19
2026-06-27 11:37:52.973,0.67,0.72,9.65,0.00,0.00,0.00,70.06,-11.69,-32.19
2026-06-27 11:37:52.991,0.68,0.71,9.64,0.00,0.00,0.00,70.06,-11.69,-32.19
2026-06-27 11:37:53.003,0.66,0.70,9.66,-0.00,0.00,0.00,70.06,-11.25,-31.75
2026-06-27 11:37:53.021,0.68,0.70,9.66,0.00,0.00,-0.00,70.06,-11.25,-31.75
2026-06-27 11:37:53.033,0.66,0.69,9.65,0.00,0.00,0.00,70.06,-11.25,-31.75
2026-06-27 11:37:53.046,0.67,0.69,9.68,-0.00,0.00,0.00,70.06,-11.25,-31.75
2026-06-27 11:37:53.061,0.69,0.69,9.64,0.00,0.00,0.00,69.69,-11.69,-31.38
2026-06-27 11:37:53.074,0.66,0.71,9.64,0.00,-0.00,0.00,69.69,-11.69,-31.38
2026-06-27 11:37:53.092,0.66,0.69,9.66,0.00,-0.00,0.00,69.69,-11.69,-31.38
2026-06-27 11:37:53.105,0.65,0.70,9.65,-0.00,-0.00,0.00,69.38,-11.69,-32.19
2026-06-27 11:37:53.121,0.67,0.70,9.66,0.00,0.00,-0.00,69.38,-11.69,-32.19
2026-06-27 11:37:53.134,0.66,0.71,9.66,0.00,0.00,0.00,69.38,-11.69,-32.19
2026-06-27 11:37:53.147,0.67,0.70,9.67,0.00,0.00,0.00,69.38,-11.69,-32.19
2026-06-27 11:37:53.161,0.67,0.69,9.64,0.00,0.00,0.00,69.00,-11.69,-32.19
2026-06-27 11:37:53.174,0.66,0.68,9.64,0.00,0.00,0.00,69.00,-11.69,-32.19
2026-06-27 11:37:53.192,0.65,0.72,9.64,-0.00,0.00,-0.00,69.00,-11.69,-32.19
2026-06-27 11:37:53.206,0.66,0.71,9.68,0.00,0.00,0.00,70.06,-12.06,-31.38
2026-06-27 11:37:53.221,0.67,0.70,9.64,0.00,-0.00,0.00,70.06,-12.06,-31.38
2026-06-27 11:37:53.233,0.66,0.70,9.64,0.00,0.00,0.00,70.06,-12.06,-31.38
2026-06-27 11:37:53.246,0.67,0.72,9.65,0.00,0.00,0.00,70.06,-12.06,-31.38
2026-06-27 11:37:53.261,0.68,0.73,9.68,0.00,0.01,0.00,68.56,-12.06,-31.75
2026-06-27 11:37:53.274,0.68,0.71,9.67,0.00,0.00,-0.00,68.56,-12.06,-31.75
2026-06-27 11:37:53.291,0.68,0.69,9.67,0.00,0.00,0.00,68.56,-12.06,-31.75
2026-06-27 11:37:53.304,0.68,0.71,9.66,0.00,-0.00,-0.00,69.00,-12.06,-29.75
2026-06-27 11:37:53.321,0.67,0.69,9.65,-0.00,-0.00,0.00,69.00,-12.06,-29.75
2026-06-27 11:37:53.333,0.67,0.71,9.64,0.00,0.00,0.00,69.00,-12.06,-29.75
2026-06-27 11:37:53.346,0.66,0.71,9.68,-0.00,0.00,0.00,69.00,-12.06,-29.75
2026-06-27 11:37:53.361,0.66,0.71,9.68,0.00,-0.00,-0.00,70.06,-12.38,-31.38
2026-06-27 11:37:53.374,0.67,0.70,9.65,0.00,0.00,0.00,70.06,-12.38,-31.38
2026-06-27 11:37:53.391,0.66,0.70,9.63,-0.00,0.00,0.00,70.06,-12.38,-31.38
2026-06-27 11:37:53.404,0.68,0.63,9.67,-0.00,-0.00,0.00,70.06,-11.69,-32.56
2026-06-27 11:37:53.421,0.65,0.66,9.59,0.00,-0.00,-0.00,70.06,-11.69,-32.56
2026-06-27 11:37:53.434,0.71,0.72,9.72,0.00,-0.00,0.00,70.06,-11.69,-32.56
2026-06-27 11:37:53.447,0.66,0.75,9.69,0.00,0.00,-0.00,70.06,-11.69,-32.56
2026-06-27 11:37:53.462,0.70,0.78,9.61,0.00,-0.00,-0.00,69.38,-12.38,-31.38
2026-06-27 11:37:53.476,0.69,0.77,9.69,-0.00,0.00,0.00,69.38,-12.38,-31.38
2026-06-27 11:37:53.492,0.70,0.77,9.70,0.00,-0.00,0.00,69.38,-12.38,-31.38
2026-06-27 11:37:53.505,0.63,0.72,9.61,0.00,0.00,-0.00,69.69,-11.69,-31.75
2026-06-27 11:37:53.522,0.69,0.68,9.60,-0.00,0.00,-0.00,69.69,-11.69,-31.75
2026-06-27 11:37:53.535,0.67,0.68,9.69,0.00,0.00,0.00,69.69,-11.69,-31.75
2026-06-27 11:37:53.547,0.66,0.71,9.58,0.00,-0.00,-0.00,69.69,-11.69,-31.75
2026-06-27 11:37:53.562,0.62,0.68,9.57,0.00,-0.00,0.00,69.69,-11.69,-31.38
2026-06-27 11:37:53.581,0.71,0.70,9.68,0.00,-0.00,-0.00,69.69,-11.69,-31.38
2026-06-27 11:37:53.593,0.64,0.68,9.67,0.00,0.00,0.00,69.69,-11.69,-31.38
2026-06-27 11:37:53.608,0.68,0.69,9.66,0.00,0.00,-0.00,70.06,-12.06,-31.38
2026-06-27 11:37:53.622,0.70,0.71,9.68,0.00,-0.00,0.00,70.06,-12.06,-31.38
2026-06-27 11:37:53.635,0.60,0.67,9.68,0.00,-0.00,0.00,70.06,-12.06,-31.38
2026-06-27 11:37:53.648,0.63,0.68,9.65,0.00,-0.00,0.00,70.06,-12.06,-31.38
2026-06-27 11:37:53.662,0.69,0.71,9.57,0.00,0.00,0.00,69.69,-12.38,-32.19
2026-06-27 11:37:53.675,0.67,0.71,9.70,0.00,-0.00,0.00,69.69,-12.38,-32.19
2026-06-27 11:37:53.692,0.65,0.70,9.63,-0.00,0.00,0.00,69.69,-12.38,-32.19
2026-06-27 11:37:53.705,0.70,0.68,9.70,0.00,-0.00,0.00,69.69,-12.06,-31.38
2026-06-27 11:37:53.722,0.68,0.69,9.71,-0.00,0.00,0.00,69.69,-12.06,-31.38
2026-06-27 11:37:53.735,0.65,0.69,9.65,-0.00,-0.00,0.00,69.69,-12.06,-31.38
2026-06-27 11:37:53.747,0.67,0.69,9.68,0.00,-0.00,0.00,69.69,-12.06,-31.38
2026-06-27 11:37:53.762,0.67,0.69,9.68,0.00,-0.00,0.00,69.69,-13.19,-32.19
2026-06-27 11:37:53.775,0.68,0.72,9.61,0.00,0.00,0.00,69.69,-13.19,-32.19
2026-06-27 11:37:53.792,0.66,0.71,9.62,0.00,0.00,0.00,69.69,-13.19,-32.19
2026-06-27 11:37:53.805,0.70,0.71,9.70,0.00,-0.00,0.00,69.69,-12.38,-31.75
2026-06-27 11:37:53.822,0.66,0.71,9.66,-0.00,-0.00,0.00,69.69,-12.38,-31.75
2026-06-27 11:37:53.835,0.65,0.69,9.62,0.00,0.00,0.00,69.69,-12.38,-31.75
2026-06-27 11:37:53.848,0.71,0.70,9.66,0.00,0.00,-0.00,69.69,-12.38,-31.75
2026-06-27 11:37:53.864,0.69,0.69,9.68,0.00,-0.00,-0.00,70.06,-10.88,-30.56
2026-06-27 11:37:53.879,0.65,0.68,9.63,0.00,0.00,0.00,70.06,-10.88,-30.56
2026-06-27 11:37:53.893,0.68,0.68,9.62,0.00,0.00,0.00,70.06,-10.88,-30.56
2026-06-27 11:37:53.911,0.67,0.69,9.70,0.00,0.00,-0.00,70.06,-10.88,-32.19
2026-06-27 11:37:53.923,0.69,0.68,9.63,0.00,0.00,-0.00,70.06,-10.88,-32.19
2026-06-27 11:37:53.936,0.68,0.69,9.64,0.00,-0.00,0.00,70.06,-10.88,-32.19
2026-06-27 11:37:53.949,0.67,0.70,9.68,-0.00,0.00,0.00,70.06,-10.88,-32.19
2026-06-27 11:37:53.963,0.66,0.70,9.64,0.00,0.00,0.00,70.50,-11.69,-31.75
2026-06-27 11:37:53.976,0.66,0.73,9.62,-0.00,0.00,-0.00,70.50,-11.69,-31.75
2026-06-27 11:37:53.993,0.68,0.71,9.65,0.00,-0.00,0.00,70.50,-11.69,-31.75
2026-06-27 11:37:54.005,0.67,0.71,9.67,0.00,0.00,0.00,69.38,-12.38,-31.75
2026-06-27 11:37:54.022,0.67,0.69,9.67,0.00,0.00,-0.00,69.38,-12.38,-31.75
2026-06-27 11:37:54.035,0.66,0.71,9.66,-0.00,0.00,0.00,69.38,-12.38,-31.75
2026-06-27 11:37:54.048,0.66,0.69,9.67,0.00,-0.00,-0.00,69.38,-12.38,-31.75
2026-06-27 11:37:54.064,0.66,0.70,9.67,0.00,-0.00,0.00,69.38,-12.38,-33.00
2026-06-27 11:37:54.076,0.67,0.71,9.65,-0.00,0.00,0.00,69.38,-12.38,-33.00
2026-06-27 11:37:54.093,0.70,0.70,9.68,0.00,-0.00,0.00,69.38,-12.38,-33.00
2026-06-27 11:37:54.105,0.66,0.71,9.64,0.00,-0.00,-0.00,69.00,-11.69,-31.75
2026-06-27 11:37:54.122,0.66,0.68,9.67,0.00,0.00,-0.00,69.00,-11.69,-31.75
2026-06-27 11:37:54.134,0.66,0.69,9.78,0.00,0.00,0.00,69.00,-11.69,-31.75
2026-06-27 11:37:54.147,0.65,0.65,9.69,0.00,0.00,0.00,69.00,-11.69,-31.75
2026-06-27 11:37:54.163,0.69,0.64,9.57,0.00,0.00,0.00,69.00,-12.38,-32.19
2026-06-27 11:37:54.176,0.61,0.67,9.68,0.00,0.00,-0.00,69.00,-12.38,-32.19
2026-06-27 11:37:54.193,0.61,0.76,9.71,0.00,0.00,-0.00,69.00,-12.38,-32.19
2026-06-27 11:37:54.205,0.66,0.70,9.63,0.00,0.00,0.00,69.38,-11.69,-31.00
2026-06-27 11:37:54.221,0.64,0.80,9.69,-0.00,-0.00,0.00,69.38,-11.69,-31.00
2026-06-27 11:37:54.235,0.68,0.71,9.68,0.00,0.00,0.00,69.38,-11.69,-31.00
2026-06-27 11:37:54.247,0.66,0.77,9.66,-0.00,0.00,0.00,69.38,-11.69,-31.00
2026-06-27 11:37:54.263,0.62,0.71,9.65,0.00,-0.00,0.00,69.38,-11.69,-32.19
2026-06-27 11:37:54.276,0.70,0.74,9.66,0.00,0.00,-0.00,69.38,-11.69,-32.19
2026-06-27 11:37:54.293,0.65,0.68,9.68,0.00,-0.00,-0.00,69.38,-11.69,-32.19
2026-06-27 11:37:54.306,0.66,0.72,9.67,0.00,0.00,-0.00,69.00,-11.69,-31.38
2026-06-27 11:37:54.323,0.68,0.64,9.68,-0.00,0.00,0.00,69.00,-11.69,-31.38
2026-06-27 11:37:54.336,0.68,0.73,9.66,-0.00,-0.00,0.00,69.00,-11.69,-31.38
2026-06-27 11:37:54.349,0.69,0.68,9.64,-0.00,0.00,-0.00,69.00,-11.69,-31.38
2026-06-27 11:37:54.364,0.67,0.69,9.68,-0.00,0.00,0.00,70.06,-11.69,-33.00
2026-06-27 11:37:54.383,0.63,0.70,9.65,-0.00,0.00,0.00,70.06,-11.69,-33.00
2026-06-27 11:37:54.396,0.62,0.68,9.66,-0.00,-0.00,0.00,70.06,-11.69,-33.00
2026-06-27 11:37:54.413,0.69,0.66,9.68,0.00,-0.00,0.00,68.56,-10.88,-32.19
2026-06-27 11:37:54.426,0.69,0.65,9.65,-0.00,-0.00,0.00,68.56,-10.88,-32.19
2026-06-27 11:37:54.446,0.67,0.68,9.64,-0.00,-0.00,0.00,68.56,-10.88,-32.19
2026-06-27 11:37:54.463,0.67,0.69,9.65,-0.00,0.00,0.00,69.38,-11.69,-32.19
2026-06-27 11:37:54.477,0.64,0.72,9.66,-0.00,0.00,0.00,69.38,-11.69,-32.19
2026-06-27 11:37:54.500,0.71,0.72,9.64,-0.00,0.00,0.00,69.38,-11.69,-32.19
2026-06-27 11:37:54.515,0.71,0.74,9.66,-0.00,-0.00,0.00,69.00,-12.06,-31.75
2026-06-27 11:37:54.528,0.67,0.76,9.65,0.00,0.00,0.00,69.00,-12.06,-31.75
2026-06-27 11:37:54.544,0.64,0.74,9.63,-0.00,0.00,-0.00,69.00,-12.06,-31.75
2026-06-27 11:37:54.557,0.66,0.73,9.68,0.00,0.00,0.00,68.56,-11.25,-31.00
2026-06-27 11:37:54.574,0.68,0.73,9.66,-0.00,0.00,-0.00,68.56,-11.25,-31.00
2026-06-27 11:37:54.586,0.67,0.70,9.66,-0.00,0.00,0.00,68.56,-11.25,-31.00
2026-06-27 11:37:54.598,0.68,0.69,9.68,-0.00,-0.00,0.00,68.56,-11.25,-31.00
2026-06-27 11:37:54.614,0.68,0.70,9.66,0.00,0.00,0.00,69.00,-12.38,-31.38
2026-06-27 11:37:54.626,0.65,0.72,9.66,0.00,0.00,-0.00,69.00,-12.38,-31.38
2026-06-27 11:37:54.644,0.67,0.71,9.67,0.00,0.00,0.00,69.00,-12.38,-31.38
2026-06-27 11:37:54.657,0.66,0.71,9.67,0.00,0.00,0.00,69.00,-11.69,-31.38
2026-06-27 11:37:54.674,0.68,0.67,9.66,-0.00,0.00,0.00,69.00,-11.69,-31.38
2026-06-27 11:37:54.686,0.67,0.70,9.64,0.00,0.00,0.00,69.00,-11.69,-31.38
2026-06-27 11:37:54.699,0.67,0.68,9.64,0.00,0.00,0.00,69.00,-11.69,-31.38
2026-06-27 11:37:54.714,0.67,0.69,9.66,0.00,0.00,0.00,69.00,-12.06,-31.00
2026-06-27 11:37:54.727,0.67,0.70,9.66,0.00,0.00,0.00,69.00,-12.06,-31.00
2026-06-27 11:37:54.745,0.66,0.68,9.68,-0.00,0.00,0.00,69.00,-12.06,-31.00
2026-06-27 11:37:54.757,0.67,0.64,9.67,-0.00,0.00,0.00,69.38,-12.06,-30.56
2026-06-27 11:37:54.774,0.66,0.63,9.66,-0.00,0.00,-0.00,69.38,-12.06,-30.56
2026-06-27 11:37:54.787,0.66,0.65,9.65,0.00,0.00,0.00,69.38,-12.06,-30.56
2026-06-27 11:37:54.799,0.65,0.68,9.66,0.00,-0.00,0.00,69.38,-12.06,-30.56
2026-06-27 11:37:54.814,0.66,0.70,9.66,0.00,-0.00,0.00,69.38,-11.25,-31.38
2026-06-27 11:37:54.826,0.67,0.70,9.62,-0.00,-0.01,0.00,69.38,-11.25,-31.38
2026-06-27 11:37:54.844,0.68,0.75,9.65,-0.00,-0.00,0.00,69.38,-11.25,-31.38
2026-06-27 11:37:54.856,0.69,0.77,9.68,-0.00,0.00,0.00,69.38,-12.06,-31.75
2026-06-27 11:37:54.873,0.68,0.76,9.67,-0.00,-0.00,0.00,69.38,-12.06,-31.75
2026-06-27 11:37:54.886,0.68,0.75,9.68,-0.00,0.00,0.00,69.38,-12.06,-31.75
2026-06-27 11:37:54.898,0.69,0.76,9.65,0.00,-0.00,0.00,69.38,-12.06,-31.75
2026-06-27 11:37:54.914,0.68,0.72,9.67,0.00,-0.00,0.00,69.38,-11.25,-33.00
2026-06-27 11:37:54.926,0.68,0.70,9.65,0.00,-0.00,0.00,69.38,-11.25,-33.00
2026-06-27 11:37:54.944,0.66,0.69,9.66,-0.00,-0.00,0.00,69.38,-11.25,-33.00
2026-06-27 11:37:54.957,0.66,0.68,9.67,-0.00,-0.00,0.00,68.56,-12.38,-31.38
2026-06-27 11:37:54.974,0.68,0.67,9.64,-0.00,-0.00,0.00,68.56,-12.38,-31.38
2026-06-27 11:37:54.991,0.66,0.69,9.64,0.00,-0.00,0.00,68.56,-12.38,-31.38
2026-06-27 11:37:55.005,0.66,0.70,9.65,-0.00,0.00,0.00,69.69,-12.06,-31.75
2026-06-27 11:37:55.018,0.65,0.69,9.64,-0.00,0.00,0.00,69.69,-12.06,-31.75
2026-06-27 11:37:55.035,0.66,0.71,9.65,-0.00,-0.00,0.00,69.69,-12.06,-31.75
2026-06-27 11:37:55.047,0.68,0.68,9.67,0.00,-0.01,0.00,69.69,-12.06,-31.75
2026-06-27 11:37:55.064,0.69,0.68,9.65,0.00,0.00,0.00,69.69,-12.38,-31.38
2026-06-27 11:37:55.076,0.67,0.69,9.64,-0.00,-0.00,0.00,69.69,-12.38,-31.38
2026-06-27 11:37:55.093,0.68,0.69,9.66,-0.00,0.00,0.00,69.69,-12.38,-31.38
2026-06-27 11:37:55.106,0.68,0.70,9.65,-0.00,0.00,0.00,69.38,-12.06,-32.19
2026-06-27 11:37:55.119,0.65,0.70,9.68,-0.00,-0.00,0.00,69.38,-12.06,-32.19
2026-06-27 11:37:55.136,0.66,0.71,9.66,-0.00,0.00,0.00,69.38,-12.06,-32.19
2026-06-27 11:37:55.148,0.66,0.71,9.67,0.00,-0.00,0.00,69.38,-12.06,-32.19
2026-06-27 11:37:55.165,0.66,0.74,9.66,-0.00,-0.00,0.00,70.06,-12.06,-31.75
2026-06-27 11:37:55.177,0.68,0.74,9.66,0.00,-0.00,0.00,70.06,-12.06,-31.75
2026-06-27 11:37:55.192,0.68,0.73,9.65,0.00,0.00,0.00,70.06,-12.06,-31.75
2026-06-27 11:37:55.206,0.67,0.72,9.65,0.00,0.00,0.00,69.38,-10.88,-30.56
2026-06-27 11:37:55.219,0.68,0.72,9.64,-0.00,-0.00,0.00,69.38,-10.88,-30.56
2026-06-27 11:37:55.235,0.67,0.74,9.67,-0.00,0.00,0.00,69.38,-10.88,-30.56
2026-06-27 11:37:55.248,0.70,0.71,9.68,-0.00,-0.00,0.00,69.38,-10.88,-30.56
2026-06-27 11:37:55.265,0.68,0.70,9.66,0.00,0.00,0.00,69.38,-11.69,-31.00
2026-06-27 11:37:55.277,0.68,0.70,9.62,-0.00,0.00,0.00,69.38,-11.69,-31.00
2026-06-27 11:37:55.294,0.68,0.70,9.64,0.00,-0.00,-0.00,69.38,-11.69,-31.00
2026-06-27 11:37:55.307,0.68,0.67,9.67,0.00,0.00,0.00,70.06,-12.06,-32.19
2026-06-27 11:37:55.321,0.68,0.70,9.63,0.00,0.00,-0.00,70.06,-12.06,-32.19
2026-06-27 11:37:55.336,0.65,0.70,9.66,0.00,-0.00,0.00,70.06,-12.06,-32.19
2026-06-27 11:37:55.349,0.66,0.69,9.69,-0.00,-0.00,-0.00,70.06,-12.06,-32.19
2026-06-27 11:37:55.366,0.67,0.71,9.66,0.00,-0.00,0.00,69.00,-12.06,-30.56
2026-06-27 11:37:55.378,0.69,0.71,9.66,-0.00,0.00,-0.00,69.00,-12.06,-30.56
2026-06-27 11:37:55.395,0.67,0.69,9.67,-0.00,0.00,0.00,69.00,-12.06,-30.56
2026-06-27 11:37:55.407,0.70,0.69,9.64,0.00,0.00,0.00,70.88,-10.88,-32.56
2026-06-27 11:37:55.424,0.66,0.68,9.63,-0.00,0.00,-0.00,70.88,-10.88,-32.56
2026-06-27 11:37:55.437,0.66,0.68,9.65,-0.00,-0.00,0.00,70.88,-10.88,-32.56
2026-06-27 11:37:55.449,0.64,0.69,9.69,-0.00,0.00,-0.00,70.88,-10.88,-32.56
2026-06-27 11:37:55.466,0.68,0.72,9.64,-0.00,0.00,0.00,69.38,-12.38,-31.75
2026-06-27 11:37:55.478,0.69,0.76,9.64,0.00,-0.00,-0.00,69.38,-12.38,-31.75
2026-06-27 11:37:55.496,0.67,0.74,9.67,-0.00,0.00,0.00,69.38,-12.38,-31.75
2026-06-27 11:37:55.508,0.67,0.72,9.68,0.00,0.00,0.00,70.06,-12.06,-31.38
2026-06-27 11:37:55.525,0.67,0.73,9.65,0.00,-0.00,0.00,70.06,-12.06,-31.38
2026-06-27 11:37:55.538,0.67,0.68,9.67,-0.00,0.00,0.00,70.06,-12.06,-31.38
2026-06-27 11:37:55.550,0.66,0.69,9.65,-0.00,0.00,0.00,70.06,-12.06,-31.38
2026-06-27 11:37:55.566,0.67,0.66,9.67,0.00,0.00,0.00,69.69,-11.25,-31.75
2026-06-27 11:37:55.578,0.66,0.69,9.64,0.00,0.00,-0.00,69.69,-11.25,-31.75
2026-06-27 11:37:55.596,0.67,0.68,9.66,-0.00,0.00,0.00,69.69,-11.25,-31.75
2026-06-27 11:37:55.608,0.68,0.68,9.65,-0.00,-0.00,-0.00,69.38,-11.69,-32.19
2026-06-27 11:37:55.626,0.68,0.69,9.65,-0.00,0.00,-0.00,69.38,-11.69,-32.19
2026-06-27 11:37:55.638,0.65,0.71,9.69,0.00,0.00,0.00,69.38,-11.69,-32.19
2026-06-27 11:37:55.651,0.65,0.70,9.66,0.00,0.00,0.00,69.38,-11.69,-32.19
2026-06-27 11:37:55.666,0.66,0.70,9.66,0.00,0.00,0.00,69.38,-12.06,-33.00
2026-06-27 11:37:55.678,0.67,0.69,9.64,-0.00,0.00,0.00,69.38,-12.06,-33.00
2026-06-27 11:37:55.695,0.70,0.69,9.65,-0.00,0.00,0.00,69.38,-12.06,-33.00
2026-06-27 11:37:55.708,0.68,0.68,9.63,0.00,0.00,0.00,69.00,-12.06,-31.00
2026-06-27 11:37:55.726,0.66,0.71,9.66,-0.00,0.00,0.00,69.00,-12.06,-31.00
2026-06-27 11:37:55.738,0.66,0.72,9.68,0.00,0.00,-0.00,69.00,-12.06,-31.00
2026-06-27 11:37:55.750,0.66,0.73,9.67,0.00,-0.00,0.00,69.00,-12.06,-31.00
2026-06-27 11:37:55.766,0.68,0.71,9.67,-0.00,0.00,0.00,69.38,-11.69,-31.00
2026-06-27 11:37:55.778,0.65,0.69,9.62,-0.00,0.00,0.00,69.38,-11.69,-31.00
2026-06-27 11:37:55.796,0.64,0.67,9.67,-0.00,0.00,0.00,69.38,-11.69,-31.00
2026-06-27 11:37:55.809,0.72,0.65,9.66,-0.00,-0.00,0.00,69.38,-12.06,-31.75
2026-06-27 11:37:55.826,0.68,0.65,9.65,0.00,-0.00,0.00,69.38,-12.06,-31.75
2026-06-27 11:37:55.838,0.71,0.69,9.65,0.00,0.00,0.00,69.38,-12.06,-31.75
2026-06-27 11:37:55.851,0.68,0.71,9.67,0.00,-0.00,-0.00,69.38,-12.06,-31.75
2026-06-27 11:37:55.866,0.67,0.72,9.68,0.00,-0.00,0.00,68.56,-10.88,-31.00
2026-06-27 11:37:55.879,0.67,0.74,9.64,0.00,-0.00,0.00,68.56,-10.88,-31.00
2026-06-27 11:37:55.896,0.64,0.71,9.64,-0.00,-0.00,0.00,68.56,-10.88,-31.00
2026-06-27 11:37:55.909,0.72,0.71,9.67,-0.00,0.00,-0.00,69.38,-11.69,-31.00
2026-06-27 11:37:55.926,0.61,0.69,9.65,0.00,0.00,0.00,69.38,-11.69,-31.00
2026-06-27 11:37:55.938,0.65,0.70,9.66,-0.00,-0.00,0.00,69.38,-11.69,-31.00
2026-06-27 11:37:55.951,0.73,0.69,9.67,-0.00,-0.00,0.00,69.38,-11.69,-31.00
2026-06-27 11:37:55.967,0.68,0.68,9.66,0.00,0.00,-0.00,69.38,-12.06,-31.75
2026-06-27 11:37:55.979,0.69,0.70,9.62,0.00,-0.00,0.00,69.38,-12.06,-31.75
2026-06-27 11:37:55.996,0.67,0.70,9.63,-0.00,-0.00,0.00,69.38,-12.06,-31.75
2026-06-27 11:37:56.008,0.66,0.70,9.68,0.00,-0.00,0.00,70.06,-11.69,-31.00
2026-06-27 11:37:56.026,0.63,0.71,9.61,0.00,-0.00,0.00,70.06,-11.69,-31.00
2026-06-27 11:37:56.038,0.67,0.70,9.69,0.00,-0.00,0.00,70.06,-11.69,-31.00
2026-06-27 11:37:56.051,0.71,0.72,9.67,-0.00,0.00,-0.00,70.06,-11.69,-31.00
2026-06-27 11:37:56.067,0.71,0.70,9.67,0.00,0.00,0.00,69.69,-11.25,-31.75
2026-06-27 11:37:56.079,0.61,0.70,9.65,0.00,0.00,0.00,69.69,-11.25,-31.75
2026-06-27 11:37:56.097,0.67,0.67,9.67,0.00,0.00,-0.00,69.69,-11.25,-31.75
2026-06-27 11:37:56.109,0.66,0.68,9.67,0.00,-0.00,0.00,69.38,-11.69,-31.75
2026-06-27 11:37:56.126,0.65,0.67,9.67,-0.00,0.00,0.00,69.38,-11.69,-31.75
2026-06-27 11:37:56.138,0.70,0.69,9.65,-0.00,-0.00,0.00,69.38,-11.69,-31.75
2026-06-27 11:37:56.151,0.65,0.67,9.65,0.00,-0.00,-0.00,69.38,-11.69,-31.75
2026-06-27 11:37:56.167,0.65,0.71,9.68,0.00,-0.00,0.00,69.00,-11.25,-31.38
2026-06-27 11:37:56.180,0.68,0.73,9.63,-0.00,0.00,0.00,69.00,-11.25,-31.38
2026-06-27 11:37:56.197,0.67,0.73,9.68,0.00,-0.00,-0.00,69.00,-11.25,-31.38
2026-06-27 11:37:56.209,0.68,0.71,9.66,0.00,0.00,0.00,69.69,-11.25,-30.56
2026-06-27 11:37:56.226,0.69,0.73,9.66,0.00,0.00,0.00,69.69,-11.25,-30.56
2026-06-27 11:37:56.239,0.68,0.70,9.67,0.00,0.00,-0.00,69.69,-11.25,-30.56
2026-06-27 11:37:56.251,0.67,0.69,9.67,0.00,0.00,-0.00,69.69,-11.25,-30.56
2026-06-27 11:37:56.267,0.64,0.68,9.64,0.00,-0.00,0.00,69.38,-11.25,-31.00
2026-06-27 11:37:56.280,0.67,0.69,9.67,0.00,-0.00,0.00,69.38,-11.25,-31.00
2026-06-27 11:37:56.297,0.66,0.70,9.65,0.00,-0.00,0.00,69.38,-11.25,-31.00
2026-06-27 11:37:56.310,0.67,0.70,9.66,0.00,-0.00,0.00,68.56,-12.06,-32.56
2026-06-27 11:37:56.327,0.67,0.71,9.66,0.00,0.00,0.00,68.56,-12.06,-32.56
2026-06-27 11:37:56.339,0.66,0.70,9.67,-0.00,0.00,0.00,68.56,-12.06,-32.56
2026-06-27 11:37:56.351,0.68,0.72,9.66,-0.00,0.00,0.00,68.56,-12.06,-32.56
2026-06-27 11:37:56.368,0.69,0.72,9.70,-0.00,0.00,-0.00,69.69,-12.06,-31.00
2026-06-27 11:37:56.380,0.68,0.71,9.64,-0.00,-0.00,0.00,69.69,-12.06,-31.00
2026-06-27 11:37:56.398,0.65,0.71,9.65,-0.00,0.00,0.00,69.69,-12.06,-31.00
2026-06-27 11:37:56.410,0.69,0.70,9.67,-0.00,0.00,0.00,69.38,-11.25,-31.75
2026-06-27 11:37:56.427,0.68,0.70,9.67,-0.00,0.00,-0.00,69.38,-11.25,-31.75
2026-06-27 11:37:56.440,0.66,0.68,9.65,-0.00,0.00,-0.00,69.38,-11.25,-31.75
2026-06-27 11:37:56.452,0.66,0.68,9.67,0.00,0.00,0.00,69.38,-11.25,-31.75
2026-06-27 11:37:56.468,0.69,0.71,9.68,0.00,-0.00,0.00,69.69,-11.69,-32.19
2026-06-27 11:37:56.481,0.66,0.71,9.65,0.00,0.00,0.00,69.69,-11.69,-32.19
2026-06-27 11:37:56.498,0.68,0.70,9.67,0.00,-0.00,-0.00,69.69,-11.69,-32.19
2026-06-27 11:37:56.510,0.65,0.70,9.66,0.00,-0.00,-0.00,69.69,-11.69,-31.75
2026-06-27 11:37:56.528,0.67,0.72,9.68,-0.00,-0.00,0.00,69.69,-11.69,-31.75
2026-06-27 11:37:56.540,0.65,0.69,9.64,0.00,0.00,0.00,69.69,-11.69,-31.75
2026-06-27 11:37:56.552,0.68,0.67,9.64,-0.00,0.00,0.00,69.69,-11.69,-31.75
2026-06-27 11:37:56.568,0.66,0.67,9.66,-0.00,0.00,0.00,68.56,-11.69,-31.38
2026-06-27 11:37:56.580,0.67,0.67,9.64,-0.00,-0.00,0.00,68.56,-11.69,-31.38
2026-06-27 11:37:56.598,0.67,0.68,9.63,0.00,-0.00,0.00,68.56,-11.69,-31.38
2026-06-27 11:37:56.611,0.69,0.71,9.68,-0.00,0.00,0.00,69.38,-12.06,-32.19
2026-06-27 11:37:56.628,0.69,0.71,9.68,-0.00,0.00,-0.00,69.38,-12.06,-32.19
2026-06-27 11:37:56.640,0.67,0.72,9.68,-0.00,-0.00,0.00,69.38,-12.06,-32.19
2026-06-27 11:37:56.653,0.67,0.70,9.65,0.00,-0.00,0.00,69.38,-12.06,-32.19
2026-06-27 11:37:56.668,0.67,0.72,9.66,0.00,-0.00,-0.00,69.38,-12.38,-31.00
2026-06-27 11:37:56.681,0.67,0.71,9.66,-0.00,0.00,-0.00,69.38,-12.38,-31.00
2026-06-27 11:37:56.699,0.67,0.70,9.63,0.00,-0.00,-0.00,69.38,-12.38,-31.00
2026-06-27 11:37:56.711,0.68,0.70,9.68,-0.00,0.00,0.00,69.00,-12.06,-31.75
2026-06-27 11:37:56.728,0.66,0.69,9.68,-0.00,0.00,0.00,69.00,-12.06,-31.75
2026-06-27 11:37:56.741,0.67,0.71,9.66,-0.00,0.00,0.00,69.00,-12.06,-31.75
2026-06-27 11:37:56.753,0.67,0.72,9.65,-0.00,0.00,-0.00,69.00,-12.06,-31.75
2026-06-27 11:37:56.768,0.66,0.70,9.67,0.00,0.00,0.00,69.38,-12.38,-30.56
2026-06-27 11:37:56.780,0.66,0.69,9.61,0.00,0.00,0.00,69.38,-12.38,-30.56
2026-06-27 11:37:56.798,0.66,0.71,9.66,0.00,-0.00,0.00,69.38,-12.38,-30.56
2026-06-27 11:37:56.810,0.67,0.69,9.67,-0.00,0.00,0.00,69.69,-11.69,-31.00
2026-06-27 11:37:56.828,0.67,0.69,9.69,0.00,0.00,0.00,69.69,-11.69,-31.00
2026-06-27 11:37:56.840,0.67,0.69,9.66,0.00,0.00,-0.00,69.69,-11.69,-31.00
2026-06-27 11:37:56.853,0.68,0.70,9.68,-0.00,0.00,0.00,69.69,-11.69,-31.00
2026-06-27 11:37:56.868,0.65,0.70,9.66,-0.00,0.00,-0.00,69.69,-12.38,-31.75
2026-06-27 11:37:56.880,0.66,0.71,9.64,0.00,0.00,0.00,69.69,-12.38,-31.75
2026-06-27 11:37:56.898,0.67,0.70,9.66,0.00,-0.00,-0.00,69.69,-12.38,-31.75
2026-06-27 11:37:56.911,0.67,0.68,9.68,0.00,0.00,-0.00,69.00,-12.06,-31.38
2026-06-27 11:37:56.928,0.66,0.70,9.66,0.00,0.00,0.00,69.00,-12.06,-31.38
2026-06-27 11:37:56.940,0.67,0.69,9.62,0.00,-0.00,0.00,69.00,-12.06,-31.38
2026-06-27 11:37:56.953,0.65,0.71,9.67,-0.00,0.00,0.00,69.00,-12.06,-31.38
2026-06-27 11:37:56.968,0.66,0.68,9.68,0.00,0.00,-0.00,69.69,-12.06,-31.38
2026-06-27 11:37:56.980,0.69,0.70,9.63,0.00,0.00,-0.00,69.69,-12.06,-31.38
2026-06-27 11:37:56.998,0.67,0.70,9.66,0.00,0.00,-0.00,69.69,-12.06,-31.38
2026-06-27 11:37:57.011,0.67,0.69,9.65,0.00,0.00,-0.00,69.69,-12.06,-31.38
2026-06-27 11:37:57.028,0.67,0.72,9.70,0.00,0.00,-0.00,69.69,-12.06,-31.38
2026-06-27 11:37:57.041,0.67,0.68,9.66,0.00,0.00,-0.00,69.69,-12.06,-31.38
2026-06-27 11:37:57.053,0.67,0.68,9.64,0.00,0.00,0.00,69.69,-12.06,-31.38
2026-06-27 11:37:57.069,0.67,0.70,9.68,0.00,-0.00,-0.00,70.88,-11.69,-31.75
2026-06-27 11:37:57.081,0.68,0.70,9.64,0.00,0.00,0.00,70.88,-11.69,-31.75
2026-06-27 11:37:57.098,0.66,0.72,9.66,0.00,0.00,-0.00,70.88,-11.69,-31.75
2026-06-27 11:37:57.110,0.68,0.71,9.64,0.00,-0.00,0.00,69.00,-11.69,-33.00
2026-06-27 11:37:57.126,0.67,0.71,9.65,0.00,0.00,0.00,69.00,-11.69,-33.00
2026-06-27 11:37:57.139,0.69,0.70,9.67,0.00,0.00,0.00,69.00,-11.69,-33.00
2026-06-27 11:37:57.151,0.68,0.71,9.66,0.00,0.00,0.00,69.00,-11.69,-33.00
2026-06-27 11:37:57.168,0.68,0.71,9.67,0.00,0.00,0.00,69.69,-11.25,-31.75
2026-06-27 11:37:57.181,0.69,0.70,9.62,-0.00,0.00,0.00,69.69,-11.25,-31.75
2026-06-27 11:37:57.199,0.67,0.71,9.68,0.00,0.00,0.00,69.69,-11.25,-31.75
2026-06-27 11:37:57.211,0.68,0.69,9.66,0.00,-0.00,-0.00,69.69,-11.69,-31.75
2026-06-27 11:37:57.228,0.68,0.72,9.66,0.00,0.00,-0.00,69.69,-11.69,-31.75
2026-06-27 11:37:57.241,0.66,0.71,9.64,0.00,-0.00,0.00,69.69,-11.69,-31.75
2026-06-27 11:37:57.254,0.68,0.71,9.68,0.00,-0.00,0.00,69.69,-11.69,-31.75
2026-06-27 11:37:57.270,0.67,0.69,9.67,0.00,0.00,0.00,69.69,-11.69,-31.75
2026-06-27 11:37:57.282,0.67,0.70,9.65,0.00,0.00,0.00,69.69,-11.69,-31.75
2026-06-27 11:37:57.299,0.65,0.69,9.67,-0.00,0.00,-0.00,69.69,-11.69,-31.75
2026-06-27 11:37:57.311,0.66,0.71,9.67,0.00,0.00,-0.00,70.06,-12.06,-31.75
2026-06-27 11:37:57.328,0.66,0.70,9.67,-0.00,0.00,0.00,70.06,-12.06,-31.75
2026-06-27 11:37:57.341,0.67,0.70,9.65,0.00,-0.00,0.00,70.06,-12.06,-31.75
2026-06-27 11:37:57.354,0.67,0.70,9.64,0.00,0.00,-0.00,70.06,-12.06,-31.75
2026-06-27 11:37:57.370,0.69,0.71,9.67,0.00,-0.00,-0.00,69.69,-11.69,-31.38
2026-06-27 11:37:57.382,0.68,0.71,9.62,0.00,-0.00,0.00,69.69,-11.69,-31.38
2026-06-27 11:37:57.399,0.68,0.71,9.69,0.00,-0.00,-0.00,69.69,-11.69,-31.38
2026-06-27 11:37:57.411,0.67,0.70,9.67,-0.00,0.00,-0.00,69.69,-11.25,-31.00
2026-06-27 11:37:57.426,0.68,0.70,9.69,0.00,0.00,-0.00,69.69,-11.25,-31.00
2026-06-27 11:37:57.440,0.67,0.70,9.63,-0.00,-0.00,0.00,69.69,-11.25,-31.00
2026-06-27 11:37:57.453,0.69,0.69,9.65,0.00,0.00,-0.00,69.69,-11.25,-31.00
2026-06-27 11:37:57.469,0.66,0.72,9.68,0.00,0.00,-0.00,69.00,-11.25,-31.38
2026-06-27 11:37:57.482,0.68,0.69,9.63,0.00,0.00,0.00,69.00,-11.25,-31.38
2026-06-27 11:37:57.498,0.67,0.69,9.67,0.00,-0.00,-0.00,69.00,-11.25,-31.38
2026-06-27 11:37:57.510,0.68,0.70,9.69,0.00,0.00,0.00,70.06,-12.06,-30.56
2026-06-27 11:37:57.525,0.66,0.69,9.68,0.00,0.00,0.00,70.06,-12.06,-30.56
2026-06-27 11:37:57.540,0.67,0.70,9.64,0.00,0.00,0.00,70.06,-12.06,-30.56
2026-06-27 11:37:57.553,0.67,0.71,9.68,0.00,0.00,-0.00,70.06,-12.06,-30.56
2026-06-27 11:37:57.570,0.68,0.71,9.63,0.00,-0.00,0.00,69.00,-11.69,-31.38
2026-06-27 11:37:57.583,0.67,0.70,9.67,0.00,0.00,0.00,69.00,-11.69,-31.38
2026-06-27 11:37:57.600,0.66,0.69,9.66,-0.00,0.00,0.00,69.00,-11.69,-31.38
2026-06-27 11:37:57.612,0.67,0.70,9.68,-0.00,0.00,0.00,69.00,-11.25,-32.19
2026-06-27 11:37:57.629,0.67,0.71,9.64,0.00,0.00,-0.00,69.00,-11.25,-32.19
2026-06-27 11:37:57.641,0.68,0.71,9.66,0.00,0.00,-0.00,69.00,-11.25,-32.19
2026-06-27 11:37:57.654,0.68,0.70,9.66,0.00,-0.00,0.00,69.00,-11.25,-32.19
2026-06-27 11:37:57.670,0.65,0.71,9.68,0.00,-0.00,0.00,68.19,-12.75,-31.75
2026-06-27 11:37:57.683,0.67,0.71,9.64,0.00,0.00,0.00,68.19,-12.75,-31.75
2026-06-27 11:37:57.700,0.66,0.70,9.66,0.00,-0.00,0.00,68.19,-12.75,-31.75
2026-06-27 11:37:57.712,0.67,0.71,9.66,-0.00,0.00,-0.00,69.38,-11.69,-30.56
2026-06-27 11:37:57.729,0.67,0.70,9.66,0.00,-0.00,-0.00,69.38,-11.69,-30.56
2026-06-27 11:37:57.741,0.66,0.67,9.66,0.00,-0.00,-0.00,69.38,-11.69,-30.56
2026-06-27 11:37:57.754,0.67,0.71,9.67,0.00,-0.00,0.00,69.38,-11.69,-30.56
2026-06-27 11:37:57.770,0.67,0.70,9.66,0.00,0.00,-0.00,69.69,-12.06,-31.00
2026-06-27 11:37:57.783,0.68,0.70,9.63,0.00,-0.00,0.00,69.69,-12.06,-31.00
2026-06-27 11:37:57.800,0.67,0.70,9.64,0.00,0.00,0.00,69.69,-12.06,-31.00
2026-06-27 11:37:57.813,0.65,0.69,9.67,0.00,-0.00,-0.00,69.38,-10.88,-32.19
2026-06-27 11:37:57.830,0.66,0.70,9.67,0.00,0.00,0.00,69.38,-10.88,-32.19
2026-06-27 11:37:57.842,0.67,0.71,9.67,-0.00,0.00,0.00,69.38,-10.88,-32.19
2026-06-27 11:37:57.855,0.69,0.69,9.65,0.00,0.00,-0.00,69.38,-10.88,-32.19
2026-06-27 11:37:57.870,0.67,0.67,9.67,0.00,-0.00,-0.00,69.69,-12.38,-31.75
2026-06-27 11:37:57.883,0.67,0.71,9.64,-0.00,0.00,-0.00,69.69,-12.38,-31.75
2026-06-27 11:37:57.901,0.66,0.69,9.64,0.00,-0.00,0.00,69.69,-12.38,-31.75
2026-06-27 11:37:57.914,0.66,0.69,9.67,0.00,-0.00,-0.00,69.00,-11.25,-31.38
2026-06-27 11:37:57.930,0.68,0.70,9.65,0.00,-0.00,0.00,69.00,-11.25,-31.38
2026-06-27 11:37:57.942,0.67,0.70,9.63,0.00,0.00,0.00,69.00,-11.25,-31.38
2026-06-27 11:37:57.955,0.67,0.68,9.66,0.00,0.00,-0.00,69.00,-11.25,-31.38
2026-06-27 11:37:57.970,0.67,0.70,9.67,0.00,0.00,-0.00,69.38,-11.69,-31.75
2026-06-27 11:37:57.983,0.68,0.70,9.64,0.00,0.00,0.00,69.38,-11.69,-31.75
2026-06-27 11:37:57.000,0.68,0.71,9.63,0.00,0.00,0.00,69.38,-11.69,-31.75
2026-06-27 11:37:58.013,0.67,0.73,9.65,0.00,0.00,0.00,69.00,-12.06,-31.38
2026-06-27 11:37:58.031,0.68,0.70,9.65,0.00,-0.00,-0.00,69.00,-12.06,-31.38
2026-06-27 11:37:58.043,0.67,0.71,9.65,0.00,0.00,0.00,69.00,-12.06,-31.38
2026-06-27 11:37:58.055,0.67,0.72,9.66,0.00,-0.00,0.00,69.00,-12.06,-31.38
2026-06-27 11:37:58.071,0.68,0.70,9.66,0.00,0.00,-0.00,69.69,-11.69,-31.75
2026-06-27 11:37:58.084,0.66,0.70,9.63,0.00,0.00,-0.00,69.69,-11.69,-31.75
2026-06-27 11:37:58.101,0.67,0.71,9.65,0.00,0.01,-0.00,69.69,-11.69,-31.75
2026-06-27 11:37:58.113,0.65,0.69,9.66,0.00,-0.01,-0.00,69.69,-12.38,-31.75
2026-06-27 11:37:58.131,0.67,0.71,9.67,0.00,-0.00,-0.00,69.69,-12.38,-31.75
2026-06-27 11:37:58.144,0.69,0.70,9.67,0.00,-0.01,0.00,69.69,-12.38,-31.75
2026-06-27 11:37:58.156,0.68,0.70,9.68,0.00,-0.00,0.00,69.69,-12.38,-31.75
2026-06-27 11:37:58.171,0.66,0.70,9.65,0.00,0.00,-0.00,69.00,-12.38,-31.75
2026-06-27 11:37:58.184,0.67,0.69,9.67,0.00,0.00,0.00,69.00,-12.38,-31.75
2026-06-27 11:37:58.201,0.67,0.71,9.65,0.00,-0.00,-0.00,69.00,-12.38,-31.75
2026-06-27 11:37:58.213,0.66,0.69,9.67,-0.00,-0.00,0.00,69.00,-11.69,-31.38
2026-06-27 11:37:58.231,0.67,0.71,9.68,0.00,-0.00,0.00,69.00,-11.69,-31.38
2026-06-27 11:37:58.244,0.67,0.68,9.62,0.00,0.00,0.00,69.00,-11.69,-31.38
2026-06-27 11:37:58.256,0.66,0.69,9.67,0.00,0.00,0.00,69.00,-11.69,-31.38
2026-06-27 11:37:58.271,0.67,0.70,9.65,0.00,0.00,-0.00,69.38,-10.88,-31.75
2026-06-27 11:37:58.284,0.67,0.69,9.63,0.00,-0.01,0.00,69.38,-10.88,-31.75
2026-06-27 11:37:58.301,0.67,0.69,9.66,-0.00,-0.00,-0.00,69.38,-10.88,-31.75
2026-06-27 11:37:58.314,0.69,0.69,9.67,0.00,0.00,-0.00,69.00,-12.06,-32.19
2026-06-27 11:37:58.331,0.67,0.72,9.66,0.00,0.00,-0.00,69.00,-12.06,-32.19
2026-06-27 11:37:58.344,0.67,0.69,9.65,0.00,0.00,-0.00,69.00,-12.06,-32.19
2026-06-27 11:37:58.356,0.67,0.70,9.68,0.00,-0.00,-0.00,69.00,-12.06,-32.19
2026-06-27 11:37:58.371,0.66,0.70,9.65,0.00,-0.00,0.00,69.00,-12.06,-31.75
2026-06-27 11:37:58.383,0.68,0.68,9.64,0.00,0.00,0.00,69.00,-12.06,-31.75
2026-06-27 11:37:58.401,0.68,0.71,9.67,-0.00,-0.00,0.00,69.00,-12.06,-31.75
2026-06-27 11:37:58.413,0.68,0.70,9.67,-0.00,0.00,0.00,69.69,-11.69,-31.75
2026-06-27 11:37:58.431,0.68,0.70,9.66,0.00,0.00,-0.00,69.69,-11.69,-31.75
2026-06-27 11:37:58.444,0.67,0.72,9.65,0.00,-0.00,0.00,69.69,-11.69,-31.75
2026-06-27 11:37:58.456,0.66,0.71,9.66,0.00,0.00,-0.00,69.69,-11.69,-31.75
2026-06-27 11:37:58.472,0.66,0.68,9.67,0.00,0.00,0.00,69.00,-12.06,-31.75
2026-06-27 11:37:58.484,0.66,0.71,9.67,-0.00,0.00,0.00,69.00,-12.06,-31.75
2026-06-27 11:37:58.501,0.68,0.69,9.66,-0.00,0.00,0.00,69.00,-12.06,-31.75
2026-06-27 11:37:58.514,0.65,0.70,9.67,-0.00,0.00,0.00,70.50,-11.69,-32.19
2026-06-27 11:37:58.531,0.67,0.71,9.65,0.00,0.00,0.00,70.50,-11.69,-32.19
2026-06-27 11:37:58.544,0.69,0.71,9.65,0.00,0.00,-0.00,70.50,-11.69,-32.19
2026-06-27 11:37:58.556,0.67,0.70,9.65,0.00,0.00,0.00,70.50,-11.69,-32.19
2026-06-27 11:37:58.572,0.67,0.70,9.66,0.00,0.00,0.00,70.50,-11.69,-31.38
2026-06-27 11:37:58.600,0.68,0.70,9.62,-0.00,0.00,-0.00,70.50,-11.69,-31.38
2026-06-27 11:37:58.642,0.67,0.68,9.66,0.00,-0.00,0.00,69.69,-11.69,-31.75
2026-06-27 11:37:58.661,0.66,0.70,9.67,0.00,-0.00,0.00,69.69,-11.69,-31.75
2026-06-27 11:37:58.683,0.67,0.69,9.66,0.00,0.00,-0.00,69.38,-12.75,-31.00
2026-06-27 11:37:58.699,0.68,0.70,9.66,0.00,-0.00,0.00,69.38,-12.75,-31.00
2026-06-27 11:37:58.716,0.67,0.70,9.66,-0.00,-0.00,0.00,70.06,-11.25,-30.19
2026-06-27 11:37:58.734,0.67,0.70,9.64,0.00,0.00,-0.00,70.06,-11.25,-30.19
2026-06-27 11:37:58.752,0.68,0.71,9.66,0.00,0.00,0.00,70.06,-11.25,-30.19
2026-06-27 11:37:58.769,0.67,0.71,9.67,0.00,-0.00,0.00,70.50,-11.69,-31.00
2026-06-27 11:37:58.783,0.67,0.69,9.67,0.00,0.00,0.00,70.50,-11.69,-31.00
2026-06-27 11:37:58.805,0.68,0.71,9.68,0.00,-0.00,0.00,70.50,-11.69,-31.00
2026-06-27 11:37:58.825,0.67,0.68,9.65,0.00,-0.00,-0.00,68.56,-11.25,-31.75
2026-06-27 11:37:58.842,0.66,0.72,9.63,0.00,0.00,-0.00,68.56,-11.25,-31.75
2026-06-27 11:37:58.862,0.67,0.69,9.66,0.00,-0.00,0.00,68.56,-11.25,-31.75
2026-06-27 11:37:58.883,0.67,0.69,9.66,-0.00,0.00,0.00,69.69,-11.69,-31.38
2026-06-27 11:37:58.899,0.69,0.71,9.64,0.00,0.00,0.00,69.69,-11.69,-31.38
2026-06-27 11:37:58.913,0.68,0.72,9.66,0.00,0.00,-0.00,69.00,-12.06,-32.19
2026-06-27 11:37:58.926,0.68,0.69,9.67,-0.00,0.00,0.00,69.00,-12.06,-32.19
2026-06-27 11:37:58.943,0.66,0.72,9.65,-0.00,0.00,-0.00,69.00,-12.06,-32.19
2026-06-27 11:37:58.955,0.67,0.70,9.68,-0.00,-0.00,0.00,69.00,-12.06,-32.19
2026-06-27 11:37:58.973,0.65,0.70,9.67,-0.00,-0.00,0.00,69.00,-12.38,-31.38
2026-06-27 11:37:58.985,0.67,0.69,9.64,0.00,0.00,-0.00,69.00,-12.38,-31.38
2026-06-27 11:37:58.002,0.68,0.70,9.64,-0.00,-0.00,0.00,69.00,-12.38,-31.38
2026-06-27 11:37:59.015,0.69,0.73,9.66,-0.00,0.00,-0.00,69.38,-11.25,-32.56
2026-06-27 11:37:59.032,0.66,0.69,9.66,-0.00,0.00,0.00,69.38,-11.25,-32.56
2026-06-27 11:37:59.044,0.67,0.71,9.65,-0.00,0.00,-0.00,69.38,-11.25,-32.56
2026-06-27 11:37:59.056,0.66,0.69,9.69,0.00,-0.01,0.00,69.38,-11.25,-32.56
2026-06-27 11:37:59.073,0.67,0.69,9.68,0.00,0.00,0.00,69.00,-11.69,-30.56
2026-06-27 11:37:59.085,0.68,0.72,9.63,0.00,0.00,-0.00,69.00,-11.69,-30.56
2026-06-27 11:37:59.103,0.67,0.69,9.68,-0.00,0.00,0.00,69.00,-11.69,-30.56
2026-06-27 11:37:59.116,0.66,0.71,9.67,0.00,-0.00,0.00,69.69,-11.69,-33.00
2026-06-27 11:37:59.133,0.69,0.71,9.65,-0.00,0.00,-0.00,69.69,-11.69,-33.00
2026-06-27 11:37:59.146,0.67,0.73,9.66,0.00,0.00,-0.00,69.69,-11.69,-33.00
2026-06-27 11:37:59.158,0.67,0.68,9.68,-0.00,0.00,0.00,69.69,-11.69,-33.00
2026-06-27 11:37:59.173,0.69,0.69,9.68,0.00,0.00,0.00,69.69,-11.25,-30.56
2026-06-27 11:37:59.186,0.67,0.70,9.66,0.00,-0.00,-0.00,69.69,-11.25,-30.56
2026-06-27 11:37:59.203,0.67,0.70,9.64,0.00,0.00,-0.00,69.69,-11.25,-30.56
2026-06-27 11:37:59.216,0.68,0.69,9.68,0.00,0.00,-0.00,68.56,-12.38,-31.38
2026-06-27 11:37:59.233,0.66,0.70,9.64,-0.00,0.00,0.00,68.56,-12.38,-31.38
2026-06-27 11:37:59.246,0.69,0.70,9.67,0.00,0.00,0.00,68.56,-12.38,-31.38
2026-06-27 11:37:59.258,0.67,0.72,9.67,0.00,0.00,0.00,68.56,-12.38,-31.38
2026-06-27 11:37:59.273,0.67,0.73,9.66,0.00,-0.00,-0.00,69.00,-11.25,-31.00
2026-06-27 11:37:59.286,0.67,0.69,9.62,-0.00,-0.00,0.00,69.00,-11.25,-31.00
2026-06-27 11:37:59.303,0.68,0.71,9.68,-0.00,-0.00,0.00,69.00,-11.25,-31.00
2026-06-27 11:37:59.315,0.66,0.71,9.66,-0.00,0.00,-0.00,70.06,-12.06,-30.56
2026-06-27 11:37:59.333,0.69,0.72,9.66,0.00,-0.00,0.00,70.06,-12.06,-30.56
2026-06-27 11:37:59.346,0.67,0.70,9.66,-0.00,0.01,-0.00,70.06,-12.06,-30.56
2026-06-27 11:37:59.359,0.67,0.73,9.67,0.00,0.00,0.00,70.06,-12.06,-30.56
2026-06-27 11:37:59.374,0.67,0.73,9.67,0.00,0.00,0.00,69.69,-11.25,-31.38
2026-06-27 11:37:59.386,0.68,0.69,9.63,0.00,0.00,0.00,69.69,-11.25,-31.38
2026-06-27 11:37:59.403,0.68,0.69,9.66,0.00,-0.00,0.00,69.69,-11.25,-31.38
2026-06-27 11:37:59.417,0.69,0.71,9.65,0.00,-0.00,0.00,69.00,-12.06,-31.38
2026-06-27 11:37:59.433,0.67,0.71,9.63,0.00,-0.00,0.00,69.00,-12.06,-31.38
2026-06-27 11:37:59.446,0.67,0.69,9.65,0.00,0.00,-0.00,69.00,-12.06,-31.38
2026-06-27 11:37:59.459,0.67,0.71,9.66,-0.00,-0.00,0.00,69.00,-12.06,-31.38
2026-06-27 11:37:59.474,0.68,0.71,9.68,0.00,-0.00,0.00,69.69,-11.69,-31.00
2026-06-27 11:37:59.487,0.69,0.71,9.63,0.00,-0.00,0.00,69.69,-11.69,-31.00
2026-06-27 11:37:59.504,0.65,0.69,9.68,0.00,0.00,0.00,69.69,-11.69,-31.00
2026-06-27 11:37:59.516,0.67,0.71,9.66,0.00,-0.00,0.00,68.56,-12.06,-31.00
2026-06-27 11:37:59.534,0.66,0.70,9.68,0.00,-0.00,0.00,68.56,-12.06,-31.00
2026-06-27 11:37:59.547,0.67,0.70,9.66,0.00,-0.00,0.00,68.56,-12.06,-31.00
2026-06-27 11:37:59.560,0.68,0.69,9.67,0.00,0.00,0.00,68.56,-12.06,-31.00
2026-06-27 11:37:59.575,0.67,0.69,9.68,0.00,-0.00,0.00,69.69,-12.06,-31.00
2026-06-27 11:37:59.589,0.66,0.71,9.64,0.00,-0.00,0.00,69.69,-12.06,-31.00
2026-06-27 11:37:59.604,0.66,0.72,9.64,-0.00,-0.01,0.00,69.69,-12.06,-31.00
2026-06-27 11:37:59.618,0.67,0.68,9.67,-0.00,-0.00,0.00,70.06,-12.38,-31.00
2026-06-27 11:37:59.634,0.69,0.69,9.67,0.00,-0.00,0.00,70.06,-12.38,-31.00
2026-06-27 11:37:59.651,0.65,0.71,9.66,0.00,-0.00,0.00,70.06,-12.38,-31.00
2026-06-27 11:37:59.666,0.68,0.71,9.65,0.00,-0.00,0.00,69.38,-12.75,-31.75
2026-06-27 11:37:59.684,0.65,0.71,9.68,0.00,0.00,0.00,69.38,-12.75,-31.75
2026-06-27 11:37:59.696,0.68,0.68,9.66,-0.00,-0.00,0.00,69.38,-12.75,-31.75
2026-06-27 11:37:59.709,0.67,0.70,9.66,0.00,-0.00,0.00,69.38,-12.75,-31.75
2026-06-27 11:37:59.724,0.66,0.71,9.66,0.00,0.00,-0.00,69.38,-12.06,-31.75
2026-06-27 11:37:59.737,0.68,0.71,9.63,-0.00,-0.00,-0.00,69.38,-12.06,-31.75
2026-06-27 11:37:59.755,0.67,0.71,9.67,-0.00,-0.00,0.00,69.38,-12.06,-31.75
2026-06-27 11:37:59.773,0.67,0.70,9.68,0.00,0.00,0.00,69.00,-11.69,-30.56
2026-06-27 11:37:59.786,0.67,0.69,9.66,0.00,0.00,0.00,69.00,-11.69,-30.56
2026-06-27 11:37:59.804,0.68,0.69,9.65,0.00,0.00,0.00,69.00,-11.69,-30.56
2026-06-27 11:37:59.816,0.66,0.68,9.65,0.00,0.00,-0.00,69.69,-12.06,-32.19
2026-06-27 11:37:59.833,0.67,0.72,9.67,0.00,0.00,0.00,69.69,-12.06,-32.19
2026-06-27 11:37:59.846,0.66,0.71,9.62,-0.00,-0.00,0.00,69.69,-12.06,-32.19
2026-06-27 11:37:59.859,0.67,0.71,9.67,-0.00,0.00,-0.00,69.69,-12.06,-32.19
2026-06-27 11:37:59.875,0.67,0.70,9.64,-0.00,0.00,-0.00,69.69,-11.25,-31.38
2026-06-27 11:37:59.887,0.67,0.70,9.67,-0.00,0.00,-0.00,69.69,-11.25,-31.38
2026-06-27 11:37:59.905,0.66,0.71,9.66,-0.00,0.00,0.00,69.69,-11.25,-31.38
2026-06-27 11:37:59.918,0.67,0.69,9.66,-0.00,0.00,-0.00,70.06,-11.69,-31.75
2026-06-27 11:37:59.934,0.67,0.69,9.68,0.00,-0.00,0.00,70.06,-11.69,-31.75
2026-06-27 11:37:59.947,0.67,0.70,9.63,-0.00,0.00,0.00,70.06,-11.69,-31.75
2026-06-27 11:37:59.960,0.66,0.70,9.67,-0.00,0.00,0.00,70.06,-11.69,-31.75
2026-06-27 11:37:59.982,0.67,0.70,9.68,0.00,-0.01,0.00,70.06,-11.69,-31.75
2026-06-27 11:37:59.996,0.69,0.70,9.66,-0.00,0.00,0.00,70.06,-11.69,-31.75
2026-06-27 11:38:00.010,0.66,0.72,9.66,-0.00,0.00,-0.00,70.06,-11.69,-31.75
2026-06-27 11:38:00.026,0.66,0.68,9.67,0.00,0.00,-0.00,70.50,-11.25,-30.56
2026-06-27 11:38:00.038,0.67,0.71,9.65,0.00,-0.00,0.00,70.50,-11.25,-30.56
2026-06-27 11:38:00.055,0.67,0.71,9.66,0.00,-0.00,-0.00,70.50,-11.25,-30.56
2026-06-27 11:38:00.068,0.68,0.68,9.65,0.00,0.00,0.00,70.06,-12.06,-32.19
2026-06-27 11:38:00.085,0.66,0.68,9.65,0.00,0.00,-0.00,70.06,-12.06,-32.19
2026-06-27 11:38:00.103,0.68,0.70,9.66,-0.00,-0.00,0.00,70.06,-12.06,-32.19
2026-06-27 11:38:00.118,0.68,0.71,9.67,0.00,0.00,0.00,70.50,-12.06,-32.19
2026-06-27 11:38:00.135,0.65,0.69,9.67,0.00,-0.00,0.00,70.50,-12.06,-32.19
2026-06-27 11:38:00.151,0.68,0.71,9.65,-0.00,-0.00,0.00,70.50,-12.06,-32.19
2026-06-27 11:38:00.166,0.67,0.70,9.67,0.00,0.00,0.00,69.69,-11.69,-31.00
2026-06-27 11:38:00.186,0.67,0.70,9.68,-0.00,0.00,0.00,69.69,-11.69,-31.00
2026-06-27 11:38:00.200,0.68,0.70,9.67,0.00,0.00,-0.00,69.69,-11.69,-31.00
2026-06-27 11:38:00.216,0.67,0.68,9.66,0.00,0.00,0.00,69.69,-12.06,-30.56
2026-06-27 11:38:00.233,0.67,0.68,9.65,0.00,0.00,-0.00,69.69,-12.06,-30.56
2026-06-27 11:38:00.247,0.67,0.71,9.65,0.00,0.00,0.00,69.69,-12.06,-30.56
2026-06-27 11:38:00.267,0.67,0.72,9.64,-0.00,-0.00,0.00,69.38,-12.75,-32.19
2026-06-27 11:38:00.284,0.66,0.70,9.69,-0.00,-0.00,0.00,69.38,-12.75,-32.19
2026-06-27 11:38:00.299,0.68,0.69,9.62,0.00,0.00,0.00,69.38,-12.75,-32.19
2026-06-27 11:38:00.312,0.67,0.70,9.65,0.00,-0.00,0.00,69.38,-12.75,-32.19
2026-06-27 11:38:00.327,0.67,0.72,9.66,0.00,-0.00,0.00,69.69,-12.06,-31.38
2026-06-27 11:38:00.344,0.67,0.68,9.65,0.00,0.00,-0.00,69.69,-12.06,-31.38
2026-06-27 11:38:00.357,0.69,0.70,9.66,0.00,0.00,-0.00,69.69,-12.06,-31.38
2026-06-27 11:38:00.377,0.67,0.71,9.66,0.00,0.00,0.00,70.06,-11.69,-31.00
2026-06-27 11:38:00.394,0.68,0.71,9.66,0.00,-0.00,0.00,70.06,-11.69,-31.00
2026-06-27 11:38:00.408,0.65,0.70,9.66,0.00,-0.00,0.00,70.06,-11.69,-31.00
2026-06-27 11:38:00.426,0.67,0.73,9.67,0.00,0.00,-0.00,69.69,-12.75,-31.75
2026-06-27 11:38:00.445,0.67,0.70,9.64,0.00,-0.00,-0.00,69.69,-12.75,-31.75
2026-06-27 11:38:00.459,0.66,0.71,9.68,0.00,0.00,-0.00,69.69,-12.75,-31.75
2026-06-27 11:38:00.476,0.68,0.71,9.66,0.00,0.00,-0.00,69.00,-11.69,-31.38
2026-06-27 11:38:00.492,0.68,0.69,9.65,-0.00,0.00,-0.00,69.00,-11.69,-31.38
2026-06-27 11:38:00.510,0.66,0.70,9.69,0.00,0.00,0.00,69.00,-11.69,-31.38
2026-06-27 11:38:00.532,0.66,0.70,9.67,0.00,-0.00,0.00,70.88,-11.25,-31.38
2026-06-27 11:38:00.547,0.66,0.69,9.64,0.00,0.00,0.00,70.88,-11.25,-31.38
2026-06-27 11:38:00.561,0.66,0.70,9.68,0.00,0.00,0.00,70.88,-11.25,-31.38
2026-06-27 11:38:00.578,0.67,0.72,9.68,0.00,0.00,0.00,70.50,-10.88,-31.38
2026-06-27 11:38:00.595,0.68,0.70,9.63,0.00,-0.00,0.00,70.50,-10.88,-31.38
2026-06-27 11:38:00.609,0.66,0.70,9.66,0.00,-0.00,0.00,70.50,-10.88,-31.38
2026-06-27 11:38:00.626,0.66,0.70,9.65,0.00,0.00,0.00,69.38,-12.06,-31.38
2026-06-27 11:38:00.646,0.67,0.71,9.65,0.00,0.00,0.00,69.38,-12.06,-31.38
2026-06-27 11:38:00.662,0.70,0.70,9.68,0.00,0.00,-0.00,69.38,-12.06,-31.38
2026-06-27 11:38:00.679,0.67,0.72,9.64,0.00,0.00,0.00,69.00,-12.06,-32.19
2026-06-27 11:38:00.697,0.65,0.72,9.63,-0.00,-0.00,0.00,69.00,-12.06,-32.19
2026-06-27 11:38:00.713,0.67,0.69,9.67,0.00,-0.00,0.00,69.00,-12.06,-32.19
2026-06-27 11:38:00.729,0.66,0.71,9.68,0.00,0.00,0.00,69.69,-12.38,-32.19
2026-06-27 11:38:00.748,0.67,0.73,9.65,0.00,0.00,0.00,69.69,-12.38,-32.19
2026-06-27 11:38:00.762,0.67,0.70,9.68,-0.00,-0.00,0.00,69.69,-12.38,-32.19
2026-06-27 11:38:00.778,0.65,0.70,9.68,0.00,-0.00,0.00,70.06,-11.69,-31.38
2026-06-27 11:38:00.797,0.67,0.69,9.64,0.00,-0.00,0.00,70.06,-11.69,-31.38
2026-06-27 11:38:00.813,0.66,0.69,9.67,0.00,-0.00,0.00,70.06,-11.69,-31.38
2026-06-27 11:38:00.830,0.65,0.69,9.66,0.00,0.00,0.00,69.38,-11.25,-32.56
2026-06-27 11:38:00.848,0.66,0.69,9.64,-0.00,0.00,0.00,69.38,-11.25,-32.56
2026-06-27 11:38:00.863,0.68,0.70,9.66,0.00,0.00,0.00,69.38,-11.25,-32.56
2026-06-27 11:38:00.878,0.67,0.70,9.67,0.00,-0.00,-0.00,69.38,-12.06,-32.19
2026-06-27 11:38:00.897,0.65,0.72,9.64,0.00,-0.00,0.00,69.38,-12.06,-32.19
2026-06-27 11:38:00.910,0.67,0.69,9.63,0.00,0.00,0.00,69.38,-12.06,-32.19
2026-06-27 11:38:00.928,0.68,0.71,9.63,0.00,0.00,0.00,69.69,-12.06,-31.00
2026-06-27 11:38:00.946,0.67,0.70,9.66,0.00,0.00,0.00,69.69,-12.06,-31.00
2026-06-27 11:38:00.962,0.67,0.71,9.66,0.00,0.00,0.00,69.69,-12.06,-31.00
2026-06-27 11:38:00.985,0.68,0.70,9.66,0.00,-0.00,0.00,69.38,-11.69,-31.75
2026-06-27 11:38:00.998,0.68,0.71,9.64,0.00,0.00,-0.00,69.38,-11.69,-31.75
2026-06-27 11:38:01.013,0.67,0.70,9.68,0.00,0.00,0.00,69.38,-11.69,-31.75
2026-06-27 11:38:01.033,0.66,0.70,9.67,-0.00,-0.00,0.00,70.06,-11.69,-31.38
2026-06-27 11:38:01.049,0.67,0.69,9.65,0.00,-0.00,0.00,70.06,-11.69,-31.38
2026-06-27 11:38:01.068,0.67,0.69,9.65,0.00,0.00,0.00,69.38,-12.06,-31.75
2026-06-27 11:38:01.087,0.68,0.70,9.67,0.00,-0.00,-0.00,69.38,-12.06,-31.75
2026-06-27 11:38:01.104,0.67,0.72,9.65,-0.00,0.00,-0.00,69.38,-12.06,-31.75
2026-06-27 11:38:01.119,0.67,0.72,9.64,0.00,0.00,0.00,69.38,-12.06,-32.19
2026-06-27 11:38:01.138,0.64,0.71,9.67,-0.00,0.00,0.00,69.38,-12.06,-32.19
2026-06-27 11:38:01.157,0.67,0.71,9.67,0.00,0.00,0.00,69.38,-12.06,-32.19
2026-06-27 11:38:01.177,0.69,0.70,9.68,0.00,0.00,-0.00,70.88,-12.06,-31.38
2026-06-27 11:38:01.195,0.67,0.70,9.63,0.00,-0.00,0.00,70.88,-12.06,-31.38
2026-06-27 11:38:01.208,0.67,0.69,9.66,0.00,0.00,-0.00,70.88,-12.06,-31.38
2026-06-27 11:38:01.228,0.67,0.70,9.69,0.00,0.00,0.00,69.00,-11.69,-30.56
2026-06-27 11:38:01.242,0.67,0.68,9.67,0.00,-0.00,0.00,69.00,-11.69,-30.56
2026-06-27 11:38:01.259,0.67,0.69,9.64,-0.00,0.00,0.00,69.00,-11.69,-30.56
2026-06-27 11:38:01.277,0.66,0.69,9.65,-0.00,0.00,-0.00,70.06,-12.06,-31.75
2026-06-27 11:38:01.294,0.67,0.70,9.62,0.00,-0.00,0.00,70.06,-12.06,-31.75
2026-06-27 11:38:01.309,0.67,0.68,9.68,0.00,-0.00,0.00,70.06,-12.06,-31.75
2026-06-27 11:38:01.328,0.67,0.69,9.65,0.00,0.00,-0.00,70.06,-11.69,-32.56
2026-06-27 11:38:01.344,0.68,0.69,9.65,0.00,-0.00,0.00,70.06,-11.69,-32.56
2026-06-27 11:38:01.360,0.67,0.72,9.64,-0.00,0.00,0.00,70.06,-11.69,-32.56
2026-06-27 11:38:01.378,0.68,0.72,9.66,0.00,0.00,0.00,69.00,-12.38,-30.19
2026-06-27 11:38:01.398,0.65,0.69,9.66,0.00,0.00,-0.00,69.00,-12.38,-30.19
2026-06-27 11:38:01.411,0.67,0.71,9.66,0.00,0.00,-0.00,69.00,-12.38,-30.19
2026-06-27 11:38:01.428,0.67,0.69,9.66,0.00,0.00,0.00,69.69,-12.06,-32.19
2026-06-27 11:38:01.445,0.68,0.71,9.62,0.00,0.00,0.00,69.69,-12.06,-32.19
2026-06-27 11:38:01.460,0.65,0.69,9.63,-0.00,0.00,0.00,69.69,-12.06,-32.19
2026-06-27 11:38:01.478,0.67,0.69,9.63,0.00,0.00,0.00,69.69,-12.75,-31.00
2026-06-27 11:38:01.498,0.67,0.71,9.68,0.00,0.00,0.00,69.69,-12.75,-31.00
2026-06-27 11:38:01.511,0.65,0.71,9.67,0.00,-0.00,-0.00,69.69,-12.75,-31.00
2026-06-27 11:38:01.529,0.66,0.71,9.66,0.00,0.00,-0.00,69.69,-11.69,-31.00
2026-06-27 11:38:01.548,0.67,0.72,9.63,0.00,-0.00,0.00,69.69,-11.69,-31.00
2026-06-27 11:38:01.562,0.68,0.72,9.65,0.00,0.00,0.00,69.69,-11.69,-31.00
2026-06-27 11:38:01.579,0.67,0.70,9.68,0.00,0.01,-0.00,69.69,-11.25,-32.56
2026-06-27 11:38:01.598,0.68,0.68,9.64,0.00,0.00,0.00,69.69,-11.25,-32.56
2026-06-27 11:38:01.613,0.67,0.69,9.69,0.00,0.00,-0.00,69.69,-11.25,-32.56
2026-06-27 11:38:01.630,0.67,0.70,9.66,-0.00,-0.00,0.00,69.38,-11.25,-30.56
2026-06-27 11:38:01.648,0.69,0.73,9.65,0.00,0.00,0.00,69.38,-11.25,-30.56
2026-06-27 11:38:01.663,0.67,0.70,9.66,-0.00,-0.00,0.00,69.38,-11.25,-30.56
2026-06-27 11:38:01.685,0.65,0.69,9.68,-0.00,0.00,-0.00,69.69,-12.06,-31.00
2026-06-27 11:38:01.707,0.68,0.71,9.67,-0.00,-0.00,0.00,69.69,-12.06,-31.00
2026-06-27 11:38:01.721,0.67,0.71,9.66,0.00,0.00,0.00,69.38,-12.75,-32.19
2026-06-27 11:38:01.740,0.67,0.70,9.68,0.00,0.00,0.00,69.38,-12.75,-32.19
2026-06-27 11:38:01.759,0.67,0.68,9.65,0.00,-0.00,-0.00,69.38,-12.75,-32.19
2026-06-27 11:38:01.778,0.68,0.69,9.68,0.00,-0.01,0.00,69.00,-11.69,-32.56
2026-06-27 11:38:01.792,0.67,0.71,9.63,0.00,0.00,-0.00,69.00,-11.69,-32.56
2026-06-27 11:38:01.813,0.65,0.69,9.68,-0.00,0.00,-0.00,69.00,-11.69,-32.56
2026-06-27 11:38:01.848,0.66,0.71,9.67,0.00,-0.00,0.00,69.38,-11.69,-32.19
2026-06-27 11:38:01.861,0.68,0.68,9.64,0.00,0.00,-0.00,69.38,-11.69,-32.19
2026-06-27 11:38:01.885,0.67,0.73,9.68,0.00,0.00,0.00,69.69,-11.25,-31.00
2026-06-27 11:38:01.900,0.66,0.70,9.64,0.00,0.00,0.00,69.69,-11.25,-31.00
2026-06-27 11:38:01.918,0.68,0.69,9.68,0.00,-0.00,0.00,69.38,-12.38,-31.38
2026-06-27 11:38:01.940,0.68,0.69,9.67,-0.00,0.00,0.00,69.38,-12.38,-31.38
2026-06-27 11:38:01.955,0.67,0.68,9.68,0.00,-0.00,0.00,69.38,-12.38,-31.38
2026-06-27 11:38:01.970,0.66,0.69,9.64,0.00,0.00,0.00,69.69,-11.69,-31.38
2026-06-27 11:38:01.983,0.67,0.70,9.66,-0.00,0.00,0.00,69.69,-11.69,-31.38
2026-06-27 11:38:01.999,0.67,0.72,9.63,-0.00,0.00,0.00,69.69,-11.69,-31.38
2026-06-27 11:38:02.011,0.66,0.69,9.67,0.00,0.00,-0.00,69.69,-11.69,-31.38
2026-06-27 11:38:02.028,0.68,0.71,9.68,0.00,0.00,0.00,69.69,-12.06,-31.75
2026-06-27 11:38:02.040,0.66,0.71,9.64,0.00,0.00,-0.00,69.69,-12.06,-31.75
2026-06-27 11:38:02.058,0.66,0.71,9.68,0.00,0.00,-0.00,69.69,-12.06,-31.75
2026-06-27 11:38:02.070,0.67,0.69,9.66,0.00,-0.00,0.00,70.88,-12.38,-31.75
2026-06-27 11:38:02.082,0.67,0.69,9.66,0.00,0.00,-0.00,70.88,-12.38,-31.75
2026-06-27 11:38:02.099,0.68,0.70,9.65,0.00,0.00,0.00,70.88,-12.38,-31.75
2026-06-27 11:38:02.111,0.66,0.70,9.64,0.00,0.00,0.00,70.88,-12.38,-31.75
2026-06-27 11:38:02.127,0.68,0.70,9.66,-0.00,0.00,-0.00,69.38,-12.38,-31.00
2026-06-27 11:38:02.140,0.66,0.71,9.63,-0.00,0.00,0.00,69.38,-12.38,-31.00
2026-06-27 11:38:02.152,0.67,0.71,9.65,0.00,-0.00,0.00,69.38,-12.38,-31.00
2026-06-27 11:38:02.165,0.66,0.69,9.64,0.00,-0.00,0.00,69.38,-12.38,-31.00
2026-06-27 11:38:02.180,0.67,0.71,9.65,0.00,-0.00,0.00,68.56,-13.19,-31.75
2026-06-27 11:38:02.196,0.66,0.68,9.66,0.00,0.00,-0.00,68.56,-13.19,-31.75
2026-06-27 11:38:02.210,0.67,0.70,9.65,0.00,-0.00,0.00,68.56,-13.19,-31.75
2026-06-27 11:38:02.222,0.69,0.70,9.67,0.00,0.00,-0.00,70.50,-11.69,-31.75
2026-06-27 11:38:02.239,0.68,0.70,9.65,0.00,0.00,0.00,70.50,-11.69,-31.75
2026-06-27 11:38:02.251,0.65,0.72,9.64,0.00,0.00,0.00,70.50,-11.69,-31.75
2026-06-27 11:38:02.264,0.68,0.70,9.68,0.00,0.00,-0.00,70.50,-11.69,-31.75
2026-06-27 11:38:02.279,0.66,0.72,9.67,0.00,0.00,0.00,69.38,-12.75,-31.38
2026-06-27 11:38:02.292,0.68,0.72,9.65,0.00,-0.00,0.00,69.38,-12.75,-31.38
2026-06-27 11:38:02.309,0.67,0.73,9.68,0.00,0.00,-0.00,69.38,-12.75,-31.38
2026-06-27 11:38:02.321,0.66,0.69,9.66,0.00,0.00,-0.00,69.00,-11.25,-30.56
2026-06-27 11:38:02.336,0.66,0.68,9.68,-0.00,-0.00,0.00,69.00,-11.25,-30.56
2026-06-27 11:38:02.350,0.67,0.71,9.65,0.00,-0.00,-0.00,69.00,-11.25,-30.56
2026-06-27 11:38:02.363,0.67,0.70,9.67,0.00,-0.00,-0.00,69.00,-11.25,-30.56
2026-06-27 11:38:02.379,0.67,0.70,9.65,0.00,-0.00,0.00,70.06,-12.06,-31.38
2026-06-27 11:38:02.392,0.68,0.71,9.65,0.00,-0.00,-0.00,70.06,-12.06,-31.38
2026-06-27 11:38:02.408,0.67,0.72,9.69,0.00,-0.00,0.00,70.06,-12.06,-31.38
2026-06-27 11:38:02.420,0.67,0.70,9.66,0.00,-0.00,0.00,69.38,-11.25,-31.00
2026-06-27 11:38:02.433,0.68,0.70,9.65,0.00,0.00,0.00,69.38,-11.25,-31.00
2026-06-27 11:38:02.450,0.67,0.71,9.66,0.00,0.00,0.00,69.38,-11.25,-31.00
2026-06-27 11:38:02.462,0.69,0.69,9.68,-0.00,0.00,0.00,69.38,-11.25,-31.00
2026-06-27 11:38:02.479,0.65,0.70,9.64,0.00,-0.00,0.00,69.00,-12.38,-31.38
2026-06-27 11:38:02.491,0.66,0.71,9.64,-0.00,-0.00,0.00,69.00,-12.38,-31.38
2026-06-27 11:38:02.506,0.65,0.72,9.66,-0.00,-0.00,0.00,69.00,-12.38,-31.38
2026-06-27 11:38:02.520,0.66,0.70,9.65,0.00,-0.00,0.00,70.06,-12.38,-32.19
2026-06-27 11:38:02.532,0.66,0.69,9.68,0.00,-0.00,-0.00,70.06,-12.38,-32.19
2026-06-27 11:38:02.549,0.68,0.70,9.63,0.00,0.00,-0.00,70.06,-12.38,-32.19
2026-06-27 11:38:02.561,0.68,0.69,9.65,0.00,0.00,-0.00,70.06,-12.38,-32.19
2026-06-27 11:38:02.581,0.67,0.69,9.66,0.00,0.00,0.00,69.00,-11.69,-30.56
2026-06-27 11:38:02.594,0.67,0.71,9.64,0.00,0.00,-0.00,69.00,-11.69,-30.56
2026-06-27 11:38:02.610,0.66,0.69,9.64,0.00,-0.00,0.00,69.00,-11.69,-30.56
2026-06-27 11:38:02.622,0.67,0.71,9.67,0.00,-0.00,-0.00,70.50,-12.06,-32.19
2026-06-27 11:38:02.639,0.66,0.70,9.66,-0.00,0.00,0.00,70.50,-12.06,-32.19
2026-06-27 11:38:02.652,0.67,0.70,9.65,0.00,-0.00,0.00,70.50,-12.06,-32.19
2026-06-27 11:38:02.664,0.68,0.68,9.68,0.00,0.00,0.00,70.50,-12.06,-32.19
2026-06-27 11:38:02.680,0.68,0.70,9.68,-0.00,-0.00,-0.00,69.69,-12.06,-31.00
2026-06-27 11:38:02.693,0.68,0.71,9.67,0.00,-0.00,0.00,69.69,-12.06,-31.00
2026-06-27 11:38:02.710,0.67,0.69,9.67,0.00,0.00,0.00,69.69,-12.06,-31.00
2026-06-27 11:38:02.722,0.64,0.68,9.66,0.00,-0.00,0.00,70.06,-11.25,-32.56
2026-06-27 11:38:02.738,0.67,0.70,9.66,0.00,-0.00,0.00,70.06,-11.25,-32.56
2026-06-27 11:38:02.751,0.65,0.70,9.67,0.00,0.00,0.00,70.06,-11.25,-32.56
2026-06-27 11:38:02.763,0.67,0.69,9.65,0.00,0.00,-0.00,70.06,-11.25,-32.56
2026-06-27 11:38:02.780,0.68,0.70,9.63,0.00,-0.00,0.00,70.06,-12.38,-33.00
2026-06-27 11:38:02.792,0.68,0.69,9.63,0.00,0.00,0.00,70.06,-12.38,-33.00
2026-06-27 11:38:02.810,0.68,0.70,9.66,-0.00,0.00,0.00,70.06,-12.38,-33.00
2026-06-27 11:38:02.822,0.66,0.72,9.65,0.00,0.00,0.00,69.69,-11.69,-32.19
2026-06-27 11:38:02.838,0.68,0.68,9.66,0.00,0.00,-0.00,69.69,-11.69,-32.19
2026-06-27 11:38:02.851,0.66,0.72,9.64,0.00,-0.00,0.00,69.69,-11.69,-32.19
2026-06-27 11:38:02.863,0.67,0.71,9.67,0.00,-0.00,0.00,69.69,-11.69,-32.19
2026-06-27 11:38:02.880,0.68,0.72,9.64,0.00,-0.00,-0.00,69.69,-12.06,-31.00
2026-06-27 11:38:02.893,0.67,0.72,9.65,-0.00,0.00,-0.00,69.69,-12.06,-31.00
2026-06-27 11:38:02.909,0.67,0.69,9.67,0.00,0.00,-0.00,69.69,-12.06,-31.00
2026-06-27 11:38:02.922,0.68,0.70,9.66,0.00,0.00,0.00,70.06,-12.06,-31.75
2026-06-27 11:38:02.934,0.67,0.69,9.67,0.00,0.00,-0.00,70.06,-12.06,-31.75
2026-06-27 11:38:02.950,0.68,0.71,9.63,-0.00,0.00,-0.00,70.06,-12.06,-31.75
2026-06-27 11:38:02.962,0.66,0.69,9.68,0.00,0.00,0.00,70.06,-12.06,-31.75
2026-06-27 11:38:02.977,0.66,0.70,9.67,0.00,-0.00,0.00,69.38,-11.69,-31.75
2026-06-27 11:38:02.991,0.65,0.69,9.65,-0.00,0.00,-0.00,69.38,-11.69,-31.75
2026-06-27 11:38:03.004,0.67,0.69,9.65,0.00,0.00,0.00,69.38,-11.69,-31.75
2026-06-27 11:38:03.016,0.66,0.70,9.67,0.00,0.00,0.00,69.38,-11.69,-31.75
2026-06-27 11:38:03.031,0.68,0.69,9.67,0.00,0.00,-0.00,69.69,-12.38,-30.19
2026-06-27 11:38:03.043,0.67,0.71,9.65,-0.00,0.00,0.00,69.69,-12.38,-30.19
2026-06-27 11:38:03.061,0.66,0.70,9.64,-0.00,-0.00,-0.00,69.69,-12.38,-30.19
2026-06-27 11:38:03.073,0.67,0.70,9.66,-0.00,-0.00,0.00,70.06,-10.88,-32.19
2026-06-27 11:38:03.090,0.67,0.70,9.64,0.00,0.00,0.00,70.06,-10.88,-32.19
2026-06-27 11:38:03.103,0.68,0.69,9.66,0.00,0.00,0.00,70.06,-10.88,-32.19
2026-06-27 11:38:03.115,0.67,0.69,9.65,0.00,0.00,0.00,70.06,-10.88,-32.19
2026-06-27 11:38:03.131,0.68,0.70,9.68,-0.00,-0.00,0.00,70.50,-12.06,-31.75
2026-06-27 11:38:03.143,0.69,0.70,9.65,0.00,0.00,0.00,70.50,-12.06,-31.75
2026-06-27 11:38:03.161,0.67,0.72,9.65,0.00,0.00,0.00,70.50,-12.06,-31.75
2026-06-27 11:38:03.173,0.68,0.69,9.65,0.00,-0.00,0.00,69.38,-12.06,-31.38
2026-06-27 11:38:03.187,0.67,0.69,9.67,-0.00,-0.00,0.00,69.38,-12.06,-31.38
2026-06-27 11:38:03.202,0.68,0.71,9.64,0.00,0.00,-0.00,69.38,-12.06,-31.38
2026-06-27 11:38:03.214,0.67,0.69,9.66,0.00,0.00,-0.00,69.38,-12.06,-31.38
2026-06-27 11:38:03.231,0.68,0.70,9.66,0.00,-0.00,0.00,68.19,-11.25,-31.38
2026-06-27 11:38:03.243,0.68,0.71,9.64,0.00,0.00,-0.00,68.19,-11.25,-31.38
2026-06-27 11:38:03.259,0.66,0.70,9.68,0.00,0.00,0.00,68.19,-11.25,-31.38
2026-06-27 11:38:03.272,0.68,0.70,9.65,0.00,-0.00,-0.00,69.38,-12.06,-31.00
2026-06-27 11:38:03.284,0.67,0.68,9.68,-0.00,0.00,0.00,69.38,-12.06,-31.00
2026-06-27 11:38:03.302,0.68,0.69,9.63,0.00,0.00,-0.00,69.38,-12.06,-31.00
2026-06-27 11:38:03.314,0.66,0.71,9.66,0.00,-0.00,0.00,69.38,-12.06,-31.00
2026-06-27 11:38:03.331,0.66,0.72,9.64,-0.00,0.00,-0.00,68.56,-11.25,-31.75
2026-06-27 11:38:03.343,0.67,0.70,9.64,0.00,0.00,0.00,68.56,-11.25,-31.75
2026-06-27 11:38:03.357,0.68,0.70,9.66,0.00,-0.00,0.00,68.56,-11.25,-31.75
2026-06-27 11:38:03.372,0.67,0.70,9.66,0.00,-0.00,-0.00,69.38,-10.88,-31.00
2026-06-27 11:38:03.385,0.66,0.68,9.67,0.00,-0.00,-0.00,69.38,-10.88,-31.00
2026-06-27 11:38:03.402,0.67,0.69,9.62,0.00,0.00,0.00,69.38,-10.88,-31.00
2026-06-27 11:38:03.414,0.67,0.69,9.68,0.00,-0.00,0.00,69.38,-10.88,-31.00
2026-06-27 11:38:03.431,0.69,0.71,9.65,0.00,0.00,0.00,69.69,-11.25,-31.38
2026-06-27 11:38:03.443,0.67,0.71,9.65,0.00,-0.00,0.00,69.69,-11.25,-31.38
2026-06-27 11:38:03.461,0.67,0.69,9.65,0.00,-0.00,0.00,69.69,-11.25,-31.38
2026-06-27 11:38:03.473,0.67,0.70,9.65,-0.00,0.00,0.00,69.38,-11.69,-31.38
2026-06-27 11:38:03.487,0.67,0.70,9.66,0.00,0.00,0.00,69.38,-11.69,-31.38
2026-06-27 11:38:03.502,0.68,0.69,9.62,0.00,-0.00,0.00,69.38,-11.69,-31.38
2026-06-27 11:38:03.514,0.67,0.70,9.66,0.00,-0.00,0.00,69.38,-11.69,-31.38
2026-06-27 11:38:03.531,0.67,0.70,9.65,0.00,-0.00,0.00,69.00,-11.25,-32.19
2026-06-27 11:38:03.544,0.68,0.71,9.62,0.00,-0.00,-0.00,69.00,-11.25,-32.19
2026-06-27 11:38:03.557,0.69,0.70,9.64,0.00,0.00,0.00,69.00,-11.25,-32.19
2026-06-27 11:38:03.572,0.68,0.72,9.67,-0.00,0.00,-0.00,69.69,-12.38,-31.75
2026-06-27 11:38:03.584,0.66,0.70,9.66,-0.00,0.00,0.00,69.69,-12.38,-31.75
2026-06-27 11:38:03.601,0.68,0.69,9.64,0.00,0.00,0.00,69.69,-12.38,-31.75
2026-06-27 11:38:03.614,0.67,0.70,9.63,0.00,-0.00,-0.00,69.69,-12.38,-31.75
2026-06-27 11:38:03.627,0.67,0.71,9.66,0.00,0.00,0.00,69.69,-10.56,-31.38
2026-06-27 11:38:03.642,0.67,0.70,9.67,-0.00,0.00,0.00,69.69,-10.56,-31.38
2026-06-27 11:38:03.654,0.66,0.70,9.67,0.00,0.00,0.00,69.69,-10.56,-31.38
2026-06-27 11:38:03.667,0.67,0.70,9.66,-0.00,0.00,0.00,69.69,-10.56,-31.38
2026-06-27 11:38:03.683,0.68,0.72,9.69,0.00,-0.00,0.00,69.00,-12.75,-32.19
2026-06-27 11:38:03.695,0.66,0.70,9.65,-0.00,-0.00,0.00,69.00,-12.75,-32.19
2026-06-27 11:38:03.712,0.68,0.74,9.65,0.00,-0.00,0.00,69.00,-12.75,-32.19
2026-06-27 11:38:03.724,0.67,0.70,9.64,-0.00,0.00,0.00,69.38,-11.69,-32.56
2026-06-27 11:38:03.741,0.66,0.70,9.66,-0.00,0.00,0.00,69.38,-11.69,-32.56
2026-06-27 11:38:03.753,0.67,0.71,9.64,0.00,0.00,0.00,69.38,-11.69,-32.56
2026-06-27 11:38:03.766,0.68,0.69,9.67,0.00,-0.00,0.00,69.38,-11.69,-32.56
2026-06-27 11:38:03.782,0.68,0.69,9.68,0.00,-0.00,-0.00,70.06,-10.88,-31.38
2026-06-27 11:38:03.795,0.66,0.70,9.68,0.00,0.00,-0.00,70.06,-10.88,-31.38
2026-06-27 11:38:03.811,0.68,0.70,9.65,0.00,0.00,0.00,70.06,-10.88,-31.38
2026-06-27 11:38:03.823,0.67,0.70,9.64,0.00,-0.00,0.00,69.00,-11.25,-31.38
2026-06-27 11:38:03.836,0.69,0.68,9.66,0.00,0.00,-0.00,69.00,-11.25,-31.38
2026-06-27 11:38:03.852,0.68,0.70,9.65,-0.00,0.00,0.00,69.00,-11.25,-31.38
2026-06-27 11:38:03.865,0.66,0.69,9.64,-0.00,0.00,-0.00,69.00,-11.25,-31.38
2026-06-27 11:38:03.882,0.69,0.71,9.66,-0.00,-0.00,-0.00,69.38,-12.06,-31.38
2026-06-27 11:38:03.894,0.66,0.72,9.64,0.00,-0.00,0.00,69.38,-12.06,-31.38
2026-06-27 11:38:03.906,0.66,0.70,9.65,0.00,-0.00,-0.00,69.38,-12.06,-31.38
2026-06-27 11:38:03.918,0.66,0.70,9.66,-0.00,0.00,0.00,69.38,-12.06,-31.38
2026-06-27 11:38:03.934,0.68,0.70,9.68,0.00,0.00,0.00,69.38,-11.69,-30.56
2026-06-27 11:38:03.946,0.68,0.69,9.64,0.00,-0.00,0.00,69.38,-11.69,-30.56
2026-06-27 11:38:03.963,0.68,0.69,9.67,0.00,0.00,0.00,69.38,-11.69,-30.56
2026-06-27 11:38:03.975,0.65,0.68,9.67,0.00,0.00,-0.00,69.38,-12.06,-31.38
2026-06-27 11:38:03.992,0.66,0.69,9.67,-0.00,0.00,0.00,69.38,-12.06,-31.38
2026-06-27 11:38:04.004,0.67,0.69,9.63,0.00,-0.00,-0.00,69.38,-12.06,-31.38
2026-06-27 11:38:04.017,0.66,0.69,9.68,0.00,-0.00,0.00,69.38,-12.06,-31.38
2026-06-27 11:38:04.033,0.67,0.71,9.67,0.00,-0.00,-0.00,69.69,-11.69,-31.75
2026-06-27 11:38:04.046,0.66,0.72,9.63,0.00,-0.00,0.00,69.69,-11.69,-31.75
2026-06-27 11:38:04.063,0.66,0.68,9.67,0.00,-0.00,-0.00,69.69,-11.69,-31.75
2026-06-27 11:38:04.075,0.66,0.70,9.66,0.00,0.00,-0.00,69.69,-12.06,-30.56
2026-06-27 11:38:04.091,0.67,0.72,9.66,0.00,-0.00,-0.00,69.69,-12.06,-30.56
2026-06-27 11:38:04.104,0.66,0.70,9.64,0.00,0.00,0.00,69.69,-12.06,-30.56
2026-06-27 11:38:04.116,0.67,0.69,9.67,0.00,-0.00,0.00,69.69,-12.06,-30.56
2026-06-27 11:38:04.133,0.66,0.69,9.65,0.00,0.00,0.00,69.00,-11.69,-31.75
2026-06-27 11:38:04.145,0.68,0.70,9.64,0.00,0.00,-0.00,69.00,-11.69,-31.75
2026-06-27 11:38:04.163,0.68,0.72,9.66,0.00,0.00,0.00,69.00,-11.69,-31.75
2026-06-27 11:38:04.175,0.69,0.72,9.65,0.00,-0.00,0.00,69.38,-11.69,-31.00
2026-06-27 11:38:04.192,0.66,0.69,9.67,0.00,-0.00,0.00,69.38,-11.69,-31.00
2026-06-27 11:38:04.205,0.67,0.71,9.66,0.00,0.00,0.00,69.38,-11.69,-31.00
2026-06-27 11:38:04.217,0.68,0.69,9.68,0.00,-0.00,0.00,69.38,-11.69,-31.00
2026-06-27 11:38:04.233,0.67,0.70,9.66,0.00,-0.00,0.00,69.00,-12.75,-31.38
2026-06-27 11:38:04.246,0.66,0.71,9.62,-0.00,0.00,0.00,69.00,-12.75,-31.38
2026-06-27 11:38:04.263,0.67,0.70,9.63,0.00,-0.00,-0.00,69.00,-12.75,-31.38
2026-06-27 11:38:04.276,0.66,0.71,9.66,0.00,-0.01,0.00,68.19,-11.69,-31.38
2026-06-27 11:38:04.293,0.66,0.69,9.66,0.00,-0.00,-0.00,68.19,-11.69,-31.38
2026-06-27 11:38:04.305,0.68,0.71,9.64,0.00,0.00,-0.00,68.19,-11.69,-31.38
2026-06-27 11:38:04.317,0.67,0.69,9.67,0.00,-0.00,0.00,68.19,-11.69,-31.38
2026-06-27 11:38:04.333,0.67,0.70,9.67,-0.00,0.00,0.00,69.69,-12.06,-31.38
2026-06-27 11:38:04.346,0.67,0.71,9.64,0.00,0.00,-0.00,69.69,-12.06,-31.38
2026-06-27 11:38:04.363,0.65,0.70,9.66,0.00,0.00,0.00,69.69,-12.06,-31.38
2026-06-27 11:38:04.376,0.67,0.70,9.65,0.00,0.00,0.00,69.69,-11.69,-30.56
2026-06-27 11:38:04.393,0.68,0.71,9.65,0.00,-0.00,0.00,69.69,-11.69,-30.56
2026-06-27 11:38:04.405,0.69,0.70,9.64,0.00,-0.00,0.00,69.69,-11.69,-30.56
2026-06-27 11:38:04.417,0.67,0.71,9.65,0.00,0.00,0.00,69.69,-11.69,-30.56
2026-06-27 11:38:04.433,0.68,0.68,9.65,0.00,0.00,-0.00,69.38,-11.69,-31.38
2026-06-27 11:38:04.446,0.66,0.71,9.66,0.00,0.00,0.00,69.38,-11.69,-31.38
2026-06-27 11:38:04.463,0.68,0.73,9.66,0.00,0.00,-0.00,69.38,-11.69,-31.38
2026-06-27 11:38:04.476,0.67,0.71,9.67,-0.00,0.00,-0.00,69.38,-12.75,-31.75
2026-06-27 11:38:04.492,0.67,0.71,9.64,0.00,0.00,0.00,69.38,-12.75,-31.75
2026-06-27 11:38:04.507,0.65,0.70,9.66,0.00,0.00,-0.00,69.38,-12.75,-31.75
2026-06-27 11:38:04.532,0.70,0.69,9.65,0.00,-0.00,-0.00,69.00,-11.25,-32.56
2026-06-27 11:38:04.546,0.65,0.72,9.63,0.00,0.00,-0.00,69.00,-11.25,-32.56
2026-06-27 11:38:04.563,0.67,0.72,9.65,0.00,-0.00,0.00,69.00,-11.25,-32.56
2026-06-27 11:38:04.575,0.68,0.69,9.68,0.00,0.00,0.00,70.06,-12.06,-31.38
2026-06-27 11:38:04.587,0.67,0.70,9.65,0.00,0.00,-0.00,70.06,-12.06,-31.38
2026-06-27 11:38:04.604,0.68,0.70,9.65,0.00,-0.00,-0.00,70.06,-12.06,-31.38
2026-06-27 11:38:04.616,0.68,0.69,9.66,0.00,0.00,-0.00,70.06,-12.06,-31.38
2026-06-27 11:38:04.633,0.68,0.71,9.67,0.00,-0.00,0.00,69.38,-11.69,-30.56
2026-06-27 11:38:04.646,0.66,0.71,9.65,0.00,0.00,0.00,69.38,-11.69,-30.56
2026-06-27 11:38:04.662,0.67,0.69,9.64,0.00,0.00,0.00,69.38,-11.69,-30.56
2026-06-27 11:38:04.675,0.68,0.72,9.68,0.00,-0.00,0.00,69.00,-12.06,-32.19
2026-06-27 11:38:04.687,0.67,0.71,9.65,0.00,0.00,0.00,69.00,-12.06,-32.19
2026-06-27 11:38:04.704,0.68,0.70,9.64,0.00,-0.00,0.00,69.00,-12.06,-32.19
2026-06-27 11:38:04.717,0.68,0.71,9.68,0.00,0.00,0.00,69.00,-12.06,-32.19
2026-06-27 11:38:04.734,0.67,0.70,9.64,-0.00,0.00,0.00,69.00,-12.06,-30.56
2026-06-27 11:38:04.746,0.66,0.71,9.64,-0.00,0.00,0.00,69.00,-12.06,-30.56
2026-06-27 11:38:04.763,0.69,0.69,9.65,0.00,-0.00,-0.00,69.00,-12.06,-30.56
2026-06-27 11:38:04.775,0.66,0.70,9.66,0.00,0.00,0.00,70.06,-11.25,-31.38
2026-06-27 11:38:04.791,0.68,0.71,9.65,0.00,-0.00,-0.00,70.06,-11.25,-31.38
2026-06-27 11:38:04.805,0.66,0.71,9.65,0.00,0.00,-0.00,70.06,-11.25,-31.38
2026-06-27 11:38:04.818,0.68,0.72,9.67,-0.00,0.00,0.00,70.06,-11.25,-31.38
2026-06-27 11:38:04.834,0.66,0.69,9.66,-0.00,0.00,0.00,69.69,-12.38,-31.38
2026-06-27 11:38:04.847,0.67,0.72,9.62,0.00,0.00,0.00,69.69,-12.38,-31.38
2026-06-27 11:38:04.865,0.65,0.72,9.68,-0.00,-0.00,-0.00,69.69,-12.38,-31.38
2026-06-27 11:38:04.877,0.68,0.72,9.67,0.00,-0.00,0.00,69.38,-12.38,-31.75
2026-06-27 11:38:04.895,0.68,0.72,9.68,-0.00,0.00,0.00,69.38,-12.38,-31.75
2026-06-27 11:38:04.908,0.66,0.70,9.65,-0.00,-0.00,0.00,69.38,-12.38,-31.75
2026-06-27 11:38:04.920,0.67,0.71,9.70,-0.00,-0.00,0.00,69.38,-12.38,-31.75
2026-06-27 11:38:04.935,0.67,0.69,9.63,-0.00,0.00,0.00,69.00,-11.69,-32.19
2026-06-27 11:38:04.948,0.67,0.71,9.63,-0.00,0.00,0.00,69.00,-11.69,-32.19
2026-06-27 11:38:04.965,0.65,0.69,9.63,-0.00,0.00,0.00,69.00,-11.69,-32.19
2026-06-27 11:38:04.978,0.67,0.70,9.67,-0.00,0.00,0.00,69.69,-12.38,-31.75
2026-06-27 11:38:04.995,0.67,0.69,9.65,-0.00,0.00,0.00,69.69,-12.38,-31.75
2026-06-27 11:38:05.008,0.69,0.70,9.64,0.00,0.00,-0.00,69.69,-12.38,-31.75
2026-06-27 11:38:05.020,0.66,0.69,9.66,0.00,0.00,-0.00,69.69,-12.38,-31.75
2026-06-27 11:38:05.035,0.67,0.69,9.68,0.00,0.00,0.00,69.38,-12.06,-31.00
2026-06-27 11:38:05.048,0.67,0.70,9.66,0.00,0.00,-0.00,69.38,-12.06,-31.00
2026-06-27 11:38:05.065,0.68,0.70,9.66,0.00,-0.00,0.00,69.38,-12.06,-31.00
2026-06-27 11:38:05.078,0.68,0.71,9.67,0.00,0.00,0.00,69.38,-11.25,-31.00
2026-06-27 11:38:05.095,0.65,0.69,9.66,0.00,0.00,-0.00,69.38,-11.25,-31.00
2026-06-27 11:38:05.108,0.66,0.68,9.64,0.00,0.00,0.00,69.38,-11.25,-31.00
2026-06-27 11:38:05.120,0.70,0.71,9.68,-0.00,0.00,0.00,69.38,-11.25,-31.00
2026-06-27 11:38:05.136,0.68,0.70,9.63,-0.00,0.00,-0.00,70.06,-12.06,-32.19
2026-06-27 11:38:05.148,0.66,0.68,9.64,0.00,0.00,0.00,70.06,-12.06,-32.19
2026-06-27 11:38:05.165,0.67,0.70,9.66,0.00,0.00,0.00,70.06,-12.06,-32.19
2026-06-27 11:38:05.180,0.67,0.68,9.68,0.00,0.00,0.00,69.69,-11.69,-31.00
2026-06-27 11:38:05.196,0.66,0.70,9.67,0.00,0.00,-0.00,69.69,-11.69,-31.00
2026-06-27 11:38:05.210,0.68,0.71,9.67,0.00,-0.00,0.00,69.69,-11.69,-31.00
2026-06-27 11:38:05.226,0.67,0.69,9.66,0.00,0.00,0.00,70.88,-11.69,-31.38
2026-06-27 11:38:05.242,0.67,0.70,9.66,0.00,-0.00,0.00,70.88,-11.69,-31.38
2026-06-27 11:38:05.257,0.67,0.73,9.65,0.00,-0.00,0.00,70.88,-11.69,-31.38
2026-06-27 11:38:05.269,0.68,0.70,9.66,0.00,0.00,0.00,70.88,-11.69,-31.38
2026-06-27 11:38:05.285,0.66,0.71,9.64,0.00,-0.00,-0.00,69.69,-12.38,-31.75
2026-06-27 11:38:05.298,0.68,0.71,9.66,0.00,0.00,-0.00,69.69,-12.38,-31.75
2026-06-27 11:38:05.316,0.67,0.69,9.64,-0.00,0.00,0.00,69.69,-12.38,-31.75
2026-06-27 11:38:05.329,0.68,0.69,9.67,0.00,-0.00,-0.00,70.06,-10.88,-32.56
2026-06-27 11:38:05.346,0.68,0.71,9.67,0.00,-0.00,0.00,70.06,-10.88,-32.56
2026-06-27 11:38:05.358,0.66,0.70,9.68,0.00,-0.00,-0.00,70.06,-10.88,-32.56
2026-06-27 11:38:05.375,0.68,0.71,9.68,-0.00,-0.00,0.00,70.06,-10.88,-32.56
2026-06-27 11:38:05.388,0.66,0.71,9.67,0.00,-0.00,0.00,70.06,-10.88,-32.56
2026-06-27 11:38:05.408,0.68,0.68,9.63,-0.00,0.00,0.00,70.06,-10.88,-32.56
2026-06-27 11:38:05.451,0.68,0.69,9.67,0.00,0.00,0.00,69.38,-11.25,-30.19
2026-06-27 11:38:05.476,0.67,0.69,9.65,0.00,0.00,-0.00,69.69,-11.69,-31.38
2026-06-27 11:38:05.488,0.67,0.73,9.66,0.00,0.00,0.00,69.69,-11.69,-31.38
2026-06-27 11:38:05.506,0.69,0.71,9.64,-0.00,0.00,0.00,69.69,-11.69,-31.38
2026-06-27 11:38:05.519,0.65,0.70,9.67,0.00,0.00,0.00,69.69,-11.69,-31.38
2026-06-27 11:38:05.536,0.68,0.69,9.67,0.00,0.00,0.00,69.69,-11.69,-31.38
2026-06-27 11:38:05.549,0.67,0.71,9.61,0.00,-0.00,0.00,69.69,-11.69,-31.38
2026-06-27 11:38:05.566,0.67,0.69,9.66,0.00,-0.00,0.00,69.69,-11.69,-31.38
2026-06-27 11:38:05.579,0.67,0.71,9.66,0.00,-0.00,0.00,68.56,-12.06,-32.19
2026-06-27 11:38:05.596,0.66,0.70,9.65,0.00,0.00,0.00,68.56,-12.06,-32.19
2026-06-27 11:38:05.608,0.66,0.69,9.65,0.00,0.00,0.00,68.56,-12.06,-32.19
2026-06-27 11:38:05.622,0.68,0.71,9.67,0.00,-0.00,-0.00,68.56,-12.06,-32.19
2026-06-27 11:38:05.637,0.66,0.69,9.66,0.00,0.00,0.00,70.06,-11.69,-31.38
2026-06-27 11:38:05.650,0.67,0.71,9.63,0.00,0.00,-0.00,70.06,-11.69,-31.38
2026-06-27 11:38:05.667,0.66,0.69,9.66,-0.00,0.00,-0.00,70.06,-11.69,-31.38
2026-06-27 11:38:05.679,0.67,0.70,9.67,0.00,-0.00,0.00,69.69,-11.69,-32.19
2026-06-27 11:38:05.696,0.67,0.69,9.69,0.00,-0.00,0.00,69.69,-11.69,-32.19
2026-06-27 11:38:05.708,0.68,0.71,9.66,0.00,0.00,0.00,69.69,-11.69,-32.19
2026-06-27 11:38:05.722,0.65,0.71,9.63,0.00,0.00,-0.00,69.69,-11.69,-32.19
2026-06-27 11:38:05.737,0.67,0.71,9.64,0.00,0.00,0.00,69.69,-12.06,-31.75
2026-06-27 11:38:05.750,0.67,0.70,9.62,0.00,0.00,-0.00,69.69,-12.06,-31.75
2026-06-27 11:38:05.767,0.67,0.72,9.64,0.00,0.00,-0.00,69.69,-12.06,-31.75
2026-06-27 11:38:05.779,0.66,0.70,9.67,-0.00,0.00,-0.00,69.69,-12.06,-31.00
2026-06-27 11:38:05.796,0.67,0.70,9.66,0.00,0.00,0.00,69.69,-12.06,-31.00
2026-06-27 11:38:05.809,0.68,0.67,9.66,0.00,0.00,0.00,69.69,-12.06,-31.00
2026-06-27 11:38:05.821,0.66,0.70,9.69,0.00,-0.00,0.00,69.69,-12.06,-31.00
2026-06-27 11:38:05.837,0.66,0.72,9.66,0.00,0.00,0.00,69.38,-11.69,-32.19
2026-06-27 11:38:05.850,0.68,0.71,9.65,-0.00,0.00,-0.00,69.38,-11.69,-32.19
2026-06-27 11:38:05.867,0.67,0.69,9.66,0.00,-0.00,0.00,69.38,-11.69,-32.19
2026-06-27 11:38:05.879,0.67,0.70,9.66,0.00,0.00,0.00,68.56,-12.06,-32.19
2026-06-27 11:38:05.897,0.68,0.70,9.66,0.00,-0.00,-0.00,68.56,-12.06,-32.19
2026-06-27 11:38:05.909,0.67,0.69,9.67,0.00,-0.00,0.00,68.56,-12.06,-32.19
2026-06-27 11:38:05.922,0.68,0.71,9.67,0.00,-0.00,0.00,68.56,-12.06,-32.19
2026-06-27 11:38:05.937,0.66,0.70,9.65,0.00,-0.00,0.00,69.69,-11.69,-32.19
2026-06-27 11:38:05.949,0.66,0.68,9.63,0.00,-0.00,-0.00,69.69,-11.69,-32.19
2026-06-27 11:38:05.967,0.67,0.71,9.67,0.00,-0.00,0.00,69.69,-11.69,-32.19
2026-06-27 11:38:05.980,0.68,0.70,9.65,0.00,-0.00,0.00,69.38,-12.06,-31.38
2026-06-27 11:38:05.997,0.68,0.72,9.64,0.00,-0.00,0.00,69.38,-12.06,-31.38
2026-06-27 11:38:06.009,0.66,0.69,9.65,0.00,-0.00,0.00,69.38,-12.06,-31.38
2026-06-27 11:38:06.022,0.66,0.70,9.64,0.00,0.00,0.00,69.38,-12.06,-31.38
2026-06-27 11:38:06.038,0.67,0.71,9.66,-0.00,-0.00,0.00,69.38,-11.25,-32.19
2026-06-27 11:38:06.050,0.68,0.72,9.64,0.00,0.00,-0.00,69.38,-11.25,-32.19
