timestamp,accel_x,accel_y,accel_z,gyro_x,gyro_y,gyro_z,mag_x,mag_y,mag_z
2026-06-27 11:32:44.872,0.00,0.00,0.00,0.00,0.00,0.00,0.00,0.00,0.00
2026-06-27 11:32:44.889,0.09,0.41,10.07,-0.04,0.01,-0.01,94.88,-9.38,-28.06
2026-06-27 11:32:44.904,0.10,0.37,9.36,0.01,0.00,0.00,94.88,-9.38,-28.06
2026-06-27 11:32:44.924,0.09,0.37,9.33,0.00,0.00,0.00,94.88,-9.38,-28.06
2026-06-27 11:32:44.941,0.09,0.37,9.38,0.00,0.00,0.00,94.88,-9.38,-28.06
2026-06-27 11:32:44.954,0.07,0.38,9.35,0.00,-0.00,0.00,94.88,-9.38,-28.06
2026-06-27 11:32:44.966,0.10,0.37,9.36,0.00,-0.00,0.00,94.88,-9.38,-28.06
2026-06-27 11:32:44.983,0.10,0.36,9.37,-0.00,-0.00,-0.00,94.56,-9.00,-29.69
2026-06-27 11:32:44.995,0.09,0.37,9.36,-0.00,0.00,0.00,94.56,-9.00,-29.69
2026-06-27 11:32:45.012,0.08,0.37,9.36,-0.00,0.00,0.00,94.56,-9.00,-29.69
2026-06-27 11:32:45.025,0.11,0.37,9.37,0.00,0.00,0.00,94.19,-8.56,-30.06
2026-06-27 11:32:45.041,0.10,0.39,9.37,-0.00,-0.00,0.00,94.19,-8.56,-30.06
2026-06-27 11:32:45.054,0.10,0.37,9.38,-0.00,-0.00,-0.00,94.19,-8.56,-30.06
2026-06-27 11:32:45.067,0.11,0.37,9.35,-0.00,-0.00,0.00,94.19,-8.56,-30.06
2026-06-27 11:32:45.083,0.07,0.40,9.35,-0.00,0.00,0.00,95.69,-8.56,-28.06
2026-06-27 11:32:45.095,0.09,0.38,9.32,0.00,0.00,0.00,95.69,-8.56,-28.06
2026-06-27 11:32:45.112,0.09,0.38,9.36,0.00,-0.00,-0.00,95.69,-8.56,-28.06
2026-06-27 11:32:45.124,0.08,0.36,9.38,-0.00,0.00,0.00,93.75,-9.00,-28.06
2026-06-27 11:32:45.136,0.10,0.38,9.36,-0.00,0.00,-0.00,93.75,-9.00,-28.06
2026-06-27 11:32:45.153,0.11,0.39,9.37,-0.00,0.00,0.00,93.75,-9.00,-28.06
2026-06-27 11:32:45.166,0.11,0.37,9.36,0.00,0.00,0.00,93.75,-9.00,-28.06
2026-06-27 11:32:45.183,0.10,0.37,9.38,0.00,0.00,-0.00,95.25,-8.56,-28.06
2026-06-27 11:32:45.195,0.09,0.37,9.35,0.00,0.00,-0.00,95.25,-8.56,-28.06
2026-06-27 11:32:45.212,0.09,0.36,9.34,-0.00,-0.00,-0.00,95.25,-8.56,-28.06
2026-06-27 11:32:45.225,0.11,0.39,9.35,0.00,0.00,0.00,95.25,-8.56,-29.25
2026-06-27 11:32:45.237,0.10,0.40,9.38,-0.00,0.00,0.00,95.25,-8.56,-29.25
2026-06-27 11:32:45.254,0.09,0.39,9.35,-0.00,-0.00,0.00,95.25,-8.56,-29.25
2026-06-27 11:32:45.266,0.09,0.36,9.37,0.00,0.00,-0.00,95.25,-8.56,-29.25
2026-06-27 11:32:45.283,0.09,0.37,9.36,-0.00,0.00,0.00,95.25,-9.38,-28.88
2026-06-27 11:32:45.296,0.09,0.38,9.37,0.00,0.00,-0.00,95.25,-9.38,-28.88
2026-06-27 11:32:45.314,0.10,0.37,9.35,0.00,-0.00,-0.00,95.25,-9.38,-28.88
2026-06-27 11:32:45.326,0.08,0.39,9.35,-0.00,-0.00,0.00,94.56,-8.56,-28.88
2026-06-27 11:32:45.343,0.09,0.37,9.35,0.00,0.00,-0.00,94.56,-8.56,-28.88
2026-06-27 11:32:45.355,0.10,0.35,9.35,-0.00,0.00,0.00,94.56,-8.56,-28.88
2026-06-27 11:32:45.368,0.09,0.36,9.34,0.00,0.00,0.00,94.56,-8.56,-28.88
2026-06-27 11:32:45.384,0.08,0.38,9.39,-0.00,0.00,0.00,94.19,-8.56,-28.38
2026-06-27 11:32:45.400,0.09,0.39,9.35,-0.00,0.00,0.00,94.19,-8.56,-28.38
2026-06-27 11:32:45.415,0.08,0.37,9.35,-0.00,0.00,0.00,94.19,-8.56,-28.38
2026-06-27 11:32:45.427,0.09,0.38,9.34,0.00,0.00,-0.00,94.19,-8.56,-29.25
2026-06-27 11:32:45.443,0.10,0.38,9.35,-0.00,0.00,0.00,94.19,-8.56,-29.25
2026-06-27 11:32:45.456,0.10,0.38,9.39,-0.00,0.00,0.00,94.19,-8.56,-29.25
2026-06-27 11:32:45.468,0.09,0.37,9.37,0.00,-0.00,0.00,94.19,-8.56,-29.25
2026-06-27 11:32:45.484,0.08,0.37,9.35,-0.00,0.00,-0.00,94.56,-8.25,-28.88
2026-06-27 11:32:45.497,0.11,0.33,9.35,-0.00,-0.00,0.00,94.56,-8.25,-28.88
2026-06-27 11:32:45.514,0.07,0.37,9.34,-0.00,0.00,0.00,94.56,-8.25,-28.88
2026-06-27 11:32:45.527,0.10,0.39,9.35,-0.00,0.00,0.00,94.19,-8.56,-28.06
2026-06-27 11:32:45.544,0.07,0.39,9.39,0.00,-0.00,-0.00,94.19,-8.56,-28.06
2026-06-27 11:32:45.556,0.10,0.36,9.36,-0.00,-0.00,0.00,94.19,-8.56,-28.06
2026-06-27 11:32:45.568,0.11,0.38,9.38,0.00,0.00,0.00,94.19,-8.56,-28.06
2026-06-27 11:32:45.585,0.08,0.39,9.36,-0.00,0.00,-0.00,94.88,-8.25,-28.38
2026-06-27 11:32:45.599,0.10,0.38,9.34,-0.00,0.00,-0.00,94.88,-8.25,-28.38
2026-06-27 11:32:45.615,0.10,0.39,9.35,-0.00,0.00,-0.00,94.88,-8.25,-28.38
2026-06-27 11:32:45.633,0.09,0.38,9.36,-0.00,0.00,0.00,94.56,-9.38,-28.88
2026-06-27 11:32:45.647,0.08,0.40,9.35,0.00,0.00,-0.00,94.56,-9.38,-28.88
2026-06-27 11:32:45.665,0.07,0.38,9.38,0.00,0.00,0.00,94.56,-9.38,-28.88
2026-06-27 11:32:45.681,0.09,0.37,9.37,-0.00,0.00,-0.00,94.56,-9.00,-27.56
2026-06-27 11:32:45.696,0.11,0.38,9.36,-0.00,-0.00,0.00,94.56,-9.00,-27.56
2026-06-27 11:32:45.709,0.10,0.39,9.35,0.00,-0.00,0.00,94.56,-9.00,-27.56
2026-06-27 11:32:45.724,0.11,0.36,9.37,0.00,-0.00,-0.00,94.19,-8.56,-28.38
2026-06-27 11:32:45.737,0.09,0.36,9.33,0.00,-0.00,0.00,94.19,-8.56,-28.38
2026-06-27 11:32:45.754,0.08,0.37,9.33,0.00,-0.00,0.00,94.19,-8.56,-28.38
2026-06-27 11:32:45.766,0.09,0.38,9.38,0.00,-0.00,-0.00,94.19,-8.56,-28.38
2026-06-27 11:32:45.784,0.08,0.39,9.34,0.00,-0.00,-0.00,94.88,-8.25,-28.38
2026-06-27 11:32:45.797,0.10,0.37,9.37,0.00,-0.00,0.00,94.88,-8.25,-28.38
2026-06-27 11:32:45.814,0.11,0.38,9.36,0.00,0.00,-0.00,94.88,-8.25,-28.38
2026-06-27 11:32:45.827,0.08,0.37,9.38,0.00,-0.00,0.00,94.56,-9.00,-29.25
2026-06-27 11:32:45.844,0.10,0.35,9.35,0.00,-0.00,0.00,94.56,-9.00,-29.25
2026-06-27 11:32:45.856,0.09,0.38,9.34,0.00,-0.00,-0.00,94.56,-9.00,-29.25
2026-06-27 11:32:45.868,0.10,0.37,9.36,0.00,-0.00,0.00,94.56,-9.00,-29.25
2026-06-27 11:32:45.899,0.09,0.37,9.37,-0.00,-0.00,0.00,94.88,-9.38,-27.56
2026-06-27 11:32:45.915,0.08,0.39,9.38,0.00,0.00,0.00,94.88,-9.38,-27.56
2026-06-27 11:32:45.928,0.11,0.37,9.36,0.00,-0.00,0.00,94.88,-8.56,-28.88
2026-06-27 11:32:45.945,0.09,0.38,9.36,0.00,0.00,0.00,94.88,-8.56,-28.88
2026-06-27 11:32:45.957,0.08,0.38,9.33,0.00,-0.00,-0.00,94.88,-8.56,-28.88
2026-06-27 11:32:45.970,0.09,0.38,9.37,0.00,-0.00,0.00,94.88,-8.56,-28.88
2026-06-27 11:32:45.987,0.09,0.39,9.39,-0.00,0.00,-0.00,94.56,-8.56,-29.25
2026-06-27 11:32:46.004,0.07,0.37,9.34,0.00,0.00,0.00,94.56,-8.56,-29.25
2026-06-27 11:32:46.017,0.10,0.37,9.36,0.00,0.00,0.00,94.56,-8.56,-29.25
2026-06-27 11:32:46.034,0.11,0.40,9.37,-0.00,-0.00,0.00,94.88,-8.25,-28.88
2026-06-27 11:32:46.047,0.08,0.37,9.33,-0.00,-0.00,0.00,94.88,-8.25,-28.88
2026-06-27 11:32:46.065,0.10,0.38,9.34,0.00,-0.00,-0.00,94.88,-8.25,-28.88
2026-06-27 11:32:46.077,0.08,0.38,9.36,-0.00,0.00,0.00,94.56,-9.38,-28.88
2026-06-27 11:32:46.095,0.10,0.38,9.36,0.00,-0.00,-0.00,94.56,-9.38,-28.88
2026-06-27 11:32:46.107,0.11,0.37,9.33,-0.00,0.00,0.00,94.56,-9.38,-28.88
2026-06-27 11:32:46.119,0.10,0.38,9.36,-0.00,-0.00,-0.00,94.56,-9.38,-28.88
2026-06-27 11:32:46.135,0.10,0.36,9.35,0.00,-0.00,0.00,94.19,-8.56,-29.56
2026-06-27 11:32:46.148,0.09,0.39,9.36,0.00,0.00,0.00,94.19,-8.56,-29.56
2026-06-27 11:32:46.166,0.09,0.37,9.34,-0.00,-0.00,0.00,94.19,-8.56,-29.56
2026-06-27 11:32:46.178,0.11,0.37,9.34,0.00,-0.00,-0.00,96.06,-8.56,-28.88
2026-06-27 11:32:46.195,0.10,0.38,9.37,-0.00,-0.00,0.00,96.06,-8.56,-28.88
2026-06-27 11:32:46.207,0.10,0.38,9.36,0.00,-0.00,-0.00,96.06,-8.56,-28.88
2026-06-27 11:32:46.220,0.10,0.37,9.37,0.00,-0.00,0.00,96.06,-8.56,-28.88
2026-06-27 11:32:46.235,0.11,0.37,9.39,0.00,0.00,0.00,95.25,-9.75,-29.69
2026-06-27 11:32:46.248,0.10,0.37,9.35,0.00,0.00,0.00,95.25,-9.75,-29.69
2026-06-27 11:32:46.265,0.09,0.37,9.36,0.00,0.00,0.00,95.25,-9.75,-29.69
2026-06-27 11:32:46.278,0.10,0.39,9.38,0.00,0.00,0.00,94.88,-8.56,-28.88
2026-06-27 11:32:46.295,0.09,0.37,9.36,0.00,0.00,0.00,94.88,-8.56,-28.88
2026-06-27 11:32:46.308,0.10,0.39,9.36,0.00,-0.00,-0.00,94.88,-8.56,-28.88
2026-06-27 11:32:46.320,0.09,0.38,9.35,-0.00,0.00,-0.00,94.88,-8.56,-28.88
2026-06-27 11:32:46.336,0.10,0.37,9.39,0.00,0.00,0.00,94.56,-9.00,-28.38
2026-06-27 11:32:46.349,0.08,0.38,9.36,0.00,0.00,0.00,94.56,-9.00,-28.38
2026-06-27 11:32:46.366,0.09,0.37,9.36,0.00,0.00,-0.00,94.56,-9.00,-28.38
2026-06-27 11:32:46.378,0.10,0.40,9.38,0.00,0.00,0.00,94.56,-9.38,-28.06
2026-06-27 11:32:46.396,0.12,0.37,9.36,0.00,0.00,-0.00,94.56,-9.38,-28.06
2026-06-27 11:32:46.409,0.10,0.39,9.37,0.00,0.00,-0.00,94.56,-9.38,-28.06
2026-06-27 11:32:46.421,0.08,0.39,9.36,0.00,0.00,0.00,94.56,-9.38,-28.06
2026-06-27 11:32:46.436,0.10,0.40,9.38,0.00,0.01,0.00,94.56,-8.56,-28.38
2026-06-27 11:32:46.449,0.10,0.36,9.35,0.00,0.01,0.00,94.56,-8.56,-28.38
2026-06-27 11:32:46.466,0.10,0.36,9.37,0.00,0.01,0.00,94.56,-8.56,-28.38
2026-06-27 11:32:46.478,0.09,0.37,9.37,0.00,0.01,0.00,95.69,-8.56,-29.25
2026-06-27 11:32:46.496,0.10,0.39,9.38,0.00,0.00,0.00,95.69,-8.56,-29.25
2026-06-27 11:32:46.509,0.11,0.36,9.33,-0.00,0.01,-0.00,95.69,-8.56,-29.25
2026-06-27 11:32:46.521,0.09,0.38,9.37,0.00,0.01,-0.00,95.69,-8.56,-29.25
2026-06-27 11:32:46.536,0.10,0.39,9.34,0.00,0.01,0.00,94.88,-9.00,-28.38
2026-06-27 11:32:46.551,0.11,0.37,9.36,0.00,0.01,0.00,94.88,-9.00,-28.38
2026-06-27 11:32:46.566,0.08,0.38,9.34,0.00,0.01,0.00,94.88,-9.00,-28.38
2026-06-27 11:32:46.579,0.09,0.36,9.38,0.00,0.01,0.00,93.50,-8.56,-28.38
2026-06-27 11:32:46.596,0.09,0.37,9.36,0.00,0.01,0.00,93.50,-8.56,-28.38
2026-06-27 11:32:46.609,0.07,0.35,9.34,0.00,0.01,0.00,93.50,-8.56,-28.38
2026-06-27 11:32:46.621,0.07,0.37,9.37,0.00,0.01,0.00,93.50,-8.56,-28.38
2026-06-27 11:32:46.636,0.06,0.38,9.39,0.00,0.01,-0.00,94.56,-9.00,-29.25
2026-06-27 11:32:46.650,0.09,0.37,9.34,0.00,0.01,-0.00,94.56,-9.00,-29.25
2026-06-27 11:32:46.666,0.07,0.39,9.37,0.00,0.00,-0.00,94.56,-9.00,-29.25
2026-06-27 11:32:46.679,0.08,0.38,9.39,-0.00,0.01,0.00,93.75,-9.00,-28.06
2026-06-27 11:32:46.696,0.05,0.38,9.39,0.00,0.01,-0.00,93.75,-9.00,-28.06
2026-06-27 11:32:46.709,0.04,0.37,9.37,0.00,0.01,0.00,93.75,-9.00,-28.06
2026-06-27 11:32:46.722,0.05,0.39,9.38,0.00,0.01,-0.00,93.75,-9.00,-28.06
2026-06-27 11:32:46.737,0.07,0.38,9.37,0.00,0.01,0.00,94.88,-9.00,-28.38
2026-06-27 11:32:46.749,0.05,0.39,9.35,-0.00,0.01,-0.00,94.88,-9.00,-28.38
2026-06-27 11:32:46.766,0.06,0.40,9.35,0.00,0.01,0.00,94.88,-9.00,-28.38
2026-06-27 11:32:46.783,0.07,0.40,9.38,0.00,0.01,-0.00,94.88,-9.00,-28.88
2026-06-27 11:32:46.797,0.05,0.38,9.38,0.00,0.01,0.00,94.88,-9.00,-28.88
2026-06-27 11:32:46.809,0.05,0.37,9.37,0.00,0.01,0.00,94.88,-9.00,-28.88
2026-06-27 11:32:46.823,0.06,0.39,9.36,0.00,0.01,-0.00,94.88,-9.00,-28.88
2026-06-27 11:32:46.837,0.06,0.38,9.37,0.00,0.00,0.00,94.56,-9.75,-28.88
2026-06-27 11:32:46.850,0.06,0.40,9.34,-0.00,0.00,0.00,94.56,-9.75,-28.88
2026-06-27 11:32:46.867,0.04,0.40,9.36,0.00,0.01,0.00,94.56,-9.75,-28.88
2026-06-27 11:32:46.883,0.04,0.37,9.36,0.00,0.01,-0.00,94.56,-9.00,-28.06
2026-06-27 11:32:46.897,0.07,0.38,9.37,-0.00,0.01,0.00,94.56,-9.00,-28.06
2026-06-27 11:32:46.910,0.03,0.38,9.38,0.00,0.01,0.00,94.56,-9.00,-28.06
2026-06-27 11:32:46.922,0.03,0.38,9.37,0.00,0.01,0.00,94.56,-9.00,-28.06
2026-06-27 11:32:46.937,0.03,0.38,9.37,0.00,0.01,-0.00,95.25,-9.00,-26.88
2026-06-27 11:32:46.950,0.03,0.39,9.35,0.00,0.01,-0.00,95.25,-9.00,-26.88
2026-06-27 11:32:46.967,0.03,0.39,9.38,0.00,0.01,-0.00,95.25,-9.00,-26.88
2026-06-27 11:32:46.979,0.03,0.40,9.37,0.00,0.01,0.00,95.69,-9.00,-28.38
2026-06-27 11:32:46.996,0.02,0.38,9.37,0.00,0.01,0.00,95.69,-9.00,-28.38
2026-06-27 11:32:47.010,0.03,0.38,9.36,0.00,0.01,-0.00,95.69,-9.00,-28.38
2026-06-27 11:32:47.023,0.04,0.39,9.35,0.00,0.01,0.00,95.69,-9.00,-28.38
2026-06-27 11:32:47.038,0.03,0.38,9.37,0.00,0.01,0.00,94.88,-9.38,-27.56
2026-06-27 11:32:47.050,0.01,0.37,9.33,0.00,0.01,-0.00,94.88,-9.38,-27.56
2026-06-27 11:32:47.067,0.02,0.37,9.38,0.00,0.01,0.00,94.88,-9.38,-27.56
2026-06-27 11:32:47.079,0.03,0.38,9.37,-0.00,0.01,0.00,96.06,-9.00,-28.06
2026-06-27 11:32:47.097,0.01,0.39,9.35,0.00,0.01,0.00,96.06,-9.00,-28.06
2026-06-27 11:32:47.111,0.00,0.37,9.35,0.00,0.01,0.00,96.06,-9.00,-28.06
2026-06-27 11:32:47.124,0.00,0.38,9.39,0.00,0.01,0.00,96.06,-9.00,-28.06
2026-06-27 11:32:47.138,0.00,0.40,9.38,0.00,0.01,0.00,95.69,-8.56,-27.25
2026-06-27 11:32:47.150,-0.01,0.40,9.32,0.00,0.01,0.00,95.69,-8.56,-27.25
2026-06-27 11:32:47.167,-0.03,0.40,9.38,-0.00,0.00,0.00,95.69,-8.56,-27.25
2026-06-27 11:32:47.180,-0.02,0.42,9.37,0.00,0.00,0.00,95.69,-9.00,-28.06
2026-06-27 11:32:47.197,0.00,0.39,9.35,0.00,0.00,0.00,95.69,-9.00,-28.06
2026-06-27 11:32:47.213,-0.04,0.39,9.38,0.00,0.01,0.00,95.69,-9.00,-28.06
2026-06-27 11:32:47.228,-0.02,0.40,9.36,-0.00,0.00,0.00,95.69,-8.56,-26.88
2026-06-27 11:32:47.240,-0.05,0.39,9.36,0.00,0.00,0.00,95.69,-8.56,-26.88
2026-06-27 11:32:47.257,-0.03,0.42,9.35,0.00,-0.00,-0.00,95.69,-8.56,-26.88
2026-06-27 11:32:47.270,-0.04,0.40,9.37,0.00,-0.00,0.00,95.69,-8.56,-26.88
2026-06-27 11:32:47.288,-0.03,0.40,9.34,0.00,-0.00,0.00,95.69,-9.00,-27.69
2026-06-27 11:32:47.300,-0.02,0.41,9.36,-0.00,-0.00,-0.00,95.69,-9.00,-27.69
2026-06-27 11:32:47.317,-0.03,0.41,9.35,-0.00,-0.00,-0.00,95.69,-9.00,-27.69
2026-06-27 11:32:47.329,-0.06,0.41,9.38,-0.00,-0.01,-0.00,95.69,-9.75,-27.25
2026-06-27 11:32:47.348,-0.05,0.41,9.36,-0.00,-0.01,0.00,95.69,-9.75,-27.25
2026-06-27 11:32:47.360,-0.01,0.39,9.37,-0.00,-0.01,0.00,95.69,-9.75,-27.25
2026-06-27 11:32:47.372,-0.04,0.39,9.38,-0.00,-0.01,-0.00,95.69,-9.75,-27.25
2026-06-27 11:32:47.389,-0.04,0.39,9.38,-0.00,-0.01,-0.00,95.69,-8.56,-27.25
2026-06-27 11:32:47.404,-0.02,0.37,9.36,-0.00,-0.01,-0.00,95.69,-8.56,-27.25
2026-06-27 11:32:47.419,-0.02,0.41,9.37,-0.00,-0.02,-0.00,95.69,-8.56,-27.25
2026-06-27 11:32:47.431,-0.04,0.40,9.37,-0.00,-0.02,0.00,94.88,-8.56,-28.06
2026-06-27 11:32:47.448,-0.03,0.38,9.36,-0.00,-0.02,0.00,94.88,-8.56,-28.06
2026-06-27 11:32:47.460,0.00,0.41,9.37,-0.00,-0.02,0.00,94.88,-8.56,-28.06
2026-06-27 11:32:47.473,-0.01,0.38,9.36,-0.01,-0.02,-0.00,94.88,-8.56,-28.06
2026-06-27 11:32:47.489,-0.01,0.41,9.35,-0.00,-0.02,-0.00,95.69,-9.38,-26.88
2026-06-27 11:32:47.501,0.00,0.40,9.36,-0.01,-0.02,0.00,95.69,-9.38,-26.88
2026-06-27 11:32:47.518,0.00,0.39,9.34,-0.01,-0.02,0.00,95.69,-9.38,-26.88
2026-06-27 11:32:47.530,0.00,0.39,9.38,-0.00,-0.02,-0.00,96.38,-9.00,-25.56
2026-06-27 11:32:47.548,0.01,0.37,9.36,-0.00,-0.03,-0.00,96.38,-9.00,-25.56
2026-06-27 11:32:47.560,0.00,0.37,9.35,-0.00,-0.02,0.00,96.38,-9.00,-25.56
2026-06-27 11:32:47.573,0.00,0.39,9.38,-0.00,-0.02,-0.00,96.38,-9.00,-25.56
2026-06-27 11:32:47.588,0.01,0.39,9.38,-0.00,-0.02,-0.00,58.50,-5.50,-16.88
2026-06-27 11:32:47.601,0.02,0.40,9.34,-0.00,-0.02,0.00,58.50,-5.50,-16.88
2026-06-27 11:32:47.619,0.01,0.41,9.37,-0.00,-0.02,0.00,58.50,-5.50,-16.88
2026-06-27 11:32:47.631,0.01,0.39,9.37,-0.00,-0.02,-0.00,58.75,-5.06,-18.06
2026-06-27 11:32:47.649,0.02,0.38,9.38,-0.00,-0.02,0.00,58.75,-5.06,-18.06
2026-06-27 11:32:47.661,0.05,0.38,9.37,-0.00,-0.01,0.00,58.75,-5.06,-18.06
2026-06-27 11:32:47.674,0.02,0.38,9.38,-0.00,-0.02,0.00,58.75,-5.06,-18.06
2026-06-27 11:32:47.689,0.02,0.38,9.39,-0.00,-0.02,-0.00,58.06,-6.25,-18.06
2026-06-27 11:32:47.701,0.03,0.39,9.36,-0.00,-0.02,-0.00,58.06,-6.25,-18.06
2026-06-27 11:32:47.719,0.03,0.38,9.34,-0.00,-0.02,0.00,58.06,-6.25,-18.06
2026-06-27 11:32:47.732,0.03,0.40,9.37,-0.00,-0.01,0.00,57.69,-5.50,-18.06
2026-06-27 11:32:47.749,0.02,0.39,9.38,-0.00,-0.02,-0.00,57.69,-5.50,-18.06
2026-06-27 11:32:47.761,0.05,0.39,9.36,-0.00,-0.01,0.00,57.69,-5.50,-18.06
2026-06-27 11:32:47.774,0.03,0.39,9.32,-0.00,-0.01,-0.00,57.69,-5.50,-18.06
2026-06-27 11:32:47.789,0.02,0.39,9.38,-0.00,-0.01,0.00,57.00,-5.06,-18.06
2026-06-27 11:32:47.802,0.04,0.40,9.38,-0.00,-0.01,0.00,57.00,-5.06,-18.06
2026-06-27 11:32:47.819,0.03,0.38,9.36,-0.00,-0.01,0.00,57.00,-5.06,-18.06
2026-06-27 11:32:47.832,0.01,0.36,9.35,-0.00,-0.01,0.00,57.69,-5.50,-17.69
2026-06-27 11:32:47.849,0.04,0.38,9.38,-0.00,-0.00,-0.00,57.69,-5.50,-17.69
2026-06-27 11:32:47.861,0.04,0.39,9.36,0.00,-0.01,-0.00,57.69,-5.50,-17.69
2026-06-27 11:32:47.874,0.04,0.39,9.38,-0.00,-0.01,-0.00,57.69,-5.50,-17.69
2026-06-27 11:32:47.889,0.03,0.40,9.39,-0.00,-0.01,0.00,57.25,-5.50,-17.56
2026-06-27 11:32:47.901,0.03,0.38,9.33,-0.00,-0.01,0.00,57.25,-5.50,-17.56
2026-06-27 11:32:47.919,0.03,0.39,9.37,-0.00,-0.01,0.00,57.25,-5.50,-17.56
2026-06-27 11:32:47.932,0.01,0.40,9.36,0.00,-0.00,0.00,57.69,-5.06,-18.06
2026-06-27 11:32:47.949,0.02,0.38,9.38,-0.00,-0.00,0.00,57.69,-5.06,-18.06
2026-06-27 11:32:47.961,0.02,0.39,9.34,-0.00,-0.00,0.00,57.69,-5.06,-18.06
2026-06-27 11:32:47.974,0.00,0.39,9.39,0.00,-0.00,-0.00,57.69,-5.06,-18.06
2026-06-27 11:32:47.989,0.01,0.41,9.35,0.00,-0.01,0.00,58.50,-5.50,-17.56
2026-06-27 11:32:47.002,0.00,0.38,9.32,0.00,-0.00,-0.00,58.50,-5.50,-17.56
2026-06-27 11:32:48.019,0.00,0.40,9.36,-0.00,-0.01,0.00,58.50,-5.50,-17.56
2026-06-27 11:32:48.032,0.00,0.39,9.37,0.00,-0.00,-0.00,57.69,-5.50,-18.06
2026-06-27 11:32:48.049,0.01,0.39,9.36,-0.00,-0.01,0.00,57.69,-5.50,-18.06
2026-06-27 11:32:48.062,0.00,0.38,9.37,-0.00,-0.01,0.00,57.69,-5.50,-18.06
2026-06-27 11:32:48.074,0.01,0.37,9.36,-0.00,-0.00,-0.00,57.69,-5.50,-18.06
2026-06-27 11:32:48.089,0.00,0.38,9.39,0.00,-0.00,0.00,58.50,-5.88,-17.25
2026-06-27 11:32:48.102,0.00,0.40,9.35,0.00,-0.00,0.00,58.50,-5.88,-17.25
2026-06-27 11:32:48.120,0.00,0.40,9.37,-0.00,0.00,0.00,58.50,-5.88,-17.25
2026-06-27 11:32:48.132,0.00,0.41,9.39,0.00,0.00,0.00,57.69,-5.06,-18.06
2026-06-27 11:32:48.150,0.00,0.39,9.36,0.00,0.00,0.00,57.69,-5.06,-18.06
2026-06-27 11:32:48.163,0.00,0.39,9.34,0.00,0.00,0.00,57.69,-5.06,-18.06
2026-06-27 11:32:48.175,0.00,0.39,9.37,-0.00,-0.00,0.00,57.69,-5.06,-18.06
2026-06-27 11:32:48.190,0.00,0.39,9.38,-0.00,-0.00,0.00,57.38,-5.50,-16.38
2026-06-27 11:32:48.208,0.00,0.40,9.33,0.00,-0.01,0.00,57.38,-5.50,-16.38
2026-06-27 11:32:48.220,0.00,0.39,9.37,0.00,0.00,0.00,57.38,-5.50,-16.38
2026-06-27 11:32:48.233,-0.01,0.39,9.39,0.00,-0.00,-0.00,58.75,-5.88,-17.25
2026-06-27 11:32:48.250,0.00,0.40,9.36,0.00,-0.00,0.00,58.75,-5.88,-17.25
2026-06-27 11:32:48.262,-0.02,0.38,9.35,0.00,-0.00,0.00,58.75,-5.88,-17.25
2026-06-27 11:32:48.275,-0.01,0.39,9.36,0.00,-0.01,-0.00,58.75,-5.88,-17.25
2026-06-27 11:32:48.290,0.00,0.39,9.33,-0.00,-0.01,0.00,58.50,-5.50,-18.38
2026-06-27 11:32:48.302,-0.01,0.39,9.36,-0.00,-0.01,-0.00,58.50,-5.50,-18.38
2026-06-27 11:32:48.320,-0.01,0.40,9.36,-0.00,-0.00,-0.00,58.50,-5.50,-18.38
2026-06-27 11:32:48.332,-0.01,0.39,9.36,-0.00,-0.01,0.00,57.69,-5.50,-18.06
2026-06-27 11:32:48.350,0.00,0.40,9.35,-0.00,-0.01,-0.00,57.69,-5.50,-18.06
2026-06-27 11:32:48.362,-0.01,0.39,9.36,0.00,-0.01,-0.00,57.69,-5.50,-18.06
2026-06-27 11:32:48.375,0.01,0.41,9.37,-0.00,-0.01,-0.00,57.69,-5.50,-18.06
2026-06-27 11:32:48.390,0.01,0.38,9.35,-0.00,-0.01,-0.00,57.69,-5.50,-17.25
2026-06-27 11:32:48.402,0.01,0.39,9.35,-0.00,-0.01,-0.00,57.69,-5.50,-17.25
2026-06-27 11:32:48.420,0.00,0.39,9.36,-0.00,-0.01,-0.00,57.69,-5.50,-17.25
2026-06-27 11:32:48.433,0.01,0.39,9.36,0.00,-0.01,-0.00,58.06,-5.50,-17.25
2026-06-27 11:32:48.450,0.02,0.41,9.38,-0.00,-0.01,0.00,58.06,-5.50,-17.25
2026-06-27 11:32:48.463,0.00,0.40,9.38,0.00,-0.01,-0.00,58.06,-5.50,-17.25
2026-06-27 11:32:48.476,0.00,0.42,9.37,-0.00,-0.01,0.00,58.06,-5.50,-17.25
2026-06-27 11:32:48.491,0.01,0.38,9.38,-0.00,-0.01,0.00,57.00,-5.06,-18.06
2026-06-27 11:32:48.520,0.01,0.39,9.35,-0.00,-0.01,-0.00,57.00,-5.06,-18.06
2026-06-27 11:32:48.541,0.00,0.39,9.37,-0.00,-0.01,0.00,57.25,-5.50,-17.25
2026-06-27 11:32:48.557,0.01,0.40,9.34,-0.00,-0.01,-0.00,57.25,-5.50,-17.25
2026-06-27 11:32:48.572,0.00,0.41,9.37,-0.00,-0.01,0.00,57.25,-5.50,-17.25
2026-06-27 11:32:48.586,0.00,0.41,9.36,-0.00,-0.01,-0.00,57.69,-4.75,-18.38
2026-06-27 11:32:48.602,0.00,0.39,9.36,0.00,-0.00,0.00,57.69,-4.75,-18.38
2026-06-27 11:32:48.621,0.00,0.38,9.35,0.00,-0.00,0.00,57.69,-4.75,-18.38
2026-06-27 11:32:48.640,0.00,0.38,9.36,0.00,-0.00,-0.00,58.50,-5.88,-17.56
2026-06-27 11:32:48.653,0.02,0.37,9.35,0.00,-0.00,0.00,58.50,-5.88,-17.56
2026-06-27 11:32:48.670,0.00,0.37,9.35,0.00,0.00,0.00,58.50,-5.88,-17.56
2026-06-27 11:32:48.683,0.01,0.40,9.37,-0.00,-0.01,0.00,58.50,-5.50,-17.56
2026-06-27 11:32:48.700,0.02,0.38,9.37,0.00,-0.00,0.00,58.50,-5.50,-17.56
2026-06-27 11:32:48.712,0.01,0.39,9.37,0.00,-0.00,0.00,58.50,-5.50,-17.56
2026-06-27 11:32:48.725,0.00,0.38,9.38,-0.00,-0.00,0.00,58.50,-5.50,-17.56
2026-06-27 11:32:48.741,0.01,0.38,9.37,0.00,-0.00,0.00,57.25,-5.50,-18.88
2026-06-27 11:32:48.755,0.01,0.40,9.34,0.00,0.00,0.00,57.25,-5.50,-18.88
2026-06-27 11:32:48.771,0.01,0.39,9.37,0.00,0.00,0.00,57.25,-5.50,-18.88
2026-06-27 11:32:48.784,0.00,0.38,9.37,0.00,0.00,0.00,58.50,-6.25,-16.38
2026-06-27 11:32:48.801,0.00,0.40,9.37,0.00,0.00,0.00,58.50,-6.25,-16.38
2026-06-27 11:32:48.814,-0.01,0.39,9.35,0.00,0.00,0.00,58.50,-6.25,-16.38
2026-06-27 11:32:48.826,0.00,0.39,9.38,-0.00,0.00,0.00,58.50,-6.25,-16.38
2026-06-27 11:32:48.841,0.00,0.41,9.36,0.00,0.00,0.00,58.50,-5.88,-17.25
2026-06-27 11:32:48.854,0.00,0.39,9.36,-0.00,0.00,0.00,58.50,-5.88,-17.25
2026-06-27 11:32:48.871,-0.01,0.41,9.37,0.00,-0.00,0.00,58.50,-5.88,-17.25
2026-06-27 11:32:48.889,0.00,0.39,9.36,0.00,-0.00,0.00,58.06,-5.06,-17.25
2026-06-27 11:32:48.902,0.00,0.39,9.35,0.00,-0.00,-0.00,58.06,-5.06,-17.25
2026-06-27 11:32:48.915,0.00,0.40,9.37,-0.00,0.00,0.00,58.06,-5.06,-17.25
2026-06-27 11:32:48.934,-0.02,0.37,9.35,0.00,0.00,0.00,58.06,-5.50,-17.56
2026-06-27 11:32:48.952,0.00,0.37,9.36,0.00,0.00,-0.00,58.06,-5.50,-17.56
2026-06-27 11:32:48.966,0.00,0.40,9.37,0.00,-0.00,0.00,58.06,-5.50,-17.56
2026-06-27 11:32:48.981,0.00,0.39,9.38,-0.00,-0.00,0.00,58.06,-5.06,-17.25
2026-06-27 11:32:48.995,-0.02,0.39,9.38,0.00,-0.00,0.00,58.06,-5.06,-17.25
2026-06-27 11:32:49.012,0.00,0.40,9.37,0.00,-0.00,0.00,58.06,-5.06,-17.25
2026-06-27 11:32:49.024,0.00,0.38,9.37,0.00,-0.00,0.00,58.06,-5.06,-17.25
2026-06-27 11:32:49.041,0.00,0.38,9.37,-0.00,-0.00,0.00,57.69,-5.50,-16.88
2026-06-27 11:32:49.054,0.00,0.39,9.34,-0.00,-0.01,0.00,57.69,-5.50,-16.88
2026-06-27 11:32:49.071,0.00,0.39,9.35,-0.00,-0.01,0.00,57.69,-5.50,-16.88
2026-06-27 11:32:49.086,0.00,0.38,9.39,0.00,-0.01,0.00,57.69,-4.75,-17.25
2026-06-27 11:32:49.102,0.00,0.40,9.34,0.00,-0.01,0.00,57.69,-4.75,-17.25
2026-06-27 11:32:49.114,0.01,0.37,9.36,0.00,-0.00,-0.00,57.69,-4.75,-17.25
2026-06-27 11:32:49.127,0.01,0.41,9.37,-0.00,-0.00,0.00,57.69,-4.75,-17.25
2026-06-27 11:32:49.142,0.03,0.41,9.37,0.00,-0.00,-0.00,58.06,-5.06,-17.25
2026-06-27 11:32:49.155,0.02,0.38,9.34,-0.00,-0.00,0.00,58.06,-5.06,-17.25
2026-06-27 11:32:49.172,0.02,0.38,9.35,0.00,-0.01,-0.00,58.06,-5.06,-17.25
2026-06-27 11:32:49.189,0.03,0.36,9.38,-0.00,-0.00,0.00,58.06,-5.50,-16.88
2026-06-27 11:32:49.202,0.00,0.38,9.38,-0.00,-0.01,0.00,58.06,-5.50,-16.88
2026-06-27 11:32:49.215,0.03,0.39,9.36,0.00,-0.00,0.00,58.06,-5.50,-16.88
2026-06-27 11:32:49.228,0.05,0.40,9.37,-0.00,0.00,0.00,58.06,-5.50,-16.88
2026-06-27 11:32:49.242,0.05,0.39,9.37,0.00,0.00,-0.00,57.69,-5.06,-17.25
2026-06-27 11:32:49.255,0.03,0.39,9.37,0.00,-0.00,0.00,57.69,-5.06,-17.25
2026-06-27 11:32:49.272,0.03,0.38,9.34,0.00,-0.00,0.00,57.69,-5.06,-17.25
2026-06-27 11:32:49.285,0.04,0.38,9.37,0.00,0.00,0.00,57.25,-5.06,-19.25
2026-06-27 11:32:49.302,0.01,0.39,9.36,0.00,0.00,-0.00,57.25,-5.06,-19.25
2026-06-27 11:32:49.314,0.02,0.39,9.36,-0.00,0.00,-0.00,57.25,-5.06,-19.25
2026-06-27 11:32:49.327,0.03,0.40,9.35,-0.00,0.00,-0.00,57.25,-5.06,-19.25
2026-06-27 11:32:49.343,0.04,0.40,9.37,0.00,0.01,0.00,57.69,-5.50,-18.06
2026-06-27 11:32:49.355,0.03,0.38,9.37,0.00,0.00,-0.00,57.69,-5.50,-18.06
2026-06-27 11:32:49.372,0.03,0.39,9.37,0.00,0.01,0.00,57.69,-5.50,-18.06
2026-06-27 11:32:49.385,0.03,0.37,9.36,0.00,0.00,0.00,58.75,-5.50,-17.25
2026-06-27 11:32:49.402,0.03,0.38,9.33,0.00,0.00,-0.00,58.75,-5.50,-17.25
2026-06-27 11:32:49.415,0.03,0.40,9.38,0.00,0.01,-0.00,58.75,-5.50,-17.25
2026-06-27 11:32:49.427,0.01,0.39,9.37,0.00,0.01,-0.00,58.75,-5.50,-17.25
2026-06-27 11:32:49.443,0.01,0.38,9.36,0.00,0.01,0.00,57.69,-5.50,-18.06
2026-06-27 11:32:49.455,0.02,0.38,9.35,0.00,0.01,0.00,57.69,-5.50,-18.06
2026-06-27 11:32:49.472,0.02,0.39,9.36,0.00,0.01,0.00,57.69,-5.50,-18.06
2026-06-27 11:32:49.485,0.01,0.40,9.36,0.00,0.01,0.00,58.50,-5.50,-17.25
2026-06-27 11:32:49.502,0.01,0.40,9.36,0.00,0.01,0.00,58.50,-5.50,-17.25
2026-06-27 11:32:49.518,0.00,0.37,9.37,0.00,0.01,0.00,58.50,-5.50,-17.25
2026-06-27 11:32:49.533,0.01,0.41,9.36,0.00,0.01,0.00,58.50,-5.50,-18.38
2026-06-27 11:32:49.545,0.01,0.39,9.35,0.00,0.01,0.00,58.50,-5.50,-18.38
2026-06-27 11:32:49.562,0.01,0.40,9.34,0.00,0.01,0.00,58.50,-5.50,-18.38
2026-06-27 11:32:49.575,-0.02,0.40,9.37,0.00,0.01,0.00,58.50,-5.50,-18.38
2026-06-27 11:32:49.593,-0.02,0.38,9.38,0.00,0.00,0.00,58.06,-4.75,-18.06
2026-06-27 11:32:49.605,-0.01,0.38,9.35,0.00,0.01,0.00,58.06,-4.75,-18.06
2026-06-27 11:32:49.622,-0.01,0.39,9.37,0.00,0.00,0.00,58.06,-4.75,-18.06
2026-06-27 11:32:49.635,-0.04,0.43,9.38,0.00,0.00,-0.00,58.50,-5.88,-17.69
2026-06-27 11:32:49.652,-0.02,0.39,9.37,0.00,0.00,-0.00,58.50,-5.88,-17.69
2026-06-27 11:32:49.664,-0.05,0.41,9.35,-0.00,0.00,0.00,58.50,-5.88,-17.69
2026-06-27 11:32:49.677,-0.02,0.39,9.36,-0.00,-0.00,0.00,58.50,-5.88,-17.69
2026-06-27 11:32:49.693,-0.02,0.39,9.38,0.00,-0.01,-0.00,57.25,-5.06,-17.25
2026-06-27 11:32:49.705,-0.01,0.39,9.37,0.00,-0.00,0.00,57.25,-5.06,-17.25
2026-06-27 11:32:49.723,-0.02,0.41,9.36,0.00,-0.00,-0.00,57.25,-5.06,-17.25
2026-06-27 11:32:49.735,0.00,0.41,9.39,0.00,-0.01,0.00,57.69,-5.50,-17.25
2026-06-27 11:32:49.752,-0.01,0.42,9.38,-0.00,-0.01,-0.00,57.69,-5.50,-17.25
2026-06-27 11:32:49.764,0.00,0.40,9.36,0.00,-0.01,0.00,57.69,-5.50,-17.25
2026-06-27 11:32:49.777,0.00,0.39,9.36,-0.00,-0.01,-0.00,57.69,-5.50,-17.25
2026-06-27 11:32:49.794,0.00,0.38,9.38,-0.00,-0.01,0.00,57.69,-5.06,-17.69
2026-06-27 11:32:49.807,0.01,0.39,9.35,-0.00,-0.01,-0.00,57.69,-5.06,-17.69
2026-06-27 11:32:49.823,0.00,0.38,9.36,-0.00,-0.02,-0.00,57.69,-5.06,-17.69
2026-06-27 11:32:49.836,0.00,0.39,9.37,-0.00,-0.01,0.00,58.06,-5.06,-18.38
2026-06-27 11:32:49.853,0.00,0.37,9.36,-0.00,-0.01,-0.00,58.06,-5.06,-18.38
2026-06-27 11:32:49.865,0.00,0.37,9.36,-0.00,-0.01,0.00,58.06,-5.06,-18.38
2026-06-27 11:32:49.879,0.03,0.39,9.37,-0.00,-0.01,0.00,58.06,-5.06,-18.38
2026-06-27 11:32:49.894,0.00,0.37,9.37,-0.00,-0.01,-0.00,57.25,-5.88,-17.56
2026-06-27 11:32:49.906,0.02,0.38,9.34,-0.00,-0.01,-0.00,57.25,-5.88,-17.56
2026-06-27 11:32:49.924,0.03,0.39,9.35,-0.00,-0.01,0.00,57.25,-5.88,-17.56
2026-06-27 11:32:49.936,0.02,0.38,9.40,-0.00,-0.01,0.00,57.69,-5.88,-18.88
2026-06-27 11:32:49.954,0.03,0.39,9.38,-0.00,-0.01,0.00,57.69,-5.88,-18.88
2026-06-27 11:32:49.966,0.02,0.38,9.38,-0.00,-0.01,0.00,57.69,-5.88,-18.88
2026-06-27 11:32:49.982,0.02,0.39,9.32,-0.00,-0.01,-0.00,57.69,-5.88,-18.88
2026-06-27 11:32:49.995,0.03,0.39,9.37,-0.00,-0.01,0.00,58.06,-5.50,-18.06
2026-06-27 11:32:50.013,0.03,0.39,9.34,-0.00,-0.01,0.00,58.06,-5.50,-18.06
2026-06-27 11:32:50.027,0.01,0.39,9.35,-0.00,-0.01,0.00,58.06,-5.50,-18.06
2026-06-27 11:32:50.044,0.04,0.40,9.38,-0.00,-0.01,0.00,58.06,-5.50,-18.06
2026-06-27 11:32:50.064,0.06,0.39,9.34,-0.00,-0.01,0.00,58.06,-5.50,-18.06
2026-06-27 11:32:50.077,0.05,0.39,9.37,0.00,-0.01,-0.00,58.06,-5.50,-18.06
2026-06-27 11:32:50.095,0.05,0.40,9.39,0.00,-0.01,-0.00,57.00,-5.06,-18.06
2026-06-27 11:32:50.113,0.04,0.41,9.35,-0.00,-0.01,0.00,57.00,-5.06,-18.06
2026-06-27 11:32:50.126,0.06,0.39,9.37,-0.00,-0.01,0.00,57.00,-5.06,-18.06
2026-06-27 11:32:50.144,0.07,0.37,9.36,-0.00,-0.01,-0.00,57.38,-5.06,-18.06
2026-06-27 11:32:50.157,0.04,0.39,9.35,-0.00,-0.01,0.00,57.38,-5.06,-18.06
2026-06-27 11:32:50.174,0.06,0.36,9.36,-0.00,-0.01,-0.00,57.38,-5.06,-18.06
2026-06-27 11:32:50.187,0.06,0.39,9.37,-0.00,-0.01,0.00,57.25,-5.88,-17.56
2026-06-27 11:32:50.204,0.04,0.38,9.35,-0.00,-0.01,0.00,57.25,-5.88,-17.56
2026-06-27 11:32:50.217,0.06,0.37,9.38,-0.00,-0.01,0.00,57.25,-5.88,-17.56
2026-06-27 11:32:50.229,0.07,0.37,9.37,0.00,-0.01,-0.00,57.25,-5.88,-17.56
2026-06-27 11:32:50.246,0.06,0.39,9.38,-0.00,-0.01,-0.00,57.25,-5.50,-18.06
2026-06-27 11:32:50.259,0.07,0.34,9.36,0.00,-0.00,0.00,57.25,-5.50,-18.06
2026-06-27 11:32:50.275,0.06,0.36,9.37,-0.00,-0.01,0.00,57.25,-5.50,-18.06
2026-06-27 11:32:50.288,0.06,0.39,9.38,-0.00,-0.00,0.00,57.38,-5.06,-17.25
2026-06-27 11:32:50.304,0.06,0.38,9.37,-0.00,-0.00,0.00,57.38,-5.06,-17.25
2026-06-27 11:32:50.317,0.08,0.38,9.37,0.00,-0.00,0.00,57.38,-5.06,-17.25
2026-06-27 11:32:50.329,0.07,0.37,9.34,-0.00,-0.00,-0.00,57.38,-5.06,-17.25
2026-06-27 11:32:50.345,0.06,0.36,9.35,-0.00,-0.01,0.00,56.69,-5.06,-17.25
2026-06-27 11:32:50.357,0.07,0.37,9.35,-0.00,-0.00,0.00,56.69,-5.06,-17.25
2026-06-27 11:32:50.375,0.08,0.39,9.35,0.00,-0.01,0.00,56.69,-5.06,-17.25
2026-06-27 11:32:50.387,0.05,0.38,9.38,-0.00,-0.00,0.00,57.00,-5.50,-18.38
2026-06-27 11:32:50.404,0.04,0.40,9.38,0.00,0.00,0.00,57.00,-5.50,-18.38
2026-06-27 11:32:50.417,0.06,0.36,9.36,0.00,0.00,0.00,57.00,-5.50,-18.38
2026-06-27 11:32:50.429,0.07,0.40,9.36,0.00,0.00,0.00,57.00,-5.50,-18.38
2026-06-27 11:32:50.445,0.07,0.37,9.37,0.00,0.01,0.00,58.06,-5.88,-18.06
2026-06-27 11:32:50.458,0.06,0.39,9.35,-0.00,0.00,0.00,58.06,-5.88,-18.06
2026-06-27 11:32:50.475,0.06,0.38,9.36,0.00,0.00,0.00,58.06,-5.88,-18.06
2026-06-27 11:32:50.488,0.07,0.38,9.37,0.00,0.00,0.00,57.25,-5.06,-18.06
2026-06-27 11:32:50.506,0.08,0.38,9.37,0.00,0.00,0.00,57.25,-5.06,-18.06
2026-06-27 11:32:50.523,0.05,0.38,9.36,0.00,0.01,0.00,57.25,-5.06,-18.06
2026-06-27 11:32:50.536,0.09,0.41,9.39,0.00,0.00,-0.00,57.69,-5.88,-18.38
2026-06-27 11:32:50.554,0.06,0.38,9.40,0.00,0.00,-0.00,57.69,-5.88,-18.38
2026-06-27 11:32:50.566,0.05,0.39,9.37,-0.00,0.00,0.00,57.69,-5.88,-18.38
2026-06-27 11:32:50.579,0.06,0.39,9.38,0.00,0.00,-0.00,57.69,-5.88,-18.38
2026-06-27 11:32:50.595,0.07,0.39,9.38,-0.00,0.01,0.00,56.69,-5.06,-18.06
2026-06-27 11:32:50.614,0.08,0.38,9.34,0.00,0.00,-0.00,56.69,-5.06,-18.06
2026-06-27 11:32:50.626,0.08,0.36,9.38,0.00,0.01,0.00,56.69,-5.06,-18.06
2026-06-27 11:32:50.644,0.08,0.38,9.38,0.00,0.00,0.00,57.00,-5.50,-17.56
2026-06-27 11:32:50.657,0.10,0.39,9.36,0.00,0.01,-0.00,57.00,-5.50,-17.56
2026-06-27 11:32:50.677,0.08,0.38,9.37,0.00,0.00,0.00,57.00,-5.50,-17.56
2026-06-27 11:32:50.693,0.06,0.40,9.38,0.00,0.01,0.00,57.25,-5.88,-17.69
2026-06-27 11:32:50.706,0.07,0.37,9.34,0.00,0.01,-0.00,57.25,-5.88,-17.69
2026-06-27 11:32:50.719,0.06,0.37,9.35,0.00,0.01,0.00,57.25,-5.88,-17.69
2026-06-27 11:32:50.734,0.06,0.38,9.38,0.00,0.00,-0.00,57.25,-5.88,-17.69
2026-06-27 11:32:50.746,0.06,0.36,9.37,0.00,0.01,0.00,57.25,-4.75,-18.38
2026-06-27 11:32:50.758,0.07,0.38,9.34,0.00,0.01,0.00,57.25,-4.75,-18.38
2026-06-27 11:32:50.775,0.10,0.37,9.35,0.00,0.01,0.00,57.25,-4.75,-18.38
2026-06-27 11:32:50.788,0.07,0.36,9.36,0.00,0.01,0.00,57.38,-4.75,-17.69
2026-06-27 11:32:50.805,0.07,0.37,9.35,0.00,0.01,0.00,57.38,-4.75,-17.69
2026-06-27 11:32:50.819,0.07,0.38,9.37,0.00,0.01,-0.00,57.38,-4.75,-17.69
2026-06-27 11:32:50.831,0.07,0.39,9.35,0.00,0.01,0.00,57.38,-4.75,-17.69
2026-06-27 11:32:50.846,0.08,0.40,9.36,-0.00,0.01,0.00,57.69,-5.88,-18.88
2026-06-27 11:32:50.859,0.08,0.38,9.36,0.00,0.01,0.00,57.69,-5.88,-18.88
2026-06-27 11:32:50.876,0.06,0.38,9.36,0.00,0.01,-0.00,57.69,-5.88,-18.88
2026-06-27 11:32:50.889,0.07,0.37,9.37,0.00,0.01,0.00,57.00,-5.50,-17.69
2026-06-27 11:32:50.906,0.08,0.39,9.37,0.00,0.00,0.00,57.00,-5.50,-17.69
2026-06-27 11:32:50.918,0.08,0.37,9.36,0.00,0.01,-0.00,57.00,-5.50,-17.69
2026-06-27 11:32:50.931,0.08,0.38,9.39,0.00,0.01,0.00,57.00,-5.50,-17.69
2026-06-27 11:32:50.946,0.06,0.38,9.35,0.00,0.00,0.00,57.25,-5.50,-18.38
2026-06-27 11:32:50.959,0.07,0.38,9.35,0.00,0.00,0.00,57.25,-5.50,-18.38
2026-06-27 11:32:50.978,0.05,0.39,9.36,0.00,0.01,-0.00,57.25,-5.50,-18.38
2026-06-27 11:32:50.995,0.07,0.40,9.37,0.00,0.00,0.00,57.25,-5.06,-18.06
2026-06-27 11:32:51.008,0.06,0.38,9.34,0.00,0.00,-0.00,57.25,-5.06,-18.06
2026-06-27 11:32:51.026,0.05,0.39,9.34,-0.00,0.01,0.00,57.25,-5.06,-18.06
2026-06-27 11:32:51.039,0.07,0.36,9.38,0.00,0.01,0.00,57.00,-5.50,-18.88
2026-06-27 11:32:51.056,0.06,0.38,9.37,-0.00,0.00,0.00,57.00,-5.50,-18.88
2026-06-27 11:32:51.069,0.07,0.37,9.35,0.00,0.00,0.00,57.00,-5.50,-18.88
2026-06-27 11:32:51.081,0.07,0.38,9.37,0.00,0.00,0.00,57.00,-5.50,-18.88
2026-06-27 11:32:51.096,0.08,0.41,9.37,0.00,0.01,-0.00,57.00,-5.50,-18.88
2026-06-27 11:32:51.109,0.06,0.40,9.33,-0.00,0.01,-0.00,57.00,-5.50,-18.88
2026-06-27 11:32:51.126,0.06,0.39,9.38,0.00,0.00,-0.00,57.00,-5.50,-18.88
2026-06-27 11:32:51.139,0.06,0.37,9.39,0.00,0.01,0.00,57.00,-5.06,-17.69
2026-06-27 11:32:51.156,0.07,0.37,9.37,0.00,0.00,0.00,57.00,-5.06,-17.69
2026-06-27 11:32:51.169,0.05,0.36,9.39,-0.00,0.01,0.00,57.00,-5.06,-17.69
2026-06-27 11:32:51.182,0.06,0.37,9.38,0.00,0.01,-0.00,57.00,-5.06,-17.69
2026-06-27 11:32:51.197,0.08,0.37,9.39,0.00,0.00,-0.00,57.69,-5.06,-18.38
2026-06-27 11:32:51.209,0.06,0.39,9.34,0.00,0.01,0.00,57.69,-5.06,-18.38
2026-06-27 11:32:51.226,0.05,0.40,9.36,0.00,0.01,-0.00,57.69,-5.06,-18.38
2026-06-27 11:32:51.239,0.05,0.38,9.37,0.00,0.01,0.00,57.69,-5.50,-18.06
2026-06-27 11:32:51.256,0.06,0.36,9.35,0.00,0.00,-0.00,57.69,-5.50,-18.06
2026-06-27 11:32:51.269,0.07,0.39,9.36,0.00,0.01,0.00,57.69,-5.50,-18.06
2026-06-27 11:32:51.281,0.05,0.40,9.36,0.00,0.01,0.00,57.69,-5.50,-18.06
2026-06-27 11:32:51.296,0.04,0.38,9.36,0.00,0.01,-0.00,57.00,-5.88,-17.25
2026-06-27 11:32:51.309,0.06,0.40,9.37,0.00,0.01,0.00,57.00,-5.88,-17.25
2026-06-27 11:32:51.326,0.04,0.38,9.36,0.00,0.01,0.00,57.00,-5.88,-17.25
2026-06-27 11:32:51.339,0.05,0.40,9.34,0.00,0.01,-0.00,58.06,-4.75,-19.25
2026-06-27 11:32:51.357,0.05,0.38,9.32,0.00,0.01,-0.00,58.06,-4.75,-19.25
2026-06-27 11:32:51.370,0.05,0.37,9.39,0.00,0.01,0.00,58.06,-4.75,-19.25
2026-06-27 11:32:51.382,0.04,0.38,9.38,0.00,0.01,-0.00,58.06,-4.75,-19.25
2026-06-27 11:32:51.397,0.04,0.40,9.38,0.00,0.00,0.00,57.00,-5.50,-17.69
2026-06-27 11:32:51.412,0.05,0.41,9.38,0.00,0.01,0.00,57.00,-5.50,-17.69
2026-06-27 11:32:51.427,0.04,0.38,9.38,0.00,0.00,0.00,57.00,-5.50,-17.69
2026-06-27 11:32:51.440,0.03,0.35,9.37,0.00,0.00,0.00,58.06,-5.50,-18.06
2026-06-27 11:32:51.457,0.02,0.38,9.36,0.00,0.00,0.00,58.06,-5.50,-18.06
2026-06-27 11:32:51.470,0.06,0.40,9.33,0.00,0.00,-0.00,58.06,-5.50,-18.06
2026-06-27 11:32:51.483,0.03,0.41,9.37,-0.00,0.00,-0.00,58.06,-5.50,-18.06
2026-06-27 11:32:51.497,0.04,0.39,9.37,0.00,0.01,-0.00,57.69,-5.50,-18.06
2026-06-27 11:32:51.510,0.04,0.41,9.34,0.00,0.00,0.00,57.69,-5.50,-18.06
2026-06-27 11:32:51.527,0.04,0.40,9.34,-0.00,0.00,0.00,57.69,-5.50,-18.06
2026-06-27 11:32:51.540,0.02,0.37,9.37,0.00,0.00,0.00,57.25,-4.75,-18.38
2026-06-27 11:32:51.557,0.02,0.38,9.35,-0.00,0.00,-0.00,57.25,-4.75,-18.38
2026-06-27 11:32:51.569,0.04,0.40,9.35,0.00,-0.00,0.00,57.25,-4.75,-18.38
2026-06-27 11:32:51.582,0.03,0.38,9.35,-0.00,0.01,0.00,57.25,-4.75,-18.38
2026-06-27 11:32:51.597,0.01,0.40,9.36,0.00,0.00,-0.00,57.69,-5.88,-18.38
2026-06-27 11:32:51.609,0.03,0.38,9.34,0.00,-0.00,-0.00,57.69,-5.88,-18.38
2026-06-27 11:32:51.627,0.02,0.39,9.36,0.00,-0.00,0.00,57.69,-5.88,-18.38
2026-06-27 11:32:51.640,0.04,0.38,9.38,0.00,-0.00,0.00,58.06,-5.06,-18.88
2026-06-27 11:32:51.657,0.03,0.38,9.36,0.00,-0.01,-0.00,58.06,-5.06,-18.88
2026-06-27 11:32:51.669,0.02,0.39,9.38,0.00,-0.00,0.00,58.06,-5.06,-18.88
2026-06-27 11:32:51.682,0.01,0.39,9.37,-0.00,-0.00,0.00,58.06,-5.06,-18.88
2026-06-27 11:32:51.697,0.01,0.39,9.39,0.00,-0.00,0.00,57.25,-5.88,-18.38
2026-06-27 11:32:51.710,0.03,0.38,9.34,0.00,-0.01,0.00,57.25,-5.88,-18.38
2026-06-27 11:32:51.727,0.05,0.38,9.35,-0.00,-0.00,0.00,57.25,-5.88,-18.38
2026-06-27 11:32:51.740,0.05,0.39,9.38,-0.00,-0.01,0.00,57.00,-5.88,-18.06
2026-06-27 11:32:51.757,0.03,0.40,9.35,-0.00,-0.01,0.00,57.00,-5.88,-18.06
2026-06-27 11:32:51.770,0.03,0.42,9.33,0.00,-0.01,0.00,57.00,-5.88,-18.06
2026-06-27 11:32:51.782,0.03,0.39,9.35,-0.00,-0.00,0.00,57.00,-5.88,-18.06
2026-06-27 11:32:51.797,0.04,0.38,9.37,-0.00,-0.00,0.00,57.00,-5.06,-17.25
2026-06-27 11:32:51.810,0.04,0.41,9.35,-0.00,-0.01,0.00,57.00,-5.06,-17.25
2026-06-27 11:32:51.827,0.04,0.37,9.38,-0.00,-0.00,0.00,57.00,-5.06,-17.25
2026-06-27 11:32:51.843,0.04,0.39,9.36,-0.00,-0.01,0.00,58.06,-4.75,-18.06
2026-06-27 11:32:51.858,0.04,0.42,9.36,-0.00,-0.01,0.00,58.06,-4.75,-18.06
2026-06-27 11:32:51.870,0.02,0.39,9.37,-0.01,-0.01,0.00,58.06,-4.75,-18.06
2026-06-27 11:32:51.883,0.03,0.38,9.37,-0.00,-0.01,-0.00,58.06,-4.75,-18.06
2026-06-27 11:32:51.898,0.05,0.40,9.38,-0.00,0.00,-0.00,57.00,-5.50,-16.88
2026-06-27 11:32:51.910,0.04,0.40,9.36,0.00,-0.00,-0.00,57.00,-5.50,-16.88
2026-06-27 11:32:51.927,0.05,0.38,9.36,0.00,0.00,0.00,57.00,-5.50,-16.88
2026-06-27 11:32:51.940,0.07,0.40,9.38,0.00,-0.00,0.00,57.38,-5.88,-18.06
2026-06-27 11:32:51.957,0.06,0.39,9.37,-0.00,0.00,-0.00,57.38,-5.88,-18.06
2026-06-27 11:32:51.970,0.05,0.38,9.37,0.00,-0.00,0.00,57.38,-5.88,-18.06
2026-06-27 11:32:51.983,0.05,0.40,9.35,-0.00,-0.00,-0.00,57.38,-5.88,-18.06
2026-06-27 11:32:51.999,0.04,0.37,9.36,-0.00,-0.00,0.00,58.50,-5.06,-17.69
2026-06-27 11:32:52.011,0.07,0.37,9.34,0.00,-0.00,-0.00,58.50,-5.06,-17.69
2026-06-27 11:32:52.028,0.07,0.38,9.38,-0.00,-0.00,0.00,58.50,-5.06,-17.69
2026-06-27 11:32:52.041,0.07,0.35,9.36,-0.00,-0.00,-0.00,58.06,-5.06,-17.69
2026-06-27 11:32:52.058,0.07,0.39,9.34,0.00,-0.00,0.00,58.06,-5.06,-17.69
2026-06-27 11:32:52.071,0.06,0.38,9.37,-0.00,-0.00,0.00,58.06,-5.06,-17.69
2026-06-27 11:32:52.083,0.06,0.37,9.35,-0.00,0.00,0.00,58.06,-5.06,-17.69
2026-06-27 11:32:52.098,0.07,0.39,9.33,0.00,-0.00,0.00,57.00,-5.50,-18.06
2026-06-27 11:32:52.111,0.06,0.38,9.38,0.00,0.00,0.00,57.00,-5.50,-18.06
2026-06-27 11:32:52.128,0.06,0.38,9.36,0.00,-0.00,0.00,57.00,-5.50,-18.06
2026-06-27 11:32:52.140,0.08,0.38,9.36,-0.00,0.00,-0.00,57.38,-5.06,-17.25
2026-06-27 11:32:52.158,0.09,0.40,9.36,0.00,0.01,-0.00,57.38,-5.06,-17.25
2026-06-27 11:32:52.171,0.05,0.40,9.35,0.00,0.00,-0.00,57.38,-5.06,-17.25
2026-06-27 11:32:52.183,0.07,0.42,9.36,0.00,0.00,0.00,57.38,-5.06,-17.25
2026-06-27 11:32:52.198,0.05,0.39,9.36,0.00,0.00,0.00,57.69,-6.56,-18.38
2026-06-27 11:32:52.211,0.07,0.38,9.35,0.00,0.00,0.00,57.69,-6.56,-18.38
2026-06-27 11:32:52.228,0.07,0.37,9.36,0.00,0.00,0.00,57.69,-6.56,-18.38
2026-06-27 11:32:52.241,0.05,0.37,9.38,0.00,0.01,0.00,56.69,-5.06,-18.38
2026-06-27 11:32:52.257,0.08,0.39,9.36,0.00,0.01,-0.00,56.69,-5.06,-18.38
2026-06-27 11:32:52.271,0.06,0.39,9.35,0.00,0.00,0.00,56.69,-5.06,-18.38
2026-06-27 11:32:52.283,0.04,0.40,9.37,0.00,0.00,0.00,56.69,-5.06,-18.38
2026-06-27 11:32:52.299,0.05,0.38,9.38,0.00,0.01,0.00,57.38,-5.06,-18.06
2026-06-27 11:32:52.312,0.05,0.38,9.36,-0.00,0.01,0.00,57.38,-5.06,-18.06
2026-06-27 11:32:52.329,0.05,0.39,9.35,0.00,0.01,0.00,57.38,-5.06,-18.06
2026-06-27 11:32:52.341,0.05,0.37,9.35,0.00,0.01,0.00,57.38,-5.88,-18.06
2026-06-27 11:32:52.358,0.00,0.40,9.37,-0.00,0.01,0.00,57.38,-5.88,-18.06
2026-06-27 11:32:52.372,0.06,0.41,9.36,0.00,0.01,0.00,57.38,-5.88,-18.06
2026-06-27 11:32:52.384,0.05,0.41,9.36,0.00,0.01,-0.00,57.38,-5.88,-18.06
2026-06-27 11:32:52.399,0.03,0.37,9.35,-0.00,-0.00,0.00,57.00,-5.06,-18.88
2026-06-27 11:32:52.415,0.05,0.39,9.36,0.00,-0.00,-0.00,57.00,-5.06,-18.88
2026-06-27 11:32:52.430,0.04,0.38,9.37,0.00,-0.00,-0.00,57.00,-5.06,-18.88
2026-06-27 11:32:52.442,0.04,0.41,9.37,-0.00,0.00,-0.00,57.00,-5.50,-18.06
2026-06-27 11:32:52.458,0.02,0.40,9.36,-0.00,0.00,0.00,57.00,-5.50,-18.06
2026-06-27 11:32:52.471,0.01,0.39,9.36,0.00,-0.00,-0.00,57.00,-5.50,-18.06
2026-06-27 11:32:52.484,0.04,0.37,9.38,-0.00,-0.00,-0.00,57.00,-5.50,-18.06
2026-06-27 11:32:52.499,0.04,0.38,9.36,-0.00,-0.01,0.00,57.25,-5.50,-18.38
2026-06-27 11:32:52.512,0.02,0.40,9.35,0.00,-0.01,-0.00,57.25,-5.50,-18.38
2026-06-27 11:32:52.529,0.02,0.38,9.35,-0.00,-0.00,0.00,57.25,-5.50,-18.38
2026-06-27 11:32:52.542,0.04,0.37,9.38,-0.00,-0.01,-0.00,57.00,-5.06,-18.38
2026-06-27 11:32:52.559,0.05,0.38,9.35,-0.00,-0.01,0.00,57.00,-5.06,-18.38
2026-06-27 11:32:52.571,0.04,0.38,9.36,-0.00,-0.01,0.00,57.00,-5.06,-18.38
2026-06-27 11:32:52.584,0.02,0.38,9.35,-0.00,-0.01,0.00,57.00,-5.06,-18.38
2026-06-27 11:32:52.600,0.01,0.38,9.37,-0.00,-0.01,-0.00,57.69,-5.88,-17.56
2026-06-27 11:32:52.615,0.05,0.39,9.34,0.00,-0.01,0.00,57.69,-5.88,-17.56
2026-06-27 11:32:52.630,0.04,0.40,9.35,-0.00,-0.01,0.00,57.69,-5.88,-17.56
2026-06-27 11:32:52.646,0.05,0.37,9.39,-0.00,-0.01,0.00,57.25,-5.50,-18.38
2026-06-27 11:32:52.660,0.04,0.40,9.36,-0.00,-0.01,0.00,57.25,-5.50,-18.38
2026-06-27 11:32:52.674,0.03,0.38,9.36,-0.00,-0.01,0.00,57.25,-5.50,-18.38
2026-06-27 11:32:52.689,0.02,0.39,9.36,-0.00,-0.01,0.00,57.25,-5.50,-18.38
2026-06-27 11:32:52.701,0.04,0.38,9.36,-0.00,-0.01,0.00,58.06,-4.75,-18.38
2026-06-27 11:32:52.718,0.03,0.40,9.34,-0.00,-0.01,0.00,58.06,-4.75,-18.38
2026-06-27 11:32:52.731,0.03,0.38,9.39,-0.00,-0.01,0.00,58.06,-4.75,-18.38
2026-06-27 11:32:52.749,0.03,0.38,9.39,-0.00,-0.01,0.00,57.69,-5.06,-18.06
2026-06-27 11:32:52.761,0.03,0.37,9.35,-0.00,-0.02,0.00,57.69,-5.06,-18.06
2026-06-27 11:32:52.779,0.04,0.39,9.36,-0.00,-0.02,0.00,57.69,-5.06,-18.06
2026-06-27 11:32:52.792,0.06,0.39,9.38,-0.00,-0.01,-0.00,57.25,-5.06,-18.06
2026-06-27 11:32:52.810,0.09,0.39,9.36,-0.00,-0.02,0.00,57.25,-5.06,-18.06
2026-06-27 11:32:52.822,0.08,0.40,9.36,-0.00,-0.02,0.00,57.25,-5.06,-18.06
2026-06-27 11:32:52.834,0.09,0.40,9.39,-0.00,-0.02,-0.00,57.25,-5.06,-18.06
2026-06-27 11:32:52.850,0.08,0.43,9.34,-0.00,-0.02,0.00,57.00,-4.38,-18.06
2026-06-27 11:32:52.862,0.06,0.40,9.35,-0.00,-0.02,0.00,57.00,-4.38,-18.06
2026-06-27 11:32:52.880,0.08,0.39,9.34,-0.00,-0.02,0.00,57.00,-4.38,-18.06
2026-06-27 11:32:52.892,0.07,0.36,9.37,-0.00,-0.02,0.00,57.25,-5.06,-18.38
2026-06-27 11:32:52.910,0.08,0.40,9.37,0.00,-0.01,-0.00,57.25,-5.06,-18.38
2026-06-27 11:32:52.922,0.08,0.40,9.39,-0.00,-0.01,-0.00,57.25,-5.06,-18.38
2026-06-27 11:32:52.934,0.07,0.41,9.37,-0.00,-0.01,-0.00,57.25,-5.06,-18.38
2026-06-27 11:32:52.950,0.08,0.40,9.35,0.00,-0.01,-0.00,57.00,-5.06,-18.38
2026-06-27 11:32:52.962,0.10,0.39,9.33,-0.00,-0.01,0.00,57.00,-5.06,-18.38
2026-06-27 11:32:52.980,0.11,0.38,9.34,0.00,-0.01,0.00,57.00,-5.06,-18.38
2026-06-27 11:32:52.992,0.13,0.37,9.38,-0.00,-0.01,-0.00,57.00,-4.75,-18.38
2026-06-27 11:32:53.010,0.13,0.38,9.37,0.00,-0.01,-0.00,57.00,-4.75,-18.38
2026-06-27 11:32:53.022,0.12,0.37,9.37,0.00,-0.00,-0.00,57.00,-4.75,-18.38
2026-06-27 11:32:53.035,0.12,0.39,9.34,-0.00,-0.00,-0.01,57.00,-4.75,-18.38
2026-06-27 11:32:53.050,0.12,0.37,9.36,0.00,-0.00,-0.00,57.69,-5.50,-18.06
2026-06-27 11:32:53.063,0.16,0.37,9.35,0.00,0.00,0.00,57.69,-5.50,-18.06
2026-06-27 11:32:53.080,0.15,0.35,9.36,0.00,0.00,0.00,57.69,-5.50,-18.06
2026-06-27 11:32:53.093,0.12,0.34,9.35,0.00,0.00,0.00,57.25,-5.50,-19.25
2026-06-27 11:32:53.110,0.13,0.34,9.37,0.00,0.01,-0.00,57.25,-5.50,-19.25
2026-06-27 11:32:53.123,0.10,0.36,9.36,0.00,0.01,0.00,57.25,-5.50,-19.25
2026-06-27 11:32:53.135,0.08,0.35,9.35,0.00,0.01,-0.00,57.25,-5.50,-19.25
2026-06-27 11:32:53.150,0.06,0.33,9.36,0.00,0.01,0.00,57.38,-5.50,-18.06
2026-06-27 11:32:53.163,0.07,0.33,9.37,0.00,0.01,0.00,57.38,-5.50,-18.06
2026-06-27 11:32:53.180,0.09,0.32,9.38,0.00,0.01,0.00,57.38,-5.50,-18.06
2026-06-27 11:32:53.193,0.06,0.34,9.37,0.00,0.01,-0.00,56.25,-5.06,-17.69
2026-06-27 11:32:53.210,0.07,0.37,9.39,0.00,0.01,-0.00,56.25,-5.06,-17.69
2026-06-27 11:32:53.223,0.07,0.38,9.36,0.00,0.01,-0.00,56.25,-5.06,-17.69
2026-06-27 11:32:53.236,0.10,0.37,9.34,0.00,0.00,0.00,56.25,-5.06,-17.69
2026-06-27 11:32:53.250,0.09,0.38,9.36,0.00,0.01,0.00,57.69,-5.88,-18.06
2026-06-27 11:32:53.264,0.09,0.35,9.34,0.00,0.00,0.00,57.69,-5.88,-18.06
2026-06-27 11:32:53.281,0.10,0.39,9.35,0.00,0.00,0.00,57.69,-5.88,-18.06
2026-06-27 11:32:53.293,0.07,0.39,9.35,0.00,0.01,-0.00,57.00,-5.06,-18.88
2026-06-27 11:32:53.310,0.07,0.36,9.36,0.00,0.01,-0.00,57.00,-5.06,-18.88
2026-06-27 11:32:53.323,0.09,0.41,9.36,0.00,0.01,-0.00,57.00,-5.06,-18.88
2026-06-27 11:32:53.335,0.07,0.41,9.37,0.00,0.01,0.00,57.00,-5.06,-18.88
2026-06-27 11:32:53.351,0.06,0.40,9.36,0.00,0.01,0.00,57.69,-4.75,-18.38
2026-06-27 11:32:53.363,0.09,0.39,9.34,0.00,0.01,0.00,57.69,-4.75,-18.38
2026-06-27 11:32:53.380,0.09,0.40,9.34,0.00,0.01,0.00,57.69,-4.75,-18.38
2026-06-27 11:32:53.393,0.10,0.38,9.36,0.00,0.01,-0.00,57.00,-5.06,-17.69
2026-06-27 11:32:53.411,0.09,0.40,9.36,0.00,0.01,-0.00,57.00,-5.06,-17.69
2026-06-27 11:32:53.423,0.08,0.42,9.37,0.00,0.01,-0.00,57.00,-5.06,-17.69
2026-06-27 11:32:53.437,0.07,0.42,9.37,0.00,0.01,-0.00,57.00,-5.06,-17.69
2026-06-27 11:32:53.451,0.09,0.39,9.36,0.00,0.01,-0.00,57.25,-5.06,-18.38
2026-06-27 11:32:53.463,0.07,0.40,9.34,0.00,0.01,-0.00,57.25,-5.06,-18.38
2026-06-27 11:32:53.481,0.07,0.39,9.35,0.00,0.01,0.00,57.25,-5.06,-18.38
2026-06-27 11:32:53.494,0.09,0.40,9.38,0.00,0.01,-0.00,57.00,-4.75,-17.69
2026-06-27 11:32:53.511,0.08,0.37,9.35,0.00,0.01,-0.01,57.00,-4.75,-17.69
2026-06-27 11:32:53.523,0.07,0.39,9.36,0.00,0.01,-0.00,57.00,-4.75,-17.69
2026-06-27 11:32:53.539,0.07,0.41,9.36,0.00,0.01,-0.00,57.00,-4.75,-17.69
2026-06-27 11:32:53.552,0.08,0.38,9.37,0.00,0.01,-0.00,56.69,-5.06,-18.06
2026-06-27 11:32:53.564,0.06,0.41,9.36,0.00,0.01,-0.00,56.69,-5.06,-18.06
2026-06-27 11:32:53.581,0.08,0.40,9.35,0.00,0.01,-0.00,56.69,-5.06,-18.06
2026-06-27 11:32:53.596,0.07,0.37,9.39,0.00,0.01,-0.00,57.00,-5.06,-18.06
2026-06-27 11:32:53.611,0.08,0.38,9.37,0.00,0.01,-0.00,57.00,-5.06,-18.06
2026-06-27 11:32:53.624,0.05,0.35,9.32,0.00,0.01,-0.00,57.00,-5.06,-18.06
2026-06-27 11:32:53.637,0.07,0.39,9.37,0.00,0.01,-0.00,57.00,-5.06,-18.06
2026-06-27 11:32:53.652,0.05,0.39,9.37,0.01,0.01,-0.00,57.69,-5.50,-19.69
2026-06-27 11:32:53.665,0.04,0.36,9.34,0.00,0.01,-0.00,57.69,-5.50,-19.69
2026-06-27 11:32:53.681,0.04,0.35,9.37,0.00,0.02,-0.00,57.69,-5.50,-19.69
2026-06-27 11:32:53.695,0.08,0.35,9.39,0.00,0.01,-0.00,57.69,-5.06,-18.38
2026-06-27 11:32:53.711,0.04,0.35,9.35,0.00,0.01,-0.00,57.69,-5.06,-18.38
2026-06-27 11:32:53.729,0.06,0.36,9.35,0.00,0.01,-0.00,57.69,-5.06,-18.38
2026-06-27 11:32:53.742,0.05,0.35,9.36,0.00,0.01,-0.00,58.06,-5.50,-18.06
2026-06-27 11:32:53.755,0.04,0.37,9.34,0.00,0.00,0.00,58.06,-5.50,-18.06
2026-06-27 11:32:53.772,0.03,0.37,9.36,-0.00,0.01,0.00,58.06,-5.50,-18.06
2026-06-27 11:32:53.785,0.01,0.35,9.39,0.00,0.00,0.01,58.06,-5.50,-18.06
2026-06-27 11:32:53.802,0.02,0.36,9.41,-0.00,0.00,0.00,57.38,-5.06,-18.50
2026-06-27 11:32:53.814,0.02,0.36,9.34,-0.00,0.00,0.00,57.38,-5.06,-18.50
2026-06-27 11:32:53.831,0.02,0.39,9.36,-0.00,0.00,0.00,57.38,-5.06,-18.50
2026-06-27 11:32:53.844,0.01,0.39,9.38,-0.00,0.01,0.00,57.69,-5.06,-17.69
2026-06-27 11:32:53.861,0.00,0.40,9.34,-0.00,0.00,0.00,57.69,-5.06,-17.69
2026-06-27 11:32:53.874,0.01,0.39,9.38,-0.00,0.00,0.01,57.69,-5.06,-17.69
2026-06-27 11:32:53.886,0.05,0.40,9.35,-0.00,-0.00,0.00,57.69,-5.06,-17.69
2026-06-27 11:32:53.902,0.03,0.39,9.39,-0.00,0.00,0.00,57.00,-5.06,-16.38
2026-06-27 11:32:53.914,0.06,0.38,9.34,-0.00,-0.00,0.00,57.00,-5.06,-16.38
2026-06-27 11:32:53.931,0.02,0.41,9.38,-0.00,0.00,0.00,57.00,-5.06,-16.38
2026-06-27 11:32:53.944,0.06,0.41,9.35,0.00,-0.00,0.00,57.00,-5.88,-18.06
2026-06-27 11:32:53.959,0.04,0.44,9.36,-0.00,-0.00,0.00,57.00,-5.88,-18.06
2026-06-27 11:32:53.972,0.03,0.40,9.35,0.00,0.00,0.01,57.00,-5.88,-18.06
2026-06-27 11:32:53.985,0.02,0.40,9.35,-0.00,0.00,0.01,57.00,-5.88,-18.06
2026-06-27 11:32:53.002,0.03,0.39,9.39,-0.00,0.00,0.00,57.69,-5.06,-18.38
2026-06-27 11:32:54.014,0.04,0.40,9.37,-0.00,-0.00,-0.00,57.69,-5.06,-18.38
2026-06-27 11:32:54.030,0.04,0.40,9.35,-0.00,0.00,-0.00,57.69,-5.06,-18.38
2026-06-27 11:32:54.043,0.06,0.41,9.35,-0.00,0.00,0.00,56.69,-4.75,-18.38
2026-06-27 11:32:54.057,0.02,0.40,9.35,0.00,0.00,0.00,56.69,-4.75,-18.38
2026-06-27 11:32:54.072,0.04,0.39,9.37,-0.00,-0.00,0.00,56.69,-4.75,-18.38
2026-06-27 11:32:54.085,0.05,0.40,9.36,-0.00,-0.00,0.01,56.69,-4.75,-18.38
2026-06-27 11:32:54.102,0.04,0.37,9.36,0.00,-0.00,0.00,57.38,-5.06,-17.25
2026-06-27 11:32:54.115,0.06,0.38,9.37,-0.00,-0.00,0.00,57.38,-5.06,-17.25
2026-06-27 11:32:54.132,0.03,0.38,9.35,-0.00,0.00,0.00,57.38,-5.06,-17.25
2026-06-27 11:32:54.144,0.05,0.40,9.38,-0.00,0.01,0.00,57.00,-5.06,-17.69
2026-06-27 11:32:54.162,0.04,0.38,9.37,-0.00,0.00,-0.00,57.00,-5.06,-17.69
2026-06-27 11:32:54.174,0.03,0.37,9.36,-0.00,0.00,0.00,57.00,-5.06,-17.69
2026-06-27 11:32:54.186,0.04,0.35,9.38,-0.00,0.00,0.00,57.00,-5.06,-17.69
2026-06-27 11:32:54.203,0.06,0.37,9.37,0.00,0.00,0.00,57.69,-5.88,-17.25
2026-06-27 11:32:54.216,0.02,0.36,9.36,-0.00,0.00,0.00,57.69,-5.88,-17.25
2026-06-27 11:32:54.233,0.05,0.37,9.35,-0.00,0.01,0.00,57.69,-5.88,-17.25
2026-06-27 11:32:54.245,0.02,0.40,9.35,-0.00,0.00,-0.00,58.06,-5.50,-17.69
2026-06-27 11:32:54.262,0.02,0.39,9.35,0.00,0.01,0.00,58.06,-5.50,-17.69
2026-06-27 11:32:54.274,0.00,0.39,9.35,-0.00,0.01,0.00,58.06,-5.50,-17.69
2026-06-27 11:32:54.287,0.00,0.36,9.36,0.00,0.00,0.00,58.06,-5.50,-17.69
2026-06-27 11:32:54.303,0.02,0.35,9.36,0.00,0.00,0.00,57.25,-5.88,-18.38
2026-06-27 11:32:54.316,0.02,0.36,9.38,-0.00,0.00,0.00,57.25,-5.88,-18.38
2026-06-27 11:32:54.333,0.02,0.38,9.33,-0.00,0.00,-0.00,57.25,-5.88,-18.38
2026-06-27 11:32:54.345,0.00,0.38,9.37,0.00,0.00,0.00,58.06,-5.88,-17.69
2026-06-27 11:32:54.362,-0.01,0.41,9.36,-0.00,-0.00,0.00,58.06,-5.88,-17.69
2026-06-27 11:32:54.375,0.00,0.40,9.36,0.00,-0.00,0.00,58.06,-5.88,-17.69
2026-06-27 11:32:54.389,0.00,0.41,9.39,0.00,-0.00,0.00,58.06,-5.88,-17.69
2026-06-27 11:32:54.403,0.00,0.38,9.39,0.00,-0.01,0.00,58.50,-5.06,-17.69
2026-06-27 11:32:54.416,0.00,0.39,9.36,-0.00,-0.00,0.00,58.50,-5.06,-17.69
2026-06-27 11:32:54.434,-0.01,0.39,9.37,-0.00,-0.00,0.00,58.50,-5.06,-17.69
2026-06-27 11:32:54.448,-0.03,0.41,9.36,0.00,-0.01,-0.00,57.69,-5.50,-16.88
2026-06-27 11:32:54.464,0.00,0.43,9.36,-0.00,-0.01,0.00,57.69,-5.50,-16.88
2026-06-27 11:32:54.476,0.01,0.40,9.37,-0.00,-0.01,0.00,57.69,-5.50,-16.88
2026-06-27 11:32:54.489,0.00,0.40,9.36,0.00,-0.01,0.00,57.69,-5.50,-16.88
2026-06-27 11:32:54.503,0.03,0.41,9.37,-0.00,-0.01,-0.00,57.00,-5.06,-18.38
2026-06-27 11:32:54.516,0.04,0.39,9.35,-0.00,-0.01,0.00,57.00,-5.06,-18.38
2026-06-27 11:32:54.533,0.03,0.42,9.33,0.00,-0.01,-0.00,57.00,-5.06,-18.38
2026-06-27 11:32:54.546,0.03,0.40,9.36,0.00,-0.01,0.00,58.75,-5.50,-17.69
2026-06-27 11:32:54.563,0.03,0.41,9.39,-0.00,-0.01,0.00,58.75,-5.50,-17.69
2026-06-27 11:32:54.575,0.01,0.38,9.36,-0.00,-0.01,0.00,58.75,-5.50,-17.69
2026-06-27 11:32:54.588,0.02,0.38,9.35,-0.00,-0.01,0.00,58.75,-5.50,-17.69
2026-06-27 11:32:54.603,0.03,0.38,9.35,-0.00,-0.01,0.00,58.06,-5.06,-18.06
2026-06-27 11:32:54.616,0.04,0.38,9.37,-0.00,-0.01,0.00,58.06,-5.06,-18.06
2026-06-27 11:32:54.633,0.02,0.38,9.36,-0.00,-0.01,0.00,58.06,-5.06,-18.06
2026-06-27 11:32:54.646,0.08,0.38,9.37,-0.00,-0.01,-0.00,57.38,-5.50,-17.69
2026-06-27 11:32:54.663,0.06,0.40,9.37,0.00,-0.01,0.00,57.38,-5.50,-17.69
2026-06-27 11:32:54.675,0.05,0.38,9.35,0.00,-0.01,0.00,57.38,-5.50,-17.69
2026-06-27 11:32:54.688,0.04,0.39,9.38,0.00,-0.01,0.00,57.38,-5.50,-17.69
2026-06-27 11:32:54.703,0.05,0.37,9.37,-0.00,-0.00,0.00,57.38,-5.06,-18.06
2026-06-27 11:32:54.716,0.04,0.38,9.37,-0.00,-0.00,0.00,57.38,-5.06,-18.06
2026-06-27 11:32:54.734,0.03,0.38,9.38,-0.00,-0.00,0.00,57.38,-5.06,-18.06
2026-06-27 11:32:54.746,0.00,0.35,9.40,0.00,-0.01,0.00,57.69,-5.50,-16.38
2026-06-27 11:32:54.763,0.00,0.38,9.38,0.00,-0.00,0.00,57.69,-5.50,-16.38
2026-06-27 11:32:54.776,0.02,0.36,9.35,-0.00,-0.01,0.00,57.69,-5.50,-16.38
2026-06-27 11:32:54.788,0.00,0.36,9.37,0.00,-0.01,0.00,57.69,-5.50,-16.38
2026-06-27 11:32:54.804,0.02,0.38,9.37,0.00,-0.01,0.00,57.25,-4.75,-18.06
2026-06-27 11:32:54.817,0.00,0.39,9.36,-0.00,-0.01,-0.00,57.25,-4.75,-18.06
2026-06-27 11:32:54.834,0.00,0.41,9.35,-0.00,-0.01,0.00,57.25,-4.75,-18.06
2026-06-27 11:32:54.846,0.00,0.38,9.37,-0.00,-0.01,0.00,57.69,-5.06,-18.38
2026-06-27 11:32:54.864,0.02,0.38,9.34,-0.00,-0.01,0.00,57.69,-5.06,-18.38
2026-06-27 11:32:54.883,0.00,0.38,9.37,-0.00,-0.01,0.00,57.69,-5.06,-18.38
2026-06-27 11:32:54.896,0.03,0.40,9.36,-0.00,-0.01,0.00,57.69,-6.25,-18.06
2026-06-27 11:32:54.911,0.03,0.39,9.38,-0.00,-0.01,0.00,57.69,-6.25,-18.06
2026-06-27 11:32:54.925,0.03,0.39,9.33,-0.00,-0.01,-0.00,57.69,-6.25,-18.06
2026-06-27 11:32:54.938,0.00,0.40,9.36,-0.00,-0.01,-0.00,57.69,-6.25,-18.06
2026-06-27 11:32:54.954,0.04,0.42,9.37,-0.00,-0.01,0.00,58.06,-5.06,-17.25
2026-06-27 11:32:54.966,0.04,0.40,9.35,-0.00,-0.02,0.00,58.06,-5.06,-17.25
2026-06-27 11:32:54.984,0.04,0.39,9.36,0.00,-0.01,0.00,58.06,-5.06,-17.25
2026-06-27 11:32:54.997,0.03,0.39,9.36,0.00,-0.01,0.00,57.69,-5.50,-17.69
2026-06-27 11:32:55.014,0.03,0.37,9.37,0.00,-0.01,0.00,57.69,-5.50,-17.69
2026-06-27 11:32:55.027,0.04,0.38,9.34,0.00,-0.01,-0.00,57.69,-5.50,-17.69
2026-06-27 11:32:55.039,0.05,0.40,9.35,-0.00,-0.01,-0.00,57.69,-5.50,-17.69
2026-06-27 11:32:55.054,0.03,0.39,9.36,-0.00,-0.01,0.00,57.00,-5.50,-17.69
2026-06-27 11:32:55.066,0.03,0.39,9.35,0.00,-0.01,0.00,57.00,-5.50,-17.69
2026-06-27 11:32:55.084,0.04,0.39,9.38,0.00,-0.01,-0.00,57.00,-5.50,-17.69
2026-06-27 11:32:55.097,0.05,0.38,9.36,0.00,-0.01,0.00,58.06,-5.50,-17.25
2026-06-27 11:32:55.114,0.04,0.36,9.39,0.00,-0.01,0.00,58.06,-5.50,-17.25
2026-06-27 11:32:55.127,0.06,0.38,9.35,-0.00,-0.00,-0.00,58.06,-5.50,-17.25
2026-06-27 11:32:55.139,0.06,0.39,9.38,0.00,-0.01,-0.00,58.06,-5.50,-17.25
2026-06-27 11:32:55.154,0.05,0.39,9.36,-0.00,-0.01,0.00,57.00,-6.25,-17.69
2026-06-27 11:32:55.166,0.07,0.37,9.34,0.00,-0.01,0.00,57.00,-6.25,-17.69
2026-06-27 11:32:55.184,0.05,0.36,9.38,-0.00,-0.01,0.00,57.00,-6.25,-17.69
2026-06-27 11:32:55.197,0.07,0.36,9.36,-0.00,-0.00,0.00,57.38,-5.50,-18.50
2026-06-27 11:32:55.214,0.09,0.35,9.39,0.00,-0.00,0.00,57.38,-5.50,-18.50
2026-06-27 11:32:55.226,0.07,0.37,9.35,-0.00,-0.00,0.00,57.38,-5.50,-18.50
2026-06-27 11:32:55.239,0.05,0.40,9.35,0.00,0.00,-0.00,57.38,-5.50,-18.50
2026-06-27 11:32:55.255,0.07,0.37,9.36,-0.00,-0.00,0.00,56.69,-5.50,-18.38
2026-06-27 11:32:55.267,0.05,0.39,9.34,0.00,0.00,0.00,56.69,-5.50,-18.38
2026-06-27 11:32:55.284,0.05,0.36,9.35,0.00,0.00,0.00,56.69,-5.50,-18.38
2026-06-27 11:32:55.297,0.07,0.38,9.36,0.00,0.00,0.00,57.69,-4.75,-18.06
2026-06-27 11:32:55.314,0.07,0.38,9.38,-0.00,0.00,-0.00,57.69,-4.75,-18.06
2026-06-27 11:32:55.327,0.04,0.39,9.35,0.00,0.00,-0.00,57.69,-4.75,-18.06
2026-06-27 11:32:55.340,0.04,0.38,9.35,-0.00,0.00,0.00,57.69,-4.75,-18.06
2026-06-27 11:32:55.355,0.05,0.39,9.35,0.00,0.00,0.00,57.38,-5.06,-18.06
2026-06-27 11:32:55.368,0.02,0.38,9.35,0.00,0.00,0.00,57.38,-5.06,-18.06
2026-06-27 11:32:55.385,0.01,0.36,9.35,0.00,0.00,0.00,57.38,-5.06,-18.06
2026-06-27 11:32:55.397,0.01,0.37,9.38,0.00,0.01,0.00,58.06,-4.38,-17.25
2026-06-27 11:32:55.414,0.01,0.39,9.37,0.00,0.00,0.00,58.06,-4.38,-17.25
2026-06-27 11:32:55.427,0.00,0.37,9.36,0.00,-0.00,-0.00,58.06,-4.38,-17.25
2026-06-27 11:32:55.440,0.01,0.37,9.37,0.00,-0.01,0.00,58.06,-4.38,-17.25
2026-06-27 11:32:55.456,0.01,0.41,9.36,0.00,-0.00,0.00,56.69,-6.25,-18.06
2026-06-27 11:32:55.468,0.04,0.40,9.34,0.00,-0.00,0.00,56.69,-6.25,-18.06
2026-06-27 11:32:55.485,0.01,0.40,9.35,0.00,-0.00,0.00,56.69,-6.25,-18.06
2026-06-27 11:32:55.497,0.03,0.38,9.38,-0.00,-0.01,0.00,57.38,-4.75,-18.38
2026-06-27 11:32:55.515,0.01,0.41,9.37,-0.00,-0.01,0.00,57.38,-4.75,-18.38
2026-06-27 11:32:55.527,0.05,0.40,9.34,0.00,-0.00,-0.00,57.38,-4.75,-18.38
2026-06-27 11:32:55.540,0.01,0.39,9.34,0.00,-0.01,0.00,57.38,-4.75,-18.38
2026-06-27 11:32:55.556,0.03,0.39,9.36,0.00,-0.01,0.00,57.69,-5.50,-18.06
2026-06-27 11:32:55.568,0.04,0.37,9.34,0.00,-0.01,0.00,57.69,-5.50,-18.06
2026-06-27 11:32:55.585,0.02,0.39,9.36,-0.00,-0.01,0.00,57.69,-5.50,-18.06
2026-06-27 11:32:55.597,0.04,0.40,9.36,-0.00,-0.01,-0.00,57.25,-5.06,-18.38
2026-06-27 11:32:55.615,0.04,0.39,9.37,-0.00,-0.01,-0.00,57.25,-5.06,-18.38
2026-06-27 11:32:55.628,0.03,0.40,9.34,0.00,-0.01,0.00,57.25,-5.06,-18.38
2026-06-27 11:32:55.640,0.04,0.40,9.35,0.00,-0.01,0.00,57.25,-5.06,-18.38
2026-06-27 11:32:55.656,0.06,0.40,9.37,0.00,-0.01,-0.00,57.69,-5.50,-18.88
2026-06-27 11:32:55.668,0.07,0.44,9.33,0.00,-0.01,-0.00,57.69,-5.50,-18.88
2026-06-27 11:32:55.686,0.06,0.39,9.38,0.00,-0.01,-0.00,57.69,-5.50,-18.88
2026-06-27 11:32:55.699,0.07,0.40,9.35,-0.00,-0.01,0.00,57.38,-5.06,-17.69
2026-06-27 11:32:55.716,0.08,0.40,9.37,-0.00,-0.01,-0.00,57.38,-5.06,-17.69
2026-06-27 11:32:55.728,0.07,0.38,9.37,0.00,-0.00,0.00,57.38,-5.06,-17.69
2026-06-27 11:32:55.740,0.08,0.38,9.39,-0.00,-0.00,0.00,57.38,-5.06,-17.69
2026-06-27 11:32:55.756,0.06,0.39,9.37,-0.00,-0.00,-0.00,58.06,-5.88,-18.88
2026-06-27 11:32:55.768,0.07,0.37,9.36,0.00,-0.00,0.00,58.06,-5.88,-18.88
2026-06-27 11:32:55.786,0.07,0.39,9.37,0.00,-0.01,-0.00,58.06,-5.88,-18.88
2026-06-27 11:32:55.798,0.05,0.37,9.38,0.00,0.00,0.00,56.25,-5.50,-19.69
2026-06-27 11:32:55.816,0.06,0.37,9.38,0.00,-0.00,-0.00,56.25,-5.50,-19.69
2026-06-27 11:32:55.828,0.07,0.38,9.37,0.00,-0.00,0.00,56.25,-5.50,-19.69
2026-06-27 11:32:55.840,0.07,0.36,9.39,0.00,0.00,-0.00,56.25,-5.50,-19.69
2026-06-27 11:32:55.857,0.08,0.37,9.39,0.00,-0.00,0.00,57.38,-5.50,-18.88
2026-06-27 11:32:55.869,0.05,0.38,9.34,0.00,0.00,-0.00,57.38,-5.50,-18.88
2026-06-27 11:32:55.886,0.06,0.37,9.35,0.00,0.01,0.00,57.38,-5.50,-18.88
2026-06-27 11:32:55.899,0.07,0.37,9.35,0.00,0.00,0.00,57.69,-5.06,-18.88
2026-06-27 11:32:55.916,0.05,0.38,9.37,0.00,0.00,0.00,57.69,-5.06,-18.88
2026-06-27 11:32:55.928,0.05,0.38,9.37,-0.00,0.00,0.00,57.69,-5.06,-18.88
2026-06-27 11:32:55.941,0.05,0.40,9.34,-0.00,0.00,-0.00,57.69,-5.06,-18.88
2026-06-27 11:32:55.957,0.05,0.38,9.35,-0.00,0.00,0.00,57.00,-5.88,-19.25
2026-06-27 11:32:55.970,0.04,0.38,9.36,0.00,0.00,0.00,57.00,-5.88,-19.25
2026-06-27 11:32:55.986,0.06,0.36,9.35,0.00,0.00,0.00,57.00,-5.88,-19.25
2026-06-27 11:32:55.999,0.05,0.37,9.38,0.00,-0.00,-0.00,57.00,-5.50,-18.88
2026-06-27 11:32:56.016,0.04,0.37,9.36,0.00,-0.00,-0.00,57.00,-5.50,-18.88
2026-06-27 11:32:56.028,0.05,0.38,9.35,0.00,0.00,-0.00,57.00,-5.50,-18.88
2026-06-27 11:32:56.041,0.06,0.41,9.36,0.00,0.00,-0.00,57.00,-5.50,-18.88
2026-06-27 11:32:56.057,0.07,0.40,9.36,0.00,0.00,0.00,57.69,-5.88,-18.06
2026-06-27 11:32:56.069,0.05,0.40,9.33,0.00,0.00,-0.00,57.69,-5.88,-18.06
2026-06-27 11:32:56.087,0.05,0.40,9.36,0.00,0.00,0.00,57.69,-5.88,-18.06
2026-06-27 11:32:56.099,0.06,0.42,9.36,0.00,0.00,0.00,57.38,-5.06,-17.25
2026-06-27 11:32:56.118,0.09,0.39,9.36,0.00,0.00,-0.00,57.38,-5.06,-17.25
2026-06-27 11:32:56.130,0.06,0.39,9.37,0.00,0.01,-0.00,57.38,-5.06,-17.25
2026-06-27 11:32:56.143,0.05,0.40,9.37,0.00,0.00,-0.00,57.38,-5.06,-17.25
2026-06-27 11:32:56.157,0.06,0.39,9.39,-0.00,0.00,0.00,57.00,-5.06,-18.38
2026-06-27 11:32:56.170,0.06,0.39,9.37,0.00,0.01,-0.00,57.00,-5.06,-18.38
2026-06-27 11:32:56.187,0.04,0.38,9.36,0.00,0.00,0.00,57.00,-5.06,-18.38
2026-06-27 11:32:56.200,0.05,0.39,9.36,0.00,0.00,0.00,57.38,-5.06,-17.69
2026-06-27 11:32:56.217,0.03,0.35,9.35,0.00,0.01,-0.00,57.38,-5.06,-17.69
2026-06-27 11:32:56.230,0.04,0.37,9.35,0.00,0.00,0.00,57.38,-5.06,-17.69
2026-06-27 11:32:56.245,0.05,0.36,9.36,0.00,0.01,-0.00,57.38,-5.06,-17.69
2026-06-27 11:32:56.264,0.04,0.39,9.36,0.00,0.01,-0.00,57.69,-6.25,-18.06
2026-06-27 11:32:56.279,0.05,0.37,9.38,0.00,0.01,-0.00,57.69,-6.25,-18.06
2026-06-27 11:32:56.292,0.03,0.39,9.36,0.00,0.00,0.00,57.69,-6.25,-18.06
2026-06-27 11:32:56.308,0.04,0.40,9.36,0.00,0.00,0.00,57.38,-5.06,-17.69
2026-06-27 11:32:56.323,0.02,0.38,9.35,0.00,0.01,0.00,57.38,-5.06,-17.69
2026-06-27 11:32:56.338,0.02,0.37,9.40,0.00,0.00,0.00,57.38,-5.06,-17.69
2026-06-27 11:32:56.354,0.02,0.37,9.36,0.00,0.00,0.00,58.06,-5.06,-17.69
2026-06-27 11:32:56.368,0.02,0.38,9.34,-0.00,0.00,0.00,58.06,-5.06,-17.69
2026-06-27 11:32:56.381,0.04,0.38,9.37,0.00,0.00,-0.00,58.06,-5.06,-17.69
2026-06-27 11:32:56.393,0.01,0.38,9.36,-0.00,0.00,0.00,58.06,-5.06,-17.69
2026-06-27 11:32:56.409,0.01,0.36,9.36,-0.00,0.00,0.00,56.25,-5.50,-17.69
2026-06-27 11:32:56.427,0.00,0.36,9.33,0.00,-0.00,0.00,56.25,-5.50,-17.69
2026-06-27 11:32:56.440,0.02,0.37,9.37,0.00,-0.01,0.00,56.25,-5.50,-17.69
2026-06-27 11:32:56.457,0.01,0.39,9.37,0.00,-0.00,0.00,58.50,-5.50,-18.06
2026-06-27 11:32:56.470,0.02,0.40,9.35,-0.00,-0.00,-0.00,58.50,-5.50,-18.06
2026-06-27 11:32:56.488,0.03,0.41,9.36,0.00,-0.00,0.00,58.50,-5.50,-18.06
2026-06-27 11:32:56.500,0.02,0.41,9.37,-0.00,-0.00,0.00,57.69,-4.75,-17.69
2026-06-27 11:32:56.517,0.03,0.39,9.36,0.00,-0.00,0.00,57.69,-4.75,-17.69
2026-06-27 11:32:56.530,0.03,0.42,9.36,-0.00,-0.00,0.00,57.69,-4.75,-17.69
2026-06-27 11:32:56.542,0.03,0.40,9.38,0.00,-0.00,0.00,57.69,-4.75,-17.69
2026-06-27 11:32:56.557,0.05,0.43,9.34,-0.00,-0.01,-0.00,57.25,-5.88,-17.25
2026-06-27 11:32:56.570,0.03,0.39,9.35,0.00,-0.00,0.00,57.25,-5.88,-17.25
2026-06-27 11:32:56.588,0.01,0.37,9.38,0.00,-0.00,0.00,57.25,-5.88,-17.25
2026-06-27 11:32:56.600,0.05,0.37,9.37,0.00,-0.00,-0.00,58.06,-5.88,-18.06
2026-06-27 11:32:56.618,0.04,0.39,9.34,0.00,-0.00,-0.00,58.06,-5.88,-18.06
2026-06-27 11:32:56.630,0.04,0.39,9.37,0.00,-0.00,0.00,58.06,-5.88,-18.06
2026-06-27 11:32:56.642,0.03,0.37,9.37,0.00,0.00,0.00,58.06,-5.88,-18.06
2026-06-27 11:32:56.658,0.03,0.41,9.38,-0.00,-0.00,0.00,57.69,-5.50,-18.88
2026-06-27 11:32:56.671,0.05,0.39,9.35,0.00,0.00,-0.00,57.69,-5.50,-18.88
2026-06-27 11:32:56.688,0.02,0.39,9.34,0.00,0.00,0.00,57.69,-5.50,-18.88
2026-06-27 11:32:56.700,0.06,0.38,9.37,0.00,0.00,0.00,58.50,-5.06,-18.88
2026-06-27 11:32:56.718,0.05,0.39,9.39,-0.00,0.00,0.00,58.50,-5.06,-18.88
2026-06-27 11:32:56.731,0.07,0.37,9.34,0.00,0.00,0.00,58.50,-5.06,-18.88
2026-06-27 11:32:56.743,0.05,0.37,9.38,0.00,0.00,-0.00,58.50,-5.06,-18.88
2026-06-27 11:32:56.758,0.03,0.35,9.35,0.00,0.00,-0.00,57.00,-5.50,-18.88
2026-06-27 11:32:56.773,0.03,0.38,9.34,-0.00,0.00,0.00,57.00,-5.50,-18.88
2026-06-27 11:32:56.788,0.03,0.37,9.36,0.00,0.00,0.00,57.00,-5.50,-18.88
2026-06-27 11:32:56.801,0.04,0.37,9.37,0.00,-0.00,0.00,57.69,-5.50,-18.38
2026-06-27 11:32:56.818,0.02,0.37,9.36,0.00,0.00,0.00,57.69,-5.50,-18.38
2026-06-27 11:32:56.831,0.04,0.40,9.36,0.00,0.00,0.00,57.69,-5.50,-18.38
2026-06-27 11:32:56.843,0.05,0.40,9.40,0.00,0.00,0.00,57.69,-5.50,-18.38
2026-06-27 11:32:56.858,0.04,0.38,9.33,0.00,0.00,-0.00,57.69,-5.06,-18.88
2026-06-27 11:32:56.872,0.02,0.38,9.32,0.00,0.00,0.00,57.69,-5.06,-18.88
2026-06-27 11:32:56.888,0.02,0.40,9.34,0.00,-0.00,-0.00,57.69,-5.06,-18.88
2026-06-27 11:32:56.901,0.01,0.39,9.37,0.00,0.00,0.00,57.38,-5.06,-18.38
2026-06-27 11:32:56.918,0.02,0.40,9.37,0.00,0.00,-0.00,57.38,-5.06,-18.38
2026-06-27 11:32:56.931,0.04,0.40,9.38,-0.00,0.00,0.00,57.38,-5.06,-18.38
2026-06-27 11:32:56.943,0.02,0.38,9.39,0.00,-0.00,0.00,57.38,-5.06,-18.38
2026-06-27 11:32:56.958,0.01,0.38,9.37,0.00,0.00,0.00,57.00,-5.06,-18.06
2026-06-27 11:32:56.972,0.03,0.37,9.36,0.00,-0.00,-0.00,57.00,-5.06,-18.06
2026-06-27 11:32:56.989,0.03,0.37,9.37,0.00,-0.00,0.00,57.00,-5.06,-18.06
2026-06-27 11:32:56.001,0.01,0.41,9.38,0.00,0.00,0.00,58.06,-5.88,-18.38
2026-06-27 11:32:57.018,0.03,0.36,9.35,-0.00,0.00,0.00,58.06,-5.88,-18.38
2026-06-27 11:32:57.031,0.01,0.39,9.33,-0.00,0.00,0.00,58.06,-5.88,-18.38
2026-06-27 11:32:57.044,0.03,0.39,9.41,0.00,-0.00,0.00,58.06,-5.88,-18.38
2026-06-27 11:32:57.059,0.01,0.40,9.38,0.00,0.00,0.00,57.69,-5.50,-18.50
2026-06-27 11:32:57.071,0.02,0.41,9.37,0.00,0.00,-0.00,57.69,-5.50,-18.50
2026-06-27 11:32:57.089,0.04,0.38,9.35,0.00,-0.01,0.00,57.69,-5.50,-18.50
2026-06-27 11:32:57.103,0.03,0.38,9.36,0.00,-0.00,0.00,56.69,-5.50,-18.88
2026-06-27 11:32:57.119,0.02,0.40,9.35,-0.00,-0.00,-0.00,56.69,-5.50,-18.88
2026-06-27 11:32:57.131,0.02,0.39,9.36,0.00,0.00,-0.00,56.69,-5.50,-18.88
2026-06-27 11:32:57.144,0.03,0.38,9.37,-0.00,-0.00,0.00,56.69,-5.50,-18.88
2026-06-27 11:32:57.159,0.01,0.38,9.37,-0.00,-0.00,-0.00,58.06,-5.06,-18.38
2026-06-27 11:32:57.171,0.04,0.38,9.33,0.00,-0.00,0.00,58.06,-5.06,-18.38
2026-06-27 11:32:57.188,0.05,0.38,9.34,0.00,0.00,-0.00,58.06,-5.06,-18.38
2026-06-27 11:32:57.203,0.00,0.39,9.38,0.00,-0.00,0.00,57.38,-5.06,-18.88
2026-06-27 11:32:57.219,0.03,0.38,9.37,0.00,-0.00,0.00,57.38,-5.06,-18.88
2026-06-27 11:32:57.231,0.02,0.40,9.37,0.00,0.00,0.00,57.38,-5.06,-18.88
2026-06-27 11:32:57.245,0.01,0.40,9.37,-0.00,0.00,0.00,57.38,-5.06,-18.88
2026-06-27 11:32:57.260,0.02,0.41,9.36,-0.00,0.00,0.00,57.69,-5.06,-18.50
2026-06-27 11:32:57.273,0.03,0.39,9.34,-0.00,0.00,0.00,57.69,-5.06,-18.50
2026-06-27 11:32:57.289,0.03,0.38,9.37,0.00,-0.00,0.00,57.69,-5.06,-18.50
2026-06-27 11:32:57.302,0.02,0.37,9.38,0.00,-0.00,-0.00,58.06,-4.38,-18.06
2026-06-27 11:32:57.319,0.01,0.37,9.36,0.00,-0.00,-0.00,58.06,-4.38,-18.06
2026-06-27 11:32:57.332,0.00,0.40,9.34,0.00,-0.00,0.00,58.06,-4.38,-18.06
2026-06-27 11:32:57.345,0.01,0.40,9.39,0.00,-0.00,0.00,58.06,-4.38,-18.06
2026-06-27 11:32:57.360,0.03,0.37,9.39,-0.00,0.00,0.00,58.06,-5.06,-18.88
2026-06-27 11:32:57.374,0.02,0.41,9.34,0.00,-0.00,0.00,58.06,-5.06,-18.88
2026-06-27 11:32:57.390,0.01,0.37,9.37,0.00,-0.00,0.00,58.06,-5.06,-18.88
