timestamp,accel_x,accel_y,accel_z,gyro_x,gyro_y,gyro_z,mag_x,mag_y,mag_z
2026-06-27 11:34:19.426,0.00,0.00,0.00,0.00,0.00,0.00,0.00,0.00,0.00
2026-06-27 11:34:19.441,0.18,0.73,10.10,-0.00,-0.01,-0.00,76.06,-23.56,-23.38
2026-06-27 11:34:19.459,0.16,0.75,9.63,-0.00,0.00,0.00,76.06,-23.56,-23.38
2026-06-27 11:34:19.477,0.17,0.74,9.67,-0.00,-0.00,0.00,76.06,-23.56,-23.38
2026-06-27 11:34:19.492,0.19,0.73,9.69,-0.00,0.00,-0.00,76.06,-23.56,-23.38
2026-06-27 11:34:19.508,0.18,0.75,9.65,-0.00,-0.00,0.00,76.06,-23.56,-23.38
2026-06-27 11:34:19.521,0.17,0.75,9.68,-0.00,0.00,-0.00,76.06,-23.56,-23.38
2026-06-27 11:34:19.537,0.17,0.75,9.67,-0.00,0.00,0.00,76.06,-22.50,-23.75
2026-06-27 11:34:19.549,0.20,0.75,9.63,-0.00,-0.00,0.00,76.06,-22.50,-23.75
2026-06-27 11:34:19.567,0.18,0.75,9.68,-0.00,-0.00,0.00,76.06,-22.50,-23.75
2026-06-27 11:34:19.583,0.17,0.74,9.68,-0.00,-0.00,0.00,75.38,-21.75,-23.38
2026-06-27 11:34:19.597,0.19,0.73,9.69,-0.00,0.00,0.00,75.38,-21.75,-23.38
2026-06-27 11:34:19.610,0.16,0.75,9.67,-0.00,0.00,0.00,75.38,-21.75,-23.38
2026-06-27 11:34:19.626,0.17,0.74,9.70,-0.00,-0.00,0.00,75.38,-21.75,-23.38
2026-06-27 11:34:19.639,0.19,0.74,9.71,-0.00,0.00,-0.00,75.38,-22.06,-22.88
2026-06-27 11:34:19.654,0.18,0.73,9.68,-0.00,0.00,-0.00,75.38,-22.06,-22.88
2026-06-27 11:34:19.668,0.18,0.76,9.69,-0.00,0.00,0.00,75.38,-22.06,-22.88
2026-06-27 11:34:19.684,0.19,0.75,9.69,-0.00,-0.00,0.00,75.38,-22.50,-23.38
2026-06-27 11:34:19.697,0.18,0.74,9.68,-0.00,0.00,0.00,75.38,-22.50,-23.38
2026-06-27 11:34:19.710,0.20,0.75,9.66,-0.00,0.00,0.00,75.38,-22.50,-23.38
2026-06-27 11:34:19.727,0.17,0.76,9.68,-0.01,-0.00,0.00,75.75,-22.50,-23.69
2026-06-27 11:34:19.740,0.18,0.76,9.67,-0.00,0.00,0.00,75.75,-22.50,-23.69
2026-06-27 11:34:19.757,0.16,0.76,9.68,-0.00,0.00,-0.00,75.75,-22.50,-23.69
2026-06-27 11:34:19.769,0.19,0.74,9.69,-0.00,0.00,0.00,75.75,-22.50,-23.69
2026-06-27 11:34:19.785,0.18,0.75,9.69,-0.00,-0.00,0.00,75.38,-22.06,-22.19
2026-06-27 11:34:19.798,0.19,0.75,9.67,-0.00,-0.00,0.00,75.38,-22.06,-22.19
2026-06-27 11:34:19.810,0.17,0.76,9.68,-0.00,0.00,0.00,75.38,-22.06,-22.19
2026-06-27 11:34:19.827,0.16,0.75,9.69,-0.00,-0.00,0.00,75.38,-22.06,-22.19
2026-06-27 11:34:19.839,0.18,0.77,9.69,-0.00,-0.00,-0.00,76.00,-22.50,-22.50
2026-06-27 11:34:19.857,0.17,0.75,9.68,-0.00,-0.01,-0.00,76.00,-22.50,-22.50
2026-06-27 11:34:19.869,0.16,0.76,9.71,-0.00,0.00,-0.00,76.00,-22.50,-22.50
2026-06-27 11:34:19.882,0.20,0.75,9.68,-0.00,0.00,0.00,76.38,-22.06,-22.19
2026-06-27 11:34:19.897,0.18,0.77,9.72,-0.00,0.00,0.00,76.38,-22.06,-22.19
2026-06-27 11:34:19.910,0.19,0.76,9.67,-0.00,0.00,0.00,76.38,-22.06,-22.19
2026-06-27 11:34:19.923,0.17,0.75,9.67,-0.00,0.00,0.00,76.38,-22.06,-22.19
2026-06-27 11:34:19.938,0.18,0.75,9.69,-0.00,-0.00,0.00,75.69,-22.06,-23.00
2026-06-27 11:34:19.951,0.19,0.76,9.67,-0.01,-0.00,0.00,75.69,-22.06,-23.00
2026-06-27 11:34:19.968,0.18,0.76,9.69,-0.00,-0.00,-0.00,75.69,-22.06,-23.00
2026-06-27 11:34:19.980,0.18,0.75,9.71,-0.00,0.00,0.00,75.25,-22.50,-22.19
2026-06-27 11:34:19.997,0.17,0.74,9.69,-0.00,0.00,-0.00,75.25,-22.50,-22.19
2026-06-27 11:34:20.010,0.17,0.76,9.67,-0.00,-0.00,0.00,75.25,-22.50,-22.19
2026-06-27 11:34:20.023,0.18,0.74,9.68,-0.00,0.00,-0.00,75.25,-22.50,-22.19
2026-06-27 11:34:20.038,0.16,0.73,9.69,-0.00,-0.00,0.00,76.38,-22.06,-22.19
2026-06-27 11:34:20.051,0.18,0.75,9.66,-0.00,-0.00,-0.00,76.38,-22.06,-22.19
2026-06-27 11:34:20.068,0.18,0.75,9.68,-0.00,-0.00,0.00,76.38,-22.06,-22.19
2026-06-27 11:34:20.080,0.17,0.74,9.68,-0.00,-0.01,0.00,76.00,-22.06,-23.00
2026-06-27 11:34:20.097,0.17,0.76,9.67,0.00,0.00,0.00,76.00,-22.06,-23.00
2026-06-27 11:34:20.111,0.17,0.76,9.68,0.00,-0.00,0.00,76.00,-22.06,-23.00
2026-06-27 11:34:20.123,0.16,0.75,9.70,0.00,0.00,-0.00,76.00,-22.06,-23.00
2026-06-27 11:34:20.138,0.16,0.75,9.69,0.00,-0.00,-0.00,74.50,-22.50,-22.19
2026-06-27 11:34:20.151,0.18,0.76,9.67,0.00,-0.00,-0.00,74.50,-22.50,-22.19
2026-06-27 11:34:20.168,0.20,0.76,9.67,0.00,-0.00,0.00,74.50,-22.50,-22.19
2026-06-27 11:34:20.181,0.19,0.75,9.69,0.00,-0.00,-0.00,75.69,-21.75,-23.00
2026-06-27 11:34:20.198,0.18,0.74,9.67,0.00,-0.00,-0.00,75.69,-21.75,-23.00
2026-06-27 11:34:20.210,0.17,0.74,9.68,0.00,0.00,-0.00,75.69,-21.75,-23.00
2026-06-27 11:34:20.226,0.18,0.75,9.67,0.00,0.00,0.00,75.69,-21.75,-23.00
2026-06-27 11:34:20.239,0.16,0.74,9.67,0.00,0.00,0.00,74.88,-22.50,-23.00
2026-06-27 11:34:20.255,0.17,0.76,9.68,-0.00,0.00,0.00,74.88,-22.50,-23.00
2026-06-27 11:34:20.269,0.18,0.75,9.68,-0.00,0.00,0.00,74.88,-22.50,-23.00
2026-06-27 11:34:20.284,0.18,0.75,9.68,0.00,-0.00,0.00,76.00,-22.50,-23.00
2026-06-27 11:34:20.299,0.18,0.74,9.68,0.00,0.00,0.00,76.00,-22.50,-23.00
2026-06-27 11:34:20.312,0.19,0.74,9.66,0.00,0.00,0.00,76.00,-22.50,-23.00
2026-06-27 11:34:20.324,0.19,0.75,9.67,-0.00,0.00,0.00,76.00,-22.50,-23.00
2026-06-27 11:34:20.339,0.18,0.75,9.69,0.00,-0.00,0.00,75.25,-22.06,-20.88
2026-06-27 11:34:20.352,0.18,0.77,9.68,0.00,0.00,-0.00,75.25,-22.06,-20.88
2026-06-27 11:34:20.369,0.17,0.75,9.67,-0.00,0.00,-0.00,75.25,-22.06,-20.88
2026-06-27 11:34:20.381,0.17,0.77,9.67,-0.00,0.01,-0.00,75.69,-21.75,-22.50
2026-06-27 11:34:20.398,0.18,0.75,9.70,0.00,0.00,-0.00,75.69,-21.75,-22.50
2026-06-27 11:34:20.424,0.18,0.75,9.68,-0.00,0.00,0.00,75.69,-21.75,-22.50
2026-06-27 11:34:20.439,0.19,0.76,9.68,0.00,0.00,0.00,75.69,-22.06,-21.69
2026-06-27 11:34:20.458,0.18,0.75,9.67,0.00,0.00,-0.00,75.69,-22.06,-21.69
2026-06-27 11:34:20.471,0.17,0.75,9.69,-0.00,-0.00,0.00,75.69,-22.06,-21.69
2026-06-27 11:34:20.489,0.19,0.75,9.69,0.00,0.00,-0.00,75.25,-21.38,-21.38
2026-06-27 11:34:20.502,0.19,0.73,9.68,0.00,0.00,0.00,75.25,-21.38,-21.38
2026-06-27 11:34:20.519,0.19,0.74,9.68,0.00,-0.00,0.00,75.25,-21.38,-21.38
2026-06-27 11:34:20.531,0.19,0.76,9.69,0.00,0.00,-0.00,76.00,-21.75,-22.19
2026-06-27 11:34:20.549,0.17,0.75,9.68,0.00,0.00,-0.00,76.00,-21.75,-22.19
2026-06-27 11:34:20.561,0.19,0.79,9.69,0.00,0.00,0.00,76.00,-21.75,-22.19
2026-06-27 11:34:20.574,0.19,0.74,9.68,0.00,0.01,-0.00,76.00,-21.75,-22.19
2026-06-27 11:34:20.589,0.18,0.75,9.69,0.00,-0.00,0.00,75.69,-21.75,-22.50
2026-06-27 11:34:20.602,0.19,0.75,9.65,-0.00,0.00,0.00,75.69,-21.75,-22.50
2026-06-27 11:34:20.619,0.18,0.74,9.67,-0.00,0.00,0.00,75.69,-21.75,-22.50
2026-06-27 11:34:20.631,0.20,0.76,9.70,-0.00,0.00,0.00,75.25,-22.06,-23.38
2026-06-27 11:34:20.648,0.15,0.77,9.67,0.00,0.00,-0.00,75.25,-22.06,-23.38
2026-06-27 11:34:20.661,0.19,0.74,9.70,0.00,0.00,0.00,75.25,-22.06,-23.38
2026-06-27 11:34:20.675,0.17,0.75,9.67,0.00,0.00,0.00,75.25,-22.06,-23.38
2026-06-27 11:34:20.689,0.16,0.73,9.68,0.00,0.00,0.00,74.88,-22.06,-22.50
2026-06-27 11:34:20.702,0.19,0.77,9.66,0.00,0.00,-0.00,74.88,-22.06,-22.50
2026-06-27 11:34:20.720,0.17,0.76,9.69,0.00,0.00,0.00,74.88,-22.06,-22.50
2026-06-27 11:34:20.732,0.17,0.76,9.68,0.00,-0.00,0.00,75.25,-21.38,-22.19
2026-06-27 11:34:20.750,0.20,0.74,9.68,0.00,-0.00,-0.00,75.25,-21.38,-22.19
2026-06-27 11:34:20.762,0.18,0.76,9.68,-0.00,0.00,0.00,75.25,-21.38,-22.19
2026-06-27 11:34:20.774,0.19,0.76,9.69,-0.00,0.00,0.00,75.25,-21.38,-22.19
2026-06-27 11:34:20.789,0.17,0.75,9.69,-0.00,-0.00,0.00,75.25,-22.06,-22.19
2026-06-27 11:34:20.802,0.19,0.77,9.67,0.00,-0.00,-0.00,75.25,-22.06,-22.19
2026-06-27 11:34:20.820,0.18,0.75,9.67,-0.00,-0.00,0.00,75.25,-22.06,-22.19
2026-06-27 11:34:20.835,0.19,0.75,9.69,0.00,-0.00,0.00,76.00,-22.06,-22.50
2026-06-27 11:34:20.850,0.18,0.75,9.68,-0.00,0.00,0.00,76.00,-22.06,-22.50
2026-06-27 11:34:20.862,0.18,0.75,9.66,0.00,-0.00,0.00,76.00,-22.06,-22.50
2026-06-27 11:34:20.879,0.17,0.70,9.68,-0.00,-0.00,-0.00,76.00,-22.06,-22.50
2026-06-27 11:34:20.891,0.16,0.75,9.74,0.00,-0.00,-0.00,75.00,-22.50,-21.38
2026-06-27 11:34:20.904,0.17,0.73,9.65,0.00,-0.00,0.00,75.00,-22.50,-21.38
2026-06-27 11:34:20.920,0.20,0.76,9.66,-0.00,0.00,0.00,75.00,-22.50,-21.38
2026-06-27 11:34:20.933,0.23,0.74,9.71,0.00,-0.00,-0.00,75.38,-22.88,-22.19
2026-06-27 11:34:20.950,0.16,0.77,9.68,0.00,0.00,0.00,75.38,-22.88,-22.19
2026-06-27 11:34:20.962,0.17,0.76,9.65,0.00,0.00,-0.00,75.38,-22.88,-22.19
2026-06-27 11:34:20.974,0.21,0.76,9.67,0.00,0.00,0.00,75.38,-22.88,-22.19
2026-06-27 11:34:20.990,0.20,0.77,9.67,0.00,0.00,0.00,76.00,-22.06,-22.50
2026-06-27 11:34:20.002,0.16,0.75,9.67,0.00,0.00,0.00,76.00,-22.06,-22.50
2026-06-27 11:34:21.020,0.20,0.75,9.71,-0.00,0.00,0.00,76.00,-22.06,-22.50
2026-06-27 11:34:21.032,0.19,0.77,9.69,0.00,0.01,-0.00,76.00,-21.75,-23.00
2026-06-27 11:34:21.050,0.17,0.78,9.67,0.00,0.00,-0.00,76.00,-21.75,-23.00
2026-06-27 11:34:21.062,0.16,0.74,9.70,0.00,0.00,0.00,76.00,-21.75,-23.00
2026-06-27 11:34:21.075,0.24,0.78,9.68,0.00,0.01,0.00,76.00,-21.75,-23.00
2026-06-27 11:34:21.090,0.23,0.75,9.68,-0.00,0.00,0.00,75.38,-22.88,-23.75
2026-06-27 11:34:21.103,0.12,0.76,9.66,0.00,0.00,-0.00,75.38,-22.88,-23.75
2026-06-27 11:34:21.120,0.15,0.77,9.71,0.00,-0.00,-0.00,75.38,-22.88,-23.75
2026-06-27 11:34:21.133,0.20,0.77,9.68,-0.00,-0.00,-0.00,75.25,-22.88,-22.19
2026-06-27 11:34:21.150,0.19,0.75,9.68,-0.00,-0.00,0.00,75.25,-22.88,-22.19
2026-06-27 11:34:21.163,0.04,0.79,9.75,-0.00,-0.01,0.00,75.25,-22.88,-22.19
2026-06-27 11:34:21.176,0.01,0.76,9.70,-0.00,-0.01,0.00,75.25,-22.88,-22.19
2026-06-27 11:34:21.190,0.11,0.68,9.65,-0.00,-0.01,0.00,76.75,-22.50,-24.19
2026-06-27 11:34:21.204,0.22,0.77,9.69,0.00,-0.01,-0.00,76.75,-22.50,-24.19
2026-06-27 11:34:21.220,0.20,0.70,9.66,0.00,-0.01,-0.00,76.75,-22.50,-24.19
2026-06-27 11:34:21.233,0.14,0.81,9.68,-0.00,-0.01,-0.01,75.00,-21.75,-22.50
2026-06-27 11:34:21.250,0.17,0.76,9.70,-0.00,-0.00,-0.00,75.00,-21.75,-22.50
2026-06-27 11:34:21.263,0.27,0.75,9.68,-0.00,-0.00,0.00,75.00,-21.75,-22.50
2026-06-27 11:34:21.276,0.25,0.68,9.69,0.00,-0.01,0.00,75.00,-21.75,-22.50
2026-06-27 11:34:21.290,0.23,0.71,9.74,-0.00,-0.00,-0.00,75.25,-22.50,-22.50
2026-06-27 11:34:21.304,0.27,0.73,9.66,0.00,0.00,0.00,75.25,-22.50,-22.50
2026-06-27 11:34:21.320,0.31,0.77,9.70,0.00,0.00,-0.00,75.25,-22.50,-22.50
2026-06-27 11:34:21.333,0.14,0.76,9.65,0.00,0.00,-0.00,76.00,-22.06,-22.50
2026-06-27 11:34:21.350,0.22,0.77,9.68,0.00,0.01,0.00,76.00,-22.06,-22.50
2026-06-27 11:34:21.363,0.30,0.76,9.68,0.00,0.01,0.00,76.00,-22.06,-22.50
2026-06-27 11:34:21.375,0.23,0.74,9.67,0.00,0.01,0.00,76.00,-22.06,-22.50
2026-06-27 11:34:21.390,0.21,0.74,9.71,0.00,0.02,-0.00,76.00,-21.75,-23.38
2026-06-27 11:34:21.404,0.28,0.71,9.69,0.00,0.02,-0.01,76.00,-21.75,-23.38
2026-06-27 11:34:21.421,0.26,0.77,9.67,0.01,0.03,-0.01,76.00,-21.75,-23.38
2026-06-27 11:34:21.433,0.27,0.75,9.67,0.00,0.03,-0.01,75.25,-22.06,-22.50
2026-06-27 11:34:21.450,0.21,0.79,9.68,0.00,0.03,-0.01,75.25,-22.06,-22.50
2026-06-27 11:34:21.463,0.27,0.72,9.65,0.01,0.04,0.00,75.25,-22.06,-22.50
2026-06-27 11:34:21.476,0.30,0.72,9.67,0.01,0.04,0.00,75.25,-22.06,-22.50
2026-06-27 11:34:21.488,0.27,0.69,9.72,0.01,0.05,0.00,76.00,-22.88,-21.00
2026-06-27 11:34:21.502,0.17,0.72,9.68,0.01,0.05,-0.00,76.00,-22.88,-21.00
2026-06-27 11:34:21.516,0.20,0.73,9.68,0.01,0.06,-0.01,76.00,-22.88,-21.00
2026-06-27 11:34:21.531,0.23,0.73,9.69,0.01,0.06,-0.01,74.19,-22.88,-21.38
2026-06-27 11:34:21.544,0.04,0.77,9.68,0.01,0.06,0.00,74.19,-22.88,-21.38
2026-06-27 11:34:21.561,0.20,0.68,9.64,0.01,0.06,0.01,74.19,-22.88,-21.38
2026-06-27 11:34:21.574,0.12,0.69,9.70,0.01,0.06,0.01,74.19,-22.88,-21.38
2026-06-27 11:34:21.586,0.07,0.67,9.69,0.01,0.06,0.01,76.75,-22.88,-19.69
2026-06-27 11:34:21.603,-0.08,0.71,9.73,0.01,0.06,0.00,76.75,-22.88,-19.69
2026-06-27 11:34:21.619,0.04,0.73,9.67,0.01,0.06,0.00,76.75,-22.88,-19.69
2026-06-27 11:34:21.632,-0.01,0.73,9.70,0.01,0.06,0.00,76.75,-22.06,-21.00
2026-06-27 11:34:21.647,-0.04,0.74,9.63,0.01,0.05,0.00,76.75,-22.06,-21.00
2026-06-27 11:34:21.663,-0.08,0.72,9.59,0.01,0.04,0.00,76.75,-22.06,-21.00
2026-06-27 11:34:21.676,-0.01,0.77,9.76,0.01,0.04,0.01,76.75,-22.06,-21.00
2026-06-27 11:34:21.688,-0.05,0.78,9.71,0.01,0.04,0.00,76.38,-22.88,-20.19
2026-06-27 11:34:21.702,-0.06,0.83,9.68,0.01,0.04,-0.00,76.38,-22.88,-20.19
2026-06-27 11:34:21.714,-0.05,0.82,9.66,0.01,0.04,-0.00,76.38,-22.88,-20.19
2026-06-27 11:34:21.727,0.00,0.83,9.68,0.01,0.04,-0.00,76.38,-22.88,-20.19
2026-06-27 11:34:21.740,-0.02,0.87,9.61,0.01,0.03,-0.00,76.75,-22.50,-20.50
2026-06-27 11:34:21.752,-0.03,0.84,9.65,0.01,0.03,0.00,76.75,-22.50,-20.50
2026-06-27 11:34:21.765,-0.06,0.86,9.73,0.00,0.03,0.01,76.75,-22.50,-20.50
2026-06-27 11:34:21.779,0.01,0.84,9.70,0.00,0.03,0.00,76.75,-22.50,-20.50
2026-06-27 11:34:21.793,-0.09,0.82,9.68,0.00,0.02,0.00,77.88,-22.50,-20.50
2026-06-27 11:34:21.806,-0.11,0.77,9.70,0.00,0.02,-0.00,77.88,-22.50,-20.50
2026-06-27 11:34:21.822,-0.13,0.77,9.70,0.00,0.02,-0.00,77.88,-22.50,-20.50
2026-06-27 11:34:21.840,-0.04,0.75,9.67,0.00,0.01,0.00,77.50,-22.06,-20.19
2026-06-27 11:34:21.852,-0.11,0.79,9.70,0.00,0.01,0.00,77.50,-22.06,-20.19
2026-06-27 11:34:21.865,-0.11,0.78,9.69,0.00,0.01,0.00,77.50,-22.06,-20.19
2026-06-27 11:34:21.877,-0.04,0.80,9.68,0.00,0.01,-0.00,77.50,-22.06,-20.19
2026-06-27 11:34:21.892,-0.04,0.79,9.68,0.00,0.00,-0.00,78.25,-22.88,-20.50
2026-06-27 11:34:21.905,-0.03,0.81,9.68,0.00,0.01,-0.00,78.25,-22.88,-20.50
2026-06-27 11:34:21.922,-0.09,0.84,9.64,0.00,0.00,-0.00,78.25,-22.88,-20.50
2026-06-27 11:34:21.934,-0.02,0.83,9.67,0.00,-0.00,0.00,77.50,-21.75,-20.50
2026-06-27 11:34:21.951,-0.03,0.87,9.68,0.00,-0.01,0.00,77.50,-21.75,-20.50
2026-06-27 11:34:21.964,-0.04,0.82,9.69,-0.00,-0.00,0.00,77.50,-21.75,-20.50
2026-06-27 11:34:21.977,-0.06,0.84,9.68,0.00,0.00,-0.00,77.50,-21.75,-20.50
2026-06-27 11:34:21.992,-0.02,0.79,9.68,-0.00,-0.00,-0.00,77.88,-22.88,-20.50
2026-06-27 11:34:22.005,-0.04,0.79,9.65,-0.00,-0.01,-0.00,77.88,-22.88,-20.50
2026-06-27 11:34:22.022,-0.07,0.75,9.68,-0.00,-0.00,0.00,77.88,-22.88,-20.50
2026-06-27 11:34:22.035,-0.05,0.74,9.73,0.00,-0.01,0.00,77.19,-22.88,-20.50
2026-06-27 11:34:22.052,-0.02,0.77,9.71,0.00,-0.01,0.00,77.19,-22.88,-20.50
2026-06-27 11:34:22.067,-0.07,0.76,9.68,0.00,-0.01,-0.00,77.19,-22.88,-20.50
2026-06-27 11:34:22.082,-0.06,0.77,9.71,-0.00,-0.01,-0.00,79.00,-22.50,-21.00
2026-06-27 11:34:22.094,-0.02,0.80,9.68,-0.00,-0.01,-0.00,79.00,-22.50,-21.00
2026-06-27 11:34:22.112,-0.02,0.81,9.65,-0.00,-0.02,-0.00,79.00,-22.50,-21.00
2026-06-27 11:34:22.124,-0.03,0.83,9.69,-0.00,-0.02,0.00,79.00,-22.50,-21.00
2026-06-27 11:34:22.142,-0.04,0.83,9.70,-0.00,-0.02,0.00,77.50,-22.06,-20.19
2026-06-27 11:34:22.155,-0.02,0.81,9.66,-0.00,-0.02,-0.00,77.50,-22.06,-20.19
2026-06-27 11:34:22.173,-0.01,0.82,9.68,-0.00,-0.02,-0.00,77.50,-22.06,-20.19
2026-06-27 11:34:22.185,-0.04,0.78,9.67,-0.00,-0.02,0.00,77.88,-22.88,-21.38
2026-06-27 11:34:22.202,-0.03,0.77,9.66,-0.00,-0.02,-0.00,77.88,-22.88,-21.38
2026-06-27 11:34:22.214,0.01,0.77,9.68,-0.00,-0.03,0.00,77.88,-22.88,-21.38
2026-06-27 11:34:22.227,0.00,0.75,9.71,-0.00,-0.03,0.00,77.88,-22.88,-21.38
2026-06-27 11:34:22.243,-0.01,0.77,9.70,-0.00,-0.02,-0.00,77.50,-22.50,-20.50
2026-06-27 11:34:22.256,0.00,0.78,9.67,-0.00,-0.02,-0.00,77.50,-22.50,-20.50
2026-06-27 11:34:22.273,0.00,0.78,9.67,0.00,-0.03,-0.00,77.50,-22.50,-20.50
2026-06-27 11:34:22.285,-0.02,0.81,9.67,-0.00,-0.03,0.00,77.19,-22.06,-21.38
2026-06-27 11:34:22.302,-0.02,0.81,9.67,-0.00,-0.03,0.00,77.19,-22.06,-21.38
2026-06-27 11:34:22.314,0.00,0.81,9.70,-0.00,-0.03,0.00,77.19,-22.06,-21.38
2026-06-27 11:34:22.327,0.01,0.82,9.70,-0.00,-0.03,-0.00,77.19,-22.06,-21.38
2026-06-27 11:34:22.340,0.01,0.80,9.71,-0.00,-0.03,0.00,76.75,-22.50,-20.19
2026-06-27 11:34:22.354,0.00,0.78,9.70,-0.00,-0.03,-0.00,76.75,-22.50,-20.19
2026-06-27 11:34:22.366,0.04,0.79,9.70,-0.00,-0.04,0.00,76.75,-22.50,-20.19
2026-06-27 11:34:22.378,0.02,0.78,9.67,-0.00,-0.04,0.00,76.75,-22.50,-20.19
2026-06-27 11:34:22.391,0.02,0.80,9.69,-0.00,-0.03,0.00,76.75,-22.88,-19.69
2026-06-27 11:34:22.404,0.03,0.75,9.69,-0.00,-0.04,0.00,76.75,-22.88,-19.69
2026-06-27 11:34:22.418,0.03,0.71,9.72,-0.00,-0.04,0.00,76.75,-22.88,-19.69
2026-06-27 11:34:22.430,0.03,0.70,9.72,-0.01,-0.04,-0.00,76.75,-22.88,-19.69
2026-06-27 11:34:22.443,0.06,0.67,9.67,-0.01,-0.03,-0.00,76.75,-22.06,-20.50
2026-06-27 11:34:22.455,0.07,0.67,9.70,-0.01,-0.04,-0.00,76.75,-22.06,-20.50
2026-06-27 11:34:22.473,0.09,0.72,9.73,-0.01,-0.04,-0.00,76.75,-22.06,-20.50
2026-06-27 11:34:22.485,0.12,0.78,9.67,-0.01,-0.04,0.00,76.38,-23.25,-19.75
2026-06-27 11:34:22.503,0.14,0.80,9.66,-0.01,-0.04,0.00,76.38,-23.25,-19.75
2026-06-27 11:34:22.516,0.18,0.79,9.67,-0.00,-0.03,0.00,76.38,-23.25,-19.75
2026-06-27 11:34:22.532,0.18,0.76,9.68,-0.00,-0.03,-0.00,76.38,-23.25,-19.75
2026-06-27 11:34:22.546,0.17,0.75,9.69,0.00,-0.03,-0.00,76.06,-22.88,-20.50
2026-06-27 11:34:22.565,0.17,0.77,9.65,-0.00,-0.02,-0.00,76.06,-22.88,-20.50
2026-06-27 11:34:22.579,0.20,0.72,9.67,-0.00,-0.02,0.00,76.06,-22.88,-20.50
2026-06-27 11:34:22.594,0.20,0.72,9.67,0.00,-0.01,0.00,77.88,-22.06,-20.19
2026-06-27 11:34:22.607,0.20,0.72,9.68,-0.00,-0.01,0.00,77.88,-22.06,-20.19
2026-06-27 11:34:22.625,0.21,0.70,9.68,0.00,-0.00,0.00,77.88,-22.06,-20.19
2026-06-27 11:34:22.642,0.18,0.75,9.70,0.00,0.00,-0.00,75.38,-22.50,-22.50
2026-06-27 11:34:22.655,0.15,0.79,9.67,0.00,0.00,0.00,75.38,-22.50,-22.50
2026-06-27 11:34:22.671,0.17,0.77,9.68,0.00,0.01,0.00,75.38,-22.50,-22.50
2026-06-27 11:34:22.684,0.17,0.76,9.68,0.00,0.01,0.00,76.75,-22.88,-21.75
2026-06-27 11:34:22.696,0.14,0.73,9.67,0.00,0.02,0.00,76.75,-22.88,-21.75
2026-06-27 11:34:22.713,0.14,0.75,9.65,0.00,0.01,0.00,76.75,-22.88,-21.75
2026-06-27 11:34:22.726,0.14,0.75,9.70,0.00,0.02,0.00,76.75,-22.88,-21.75
2026-06-27 11:34:22.743,0.15,0.75,9.68,0.00,0.02,0.00,76.06,-22.88,-21.75
2026-06-27 11:34:22.756,0.11,0.77,9.68,0.00,0.02,0.00,76.06,-22.88,-21.75
2026-06-27 11:34:22.774,0.10,0.74,9.70,0.01,0.02,0.00,76.06,-22.88,-21.75
2026-06-27 11:34:22.786,0.10,0.76,9.72,0.01,0.02,0.00,76.38,-22.88,-22.19
2026-06-27 11:34:22.803,0.07,0.73,9.72,0.01,0.03,0.00,76.38,-22.88,-22.19
2026-06-27 11:34:22.816,0.02,0.77,9.66,0.00,0.03,0.00,76.38,-22.88,-22.19
2026-06-27 11:34:22.828,0.01,0.76,9.67,0.01,0.02,0.00,76.38,-22.88,-22.19
2026-06-27 11:34:22.841,0.01,0.77,9.69,0.01,0.02,0.00,76.38,-22.06,-21.38
2026-06-27 11:34:22.855,0.03,0.80,9.72,0.00,0.02,0.00,76.38,-22.06,-21.38
2026-06-27 11:34:22.867,0.02,0.78,9.68,0.00,0.02,0.00,76.38,-22.06,-21.38
2026-06-27 11:34:22.880,0.00,0.79,9.73,0.00,0.01,0.00,76.38,-22.06,-21.38
2026-06-27 11:34:22.894,0.02,0.78,9.68,0.00,0.02,0.00,76.75,-22.50,-20.50
2026-06-27 11:34:22.907,0.00,0.77,9.64,0.00,0.01,0.00,76.75,-22.50,-20.50
2026-06-27 11:34:22.924,0.02,0.80,9.69,0.00,0.01,0.00,76.75,-22.50,-20.50
2026-06-27 11:34:22.937,0.00,0.78,9.69,0.00,0.01,0.00,76.38,-22.50,-21.38
2026-06-27 11:34:22.954,0.01,0.79,9.69,0.00,0.01,0.00,76.38,-22.50,-21.38
2026-06-27 11:34:22.967,0.01,0.78,9.68,0.00,0.01,0.00,76.38,-22.50,-21.38
2026-06-27 11:34:22.979,0.01,0.79,9.70,0.00,0.01,-0.00,76.38,-22.50,-21.38
2026-06-27 11:34:22.994,0.01,0.80,9.68,0.00,-0.00,-0.00,76.75,-22.88,-21.75
2026-06-27 11:34:23.007,0.00,0.81,9.68,0.00,-0.00,0.00,76.75,-22.88,-21.75
2026-06-27 11:34:23.026,0.02,0.81,9.71,0.00,0.00,0.00,76.75,-22.88,-21.75
2026-06-27 11:34:23.040,0.00,0.80,9.70,0.00,-0.01,0.00,77.50,-22.06,-21.38
2026-06-27 11:34:23.055,-0.02,0.81,9.71,0.00,-0.01,-0.00,77.50,-22.06,-21.38
2026-06-27 11:34:23.068,0.02,0.79,9.68,0.00,-0.01,-0.00,77.50,-22.06,-21.38
2026-06-27 11:34:23.080,0.00,0.78,9.69,0.00,-0.01,0.00,77.50,-22.06,-21.38
2026-06-27 11:34:23.095,0.00,0.77,9.71,-0.00,-0.00,0.00,76.75,-22.50,-21.00
2026-06-27 11:34:23.107,0.00,0.75,9.65,0.00,-0.01,-0.00,76.75,-22.50,-21.00
2026-06-27 11:34:23.127,0.02,0.76,9.68,-0.00,-0.01,0.00,76.75,-22.50,-21.00
2026-06-27 11:34:23.144,0.01,0.77,9.68,-0.00,-0.01,0.00,77.19,-23.25,-20.50
2026-06-27 11:34:23.157,0.03,0.78,9.68,0.00,-0.01,-0.00,77.19,-23.25,-20.50
2026-06-27 11:34:23.174,0.03,0.80,9.68,-0.00,-0.01,0.00,77.19,-23.25,-20.50
2026-06-27 11:34:23.187,0.02,0.81,9.70,0.00,-0.02,0.00,77.19,-22.50,-22.19
2026-06-27 11:34:23.205,0.03,0.84,9.68,-0.00,-0.02,0.00,77.19,-22.50,-22.19
2026-06-27 11:34:23.217,0.03,0.80,9.68,-0.00,-0.02,0.00,77.19,-22.50,-22.19
2026-06-27 11:34:23.230,0.04,0.77,9.69,-0.00,-0.02,0.00,77.19,-22.50,-22.19
2026-06-27 11:34:23.245,0.00,0.72,9.70,-0.00,-0.02,-0.00,77.50,-23.25,-21.38
2026-06-27 11:34:23.257,0.03,0.70,9.65,-0.00,-0.02,-0.00,77.50,-23.25,-21.38
2026-06-27 11:34:23.274,0.04,0.73,9.68,-0.00,-0.02,-0.00,77.50,-23.25,-21.38
2026-06-27 11:34:23.287,0.04,0.76,9.67,-0.00,-0.03,0.00,78.25,-22.88,-21.75
2026-06-27 11:34:23.305,0.04,0.80,9.69,-0.00,-0.03,0.00,78.25,-22.88,-21.75
2026-06-27 11:34:23.317,0.07,0.82,9.72,-0.00,-0.02,0.00,78.25,-22.88,-21.75
2026-06-27 11:34:23.330,0.09,0.82,9.78,-0.01,-0.02,0.00,78.25,-22.88,-21.75
2026-06-27 11:34:23.342,0.07,0.75,9.62,-0.00,-0.03,-0.00,76.06,-22.50,-20.50
2026-06-27 11:34:23.357,0.10,0.77,9.67,-0.00,-0.02,-0.01,76.06,-22.50,-20.50
2026-06-27 11:34:23.375,0.12,0.75,9.69,-0.00,-0.02,-0.00,76.06,-22.50,-20.50
2026-06-27 11:34:23.388,0.14,0.72,9.68,0.00,-0.02,-0.00,76.06,-22.88,-20.50
2026-06-27 11:34:23.405,0.16,0.74,9.73,-0.00,-0.02,-0.00,76.06,-22.88,-20.50
2026-06-27 11:34:23.418,0.20,0.76,9.68,0.00,-0.01,0.00,76.06,-22.88,-20.50
2026-06-27 11:34:23.430,0.22,0.74,9.71,0.00,-0.01,0.00,76.06,-22.88,-20.50
2026-06-27 11:34:23.445,0.23,0.74,9.71,-0.00,-0.00,0.00,76.75,-22.88,-21.38
2026-06-27 11:34:23.458,0.18,0.76,9.67,0.00,0.00,0.00,76.75,-22.88,-21.38
2026-06-27 11:34:23.475,0.23,0.76,9.67,-0.00,0.00,-0.00,76.75,-22.88,-21.38
2026-06-27 11:34:23.488,0.16,0.75,9.68,0.00,0.01,0.00,77.19,-22.06,-22.56
2026-06-27 11:34:23.505,0.14,0.72,9.70,0.00,0.01,0.00,77.19,-22.06,-22.56
2026-06-27 11:34:23.518,0.15,0.73,9.68,0.00,0.02,0.00,77.19,-22.06,-22.56
2026-06-27 11:34:23.531,0.13,0.74,9.68,0.00,0.01,0.00,77.19,-22.06,-22.56
2026-06-27 11:34:23.546,0.09,0.77,9.72,0.00,0.02,0.00,76.06,-22.50,-21.75
2026-06-27 11:34:23.558,0.12,0.76,9.68,0.00,0.02,0.00,76.06,-22.50,-21.75
2026-06-27 11:34:23.575,0.08,0.79,9.70,0.00,0.02,0.00,76.06,-22.50,-21.75
2026-06-27 11:34:23.588,0.07,0.75,9.69,0.00,0.03,0.00,77.19,-23.25,-21.38
2026-06-27 11:34:23.605,0.06,0.77,9.68,0.01,0.02,0.00,77.19,-23.25,-21.38
2026-06-27 11:34:23.618,0.03,0.77,9.67,0.00,0.02,0.00,77.19,-23.25,-21.38
2026-06-27 11:34:23.630,0.00,0.78,9.68,0.00,0.02,0.00,77.19,-23.25,-21.38
2026-06-27 11:34:23.646,0.00,0.77,9.67,0.01,0.02,0.00,76.75,-23.25,-20.19
2026-06-27 11:34:23.658,0.03,0.77,9.68,0.01,0.02,0.00,76.75,-23.25,-20.19
2026-06-27 11:34:23.675,0.02,0.76,9.68,0.00,0.01,-0.00,76.75,-23.25,-20.19
2026-06-27 11:34:23.688,0.00,0.77,9.68,0.00,0.01,-0.00,76.75,-22.06,-20.50
2026-06-27 11:34:23.705,0.00,0.74,9.68,0.00,0.01,-0.00,76.75,-22.06,-20.50
2026-06-27 11:34:23.718,0.00,0.79,9.68,0.00,0.01,0.00,76.75,-22.06,-20.50
2026-06-27 11:34:23.735,0.00,0.80,9.69,0.00,0.00,0.00,76.75,-22.06,-20.50
2026-06-27 11:34:23.748,-0.01,0.80,9.69,0.00,0.01,-0.00,76.38,-22.06,-20.50
2026-06-27 11:34:23.765,0.01,0.84,9.67,0.00,0.01,0.00,76.38,-22.06,-20.50
2026-06-27 11:34:23.777,0.00,0.81,9.65,0.00,0.00,-0.00,76.38,-22.06,-20.50
2026-06-27 11:34:23.794,0.00,0.81,9.70,0.00,0.00,-0.00,77.50,-22.88,-20.50
2026-06-27 11:34:23.807,0.00,0.80,9.66,0.00,0.00,0.00,77.50,-22.88,-20.50
2026-06-27 11:34:23.825,0.00,0.78,9.68,0.00,0.00,0.00,77.50,-22.88,-20.50
2026-06-27 11:34:23.837,0.00,0.79,9.69,0.00,-0.00,-0.00,77.19,-22.50,-19.75
2026-06-27 11:34:23.854,0.00,0.77,9.68,0.00,-0.01,0.00,77.19,-22.50,-19.75
2026-06-27 11:34:23.867,0.01,0.77,9.68,0.00,-0.01,-0.00,77.19,-22.50,-19.75
2026-06-27 11:34:23.880,0.02,0.77,9.69,0.00,-0.01,0.00,77.19,-22.50,-19.75
2026-06-27 11:34:23.896,-0.01,0.79,9.68,0.00,-0.01,0.00,77.19,-21.75,-21.38
2026-06-27 11:34:23.908,0.00,0.78,9.67,-0.00,-0.01,0.00,77.19,-21.75,-21.38
2026-06-27 11:34:23.925,0.01,0.79,9.68,0.00,-0.01,-0.00,77.19,-21.75,-21.38
2026-06-27 11:34:23.938,0.01,0.79,9.69,0.00,-0.02,0.00,77.19,-22.06,-21.00
2026-06-27 11:34:23.953,0.04,0.81,9.68,-0.00,-0.01,-0.00,77.19,-22.06,-21.00
2026-06-27 11:34:23.967,0.00,0.82,9.68,-0.00,-0.02,0.00,77.19,-22.06,-21.00
2026-06-27 11:34:23.979,0.02,0.79,9.71,0.00,-0.01,-0.00,77.19,-22.06,-21.00
2026-06-27 11:34:23.996,0.03,0.79,9.69,-0.00,-0.02,-0.00,75.69,-22.50,-19.69
2026-06-27 11:34:24.008,0.04,0.78,9.66,-0.00,-0.02,-0.00,75.69,-22.50,-19.69
2026-06-27 11:34:24.026,0.01,0.76,9.73,0.00,-0.02,0.00,75.69,-22.50,-19.69
2026-06-27 11:34:24.038,0.06,0.70,9.68,-0.00,-0.01,0.00,76.06,-22.50,-21.00
2026-06-27 11:34:24.053,0.07,0.71,9.67,-0.00,-0.02,-0.00,76.06,-22.50,-21.00
2026-06-27 11:34:24.067,0.07,0.74,9.67,-0.00,-0.02,-0.00,76.06,-22.50,-21.00
2026-06-27 11:34:24.079,0.06,0.76,9.71,0.00,-0.02,-0.00,76.06,-22.50,-21.00
2026-06-27 11:34:24.096,0.10,0.79,9.68,-0.00,-0.02,-0.00,77.19,-21.75,-21.38
2026-06-27 11:34:24.108,0.09,0.82,9.68,-0.00,-0.01,0.00,77.19,-21.75,-21.38
2026-06-27 11:34:24.126,0.10,0.78,9.68,0.00,-0.02,0.00,77.19,-21.75,-21.38
2026-06-27 11:34:24.138,0.08,0.74,9.71,0.00,-0.01,-0.00,76.38,-21.75,-21.00
2026-06-27 11:34:24.156,0.08,0.71,9.69,0.00,-0.01,0.00,76.38,-21.75,-21.00
2026-06-27 11:34:24.168,0.07,0.71,9.68,-0.00,-0.01,-0.00,76.38,-21.75,-21.00
2026-06-27 11:34:24.181,0.07,0.72,9.68,-0.00,-0.01,0.00,76.38,-21.75,-21.00
2026-06-27 11:34:24.197,0.06,0.76,9.68,-0.00,-0.01,0.00,77.19,-23.25,-22.19
2026-06-27 11:34:24.210,0.07,0.78,9.68,0.00,-0.01,0.00,77.19,-23.25,-22.19
2026-06-27 11:34:24.227,0.07,0.81,9.66,-0.00,-0.01,0.00,77.19,-23.25,-22.19
2026-06-27 11:34:24.239,0.06,0.80,9.68,0.00,-0.01,-0.00,76.75,-22.88,-21.75
2026-06-27 11:34:24.256,0.07,0.80,9.70,-0.00,-0.01,-0.00,76.75,-22.88,-21.75
2026-06-27 11:34:24.268,0.07,0.76,9.65,-0.00,-0.01,0.00,76.75,-22.88,-21.75
2026-06-27 11:34:24.281,0.06,0.74,9.69,-0.00,-0.01,-0.00,76.75,-22.88,-21.75
2026-06-27 11:34:24.297,0.04,0.74,9.69,-0.00,-0.01,0.00,76.38,-22.50,-21.38
2026-06-27 11:34:24.310,0.07,0.76,9.68,-0.00,-0.01,-0.00,76.38,-22.50,-21.38
2026-06-27 11:34:24.327,0.04,0.74,9.68,-0.00,-0.01,-0.00,76.38,-22.50,-21.38
2026-06-27 11:34:24.339,0.08,0.79,9.69,-0.00,-0.01,0.00,76.38,-22.88,-22.50
2026-06-27 11:34:24.356,0.08,0.78,9.69,0.00,-0.01,-0.00,76.38,-22.88,-22.50
2026-06-27 11:34:24.369,0.11,0.77,9.67,0.00,-0.01,0.00,76.38,-22.88,-22.50
2026-06-27 11:34:24.381,0.10,0.76,9.70,-0.00,-0.01,-0.00,76.38,-22.88,-22.50
2026-06-27 11:34:24.398,0.13,0.74,9.68,0.00,-0.01,-0.00,77.19,-22.50,-21.38
2026-06-27 11:34:24.410,0.15,0.74,9.64,0.00,-0.01,-0.00,77.19,-22.50,-21.38
2026-06-27 11:34:24.427,0.15,0.72,9.69,-0.00,-0.00,-0.00,77.19,-22.50,-21.38
2026-06-27 11:34:24.440,0.14,0.77,9.70,0.00,-0.00,0.00,76.38,-21.38,-21.38
2026-06-27 11:34:24.457,0.14,0.77,9.68,0.00,0.00,-0.00,76.38,-21.38,-21.38
2026-06-27 11:34:24.470,0.14,0.76,9.69,0.00,0.01,0.00,76.38,-21.38,-21.38
2026-06-27 11:34:24.482,0.12,0.76,9.68,0.00,0.01,0.00,76.38,-21.38,-21.38
2026-06-27 11:34:24.497,0.11,0.74,9.67,0.00,0.01,0.00,76.75,-23.25,-21.38
2026-06-27 11:34:24.510,0.10,0.77,9.66,0.00,0.01,0.00,76.75,-23.25,-21.38
2026-06-27 11:34:24.528,0.10,0.76,9.70,0.00,0.01,0.00,76.75,-23.25,-21.38
2026-06-27 11:34:24.540,0.09,0.76,9.69,0.00,0.02,0.00,76.38,-22.50,-21.75
2026-06-27 11:34:24.558,0.10,0.76,9.71,0.00,0.01,0.00,76.38,-22.50,-21.75
2026-06-27 11:34:24.570,0.07,0.76,9.67,0.00,0.02,0.00,76.38,-22.50,-21.75
2026-06-27 11:34:24.582,0.06,0.75,9.67,0.01,0.02,0.00,76.38,-22.50,-21.75
2026-06-27 11:34:24.598,0.06,0.77,9.70,0.00,0.01,0.00,77.19,-22.50,-21.00
2026-06-27 11:34:24.610,0.04,0.77,9.68,0.00,0.02,0.00,77.19,-22.50,-21.00
2026-06-27 11:34:24.628,0.04,0.77,9.67,0.00,0.02,0.00,77.19,-22.50,-21.00
2026-06-27 11:34:24.641,0.01,0.79,9.70,0.00,0.01,0.00,76.75,-22.50,-21.38
2026-06-27 11:34:24.658,0.02,0.77,9.70,0.00,0.01,0.00,76.75,-22.50,-21.38
2026-06-27 11:34:24.670,-0.01,0.78,9.68,0.00,0.01,0.00,76.75,-22.50,-21.38
2026-06-27 11:34:24.682,0.00,0.77,9.67,0.00,0.01,0.00,76.75,-22.50,-21.38
2026-06-27 11:34:24.698,0.00,0.76,9.68,-0.00,0.01,0.00,77.50,-22.06,-21.00
2026-06-27 11:34:24.710,0.00,0.77,9.69,0.00,0.01,0.00,77.50,-22.06,-21.00
2026-06-27 11:34:24.728,0.02,0.76,9.68,0.00,0.00,0.00,77.50,-22.06,-21.00
2026-06-27 11:34:24.741,0.01,0.79,9.70,0.00,-0.00,0.00,77.19,-21.75,-21.75
2026-06-27 11:34:24.758,0.01,0.80,9.70,0.00,0.00,-0.00,77.19,-21.75,-21.75
2026-06-27 11:34:24.770,0.01,0.82,9.70,-0.00,-0.00,0.00,77.19,-21.75,-21.75
2026-06-27 11:34:24.782,0.01,0.82,9.67,0.00,-0.00,0.00,77.19,-21.75,-21.75
2026-06-27 11:34:24.798,0.02,0.82,9.68,-0.00,-0.00,0.00,76.38,-22.50,-21.38
2026-06-27 11:34:24.810,0.00,0.81,9.68,0.00,-0.00,-0.00,76.38,-22.50,-21.38
2026-06-27 11:34:24.828,0.01,0.81,9.66,0.00,-0.01,0.00,76.38,-22.50,-21.38
2026-06-27 11:34:24.846,0.02,0.79,9.70,0.00,-0.01,0.00,77.50,-22.06,-21.75
2026-06-27 11:34:24.860,0.03,0.77,9.68,-0.00,-0.01,-0.00,77.50,-22.06,-21.75
2026-06-27 11:34:24.878,0.01,0.76,9.68,-0.00,-0.01,0.00,77.50,-22.06,-21.75
2026-06-27 11:34:24.890,0.02,0.77,9.69,-0.00,-0.01,-0.00,76.06,-22.06,-21.00
2026-06-27 11:34:24.908,0.01,0.77,9.68,-0.00,-0.01,0.00,76.06,-22.06,-21.00
2026-06-27 11:34:24.922,0.02,0.76,9.68,-0.00,-0.02,0.00,76.06,-22.06,-21.00
2026-06-27 11:34:24.934,0.04,0.77,9.68,-0.00,-0.02,0.00,76.06,-22.06,-21.00
2026-06-27 11:34:24.948,0.04,0.77,9.71,-0.00,-0.02,0.00,77.19,-21.75,-21.38
2026-06-27 11:34:24.961,0.03,0.78,9.66,-0.00,-0.02,-0.00,77.19,-21.75,-21.38
2026-06-27 11:34:24.978,0.05,0.77,9.68,-0.00,-0.02,-0.00,77.19,-21.75,-21.38
2026-06-27 11:34:24.991,0.04,0.79,9.72,-0.00,-0.02,-0.00,76.75,-22.06,-21.75
2026-06-27 11:34:25.008,0.06,0.75,9.69,-0.00,-0.02,-0.00,76.75,-22.06,-21.75
2026-06-27 11:34:25.021,0.05,0.76,9.68,-0.00,-0.02,0.00,76.75,-22.06,-21.75
2026-06-27 11:34:25.033,0.06,0.76,9.67,-0.00,-0.02,-0.00,76.75,-22.06,-21.75
2026-06-27 11:34:25.045,0.07,0.77,9.68,-0.00,-0.02,-0.00,77.50,-22.88,-21.38
2026-06-27 11:34:25.059,0.05,0.77,9.67,-0.00,-0.03,-0.00,77.50,-22.88,-21.38
2026-06-27 11:34:25.072,0.06,0.78,9.69,-0.00,-0.02,-0.00,77.50,-22.88,-21.38
2026-06-27 11:34:25.084,0.06,0.76,9.68,-0.00,-0.02,0.00,77.50,-22.88,-21.38
2026-06-27 11:34:25.097,0.08,0.77,9.68,-0.00,-0.03,-0.00,76.38,-22.06,-20.50
2026-06-27 11:34:25.111,0.14,0.78,9.68,-0.00,-0.02,-0.00,76.38,-22.06,-20.50
2026-06-27 11:34:25.129,0.13,0.76,9.68,-0.00,-0.02,-0.00,76.38,-22.06,-20.50
2026-06-27 11:34:25.146,0.14,0.75,9.70,-0.00,-0.01,-0.00,76.75,-22.88,-21.38
2026-06-27 11:34:25.159,0.13,0.75,9.69,-0.00,-0.01,-0.00,76.75,-22.88,-21.38
2026-06-27 11:34:25.172,0.16,0.73,9.69,0.00,-0.01,0.00,76.75,-22.88,-21.38
2026-06-27 11:34:25.185,0.18,0.72,9.67,0.00,-0.01,0.00,76.75,-22.88,-21.38
2026-06-27 11:34:25.199,0.17,0.73,9.67,-0.00,-0.00,0.00,76.38,-22.50,-22.50
2026-06-27 11:34:25.211,0.17,0.75,9.67,-0.00,-0.00,-0.00,76.38,-22.50,-22.50
2026-06-27 11:34:25.229,0.19,0.76,9.68,0.00,0.01,-0.00,76.38,-22.50,-22.50
2026-06-27 11:34:25.243,0.16,0.77,9.67,0.00,0.00,0.00,76.38,-22.06,-22.19
2026-06-27 11:34:25.259,0.14,0.74,9.68,0.00,0.01,0.00,76.38,-22.06,-22.19
2026-06-27 11:34:25.272,0.16,0.74,9.73,0.00,0.01,0.00,76.38,-22.06,-22.19
2026-06-27 11:34:25.284,0.12,0.73,9.71,0.00,0.02,0.00,76.38,-22.06,-22.19
2026-06-27 11:34:25.299,0.12,0.75,9.73,0.00,0.02,0.00,76.75,-22.88,-21.38
2026-06-27 11:34:25.312,0.09,0.76,9.63,0.00,0.02,0.00,76.75,-22.88,-21.38
2026-06-27 11:34:25.329,0.07,0.76,9.67,0.01,0.02,-0.00,76.75,-22.88,-21.38
2026-06-27 11:34:25.345,0.08,0.76,9.69,0.00,0.02,0.00,76.38,-22.06,-22.19
2026-06-27 11:34:25.359,0.06,0.78,9.69,0.00,0.02,0.00,76.38,-22.06,-22.19
2026-06-27 11:34:25.372,0.07,0.76,9.71,0.00,0.02,0.00,76.38,-22.06,-22.19
2026-06-27 11:34:25.385,0.02,0.77,9.69,0.00,0.02,0.00,76.38,-22.06,-22.19
2026-06-27 11:34:25.400,0.04,0.76,9.68,0.00,0.02,0.00,76.75,-22.50,-21.75
2026-06-27 11:34:25.412,0.01,0.79,9.68,0.00,0.02,0.00,76.75,-22.50,-21.75
2026-06-27 11:34:25.429,0.00,0.78,9.67,0.00,0.02,0.00,76.75,-22.50,-21.75
2026-06-27 11:34:25.445,0.02,0.79,9.68,0.00,0.01,0.00,77.50,-22.06,-21.75
2026-06-27 11:34:25.460,0.01,0.79,9.69,0.00,0.01,0.00,77.50,-22.06,-21.75
2026-06-27 11:34:25.472,0.00,0.77,9.69,0.00,0.01,0.00,77.50,-22.06,-21.75
2026-06-27 11:34:25.485,0.01,0.78,9.71,0.00,0.01,-0.00,77.50,-22.06,-21.75
2026-06-27 11:34:25.500,0.02,0.77,9.71,0.00,0.01,-0.00,77.19,-22.88,-21.00
2026-06-27 11:34:25.512,0.02,0.77,9.67,0.00,0.00,0.00,77.19,-22.88,-21.00
2026-06-27 11:34:25.529,0.00,0.77,9.68,0.00,0.00,0.00,77.19,-22.88,-21.00
2026-06-27 11:34:25.543,0.00,0.79,9.67,0.00,0.00,0.00,77.19,-22.50,-21.75
2026-06-27 11:34:25.559,0.03,0.80,9.70,0.00,0.00,0.00,77.19,-22.50,-21.75
2026-06-27 11:34:25.572,0.00,0.80,9.69,0.00,-0.01,0.00,77.19,-22.50,-21.75
2026-06-27 11:34:25.586,0.01,0.81,9.68,0.00,-0.00,-0.00,77.19,-22.50,-21.75
2026-06-27 11:34:25.601,0.00,0.80,9.69,0.00,-0.01,-0.00,76.75,-22.50,-21.38
2026-06-27 11:34:25.613,0.02,0.81,9.67,-0.00,-0.01,0.00,76.75,-22.50,-21.38
2026-06-27 11:34:25.630,0.01,0.80,9.69,-0.00,-0.01,-0.00,76.75,-22.50,-21.38
2026-06-27 11:34:25.642,0.01,0.76,9.72,0.00,-0.01,-0.00,77.19,-22.88,-21.38
2026-06-27 11:34:25.659,0.00,0.77,9.68,0.00,-0.01,-0.00,77.19,-22.88,-21.38
2026-06-27 11:34:25.672,0.01,0.75,9.70,0.00,-0.01,-0.00,77.19,-22.88,-21.38
2026-06-27 11:34:25.685,0.04,0.72,9.69,-0.00,-0.01,0.00,77.19,-22.88,-21.38
2026-06-27 11:34:25.700,0.01,0.72,9.68,-0.00,-0.02,0.00,77.19,-23.25,-21.38
2026-06-27 11:34:25.713,0.02,0.77,9.69,-0.00,-0.02,-0.00,77.19,-23.25,-21.38
2026-06-27 11:34:25.730,0.03,0.77,9.68,-0.00,-0.02,0.00,77.19,-23.25,-21.38
2026-06-27 11:34:25.742,0.02,0.82,9.71,-0.00,-0.02,0.00,77.19,-22.06,-21.38
2026-06-27 11:34:25.760,0.05,0.79,9.68,-0.00,-0.02,0.00,77.19,-22.06,-21.38
2026-06-27 11:34:25.776,0.06,0.75,9.68,-0.00,-0.02,-0.00,77.19,-22.06,-21.38
2026-06-27 11:34:25.790,0.04,0.76,9.68,-0.00,-0.02,0.00,77.19,-23.25,-21.00
2026-06-27 11:34:25.803,0.07,0.74,9.67,-0.00,-0.02,-0.00,77.19,-23.25,-21.00
2026-06-27 11:34:25.820,0.08,0.75,9.66,-0.00,-0.02,-0.00,77.19,-23.25,-21.00
2026-06-27 11:34:25.833,0.06,0.75,9.70,-0.00,-0.02,0.00,77.19,-23.25,-21.00
2026-06-27 11:34:25.850,0.10,0.77,9.69,-0.00,-0.02,-0.00,76.88,-23.25,-20.50
2026-06-27 11:34:25.862,0.12,0.78,9.66,-0.00,-0.02,-0.00,76.88,-23.25,-20.50
2026-06-27 11:34:25.878,0.13,0.78,9.67,-0.00,-0.02,-0.00,76.88,-23.25,-20.50
2026-06-27 11:34:25.891,0.14,0.78,9.71,-0.00,-0.02,-0.00,76.38,-22.88,-22.19
2026-06-27 11:34:25.903,0.13,0.73,9.68,-0.00,-0.02,0.00,76.38,-22.88,-22.19
2026-06-27 11:34:25.920,0.15,0.75,9.69,-0.00,-0.01,-0.00,76.38,-22.88,-22.19
2026-06-27 11:34:25.933,0.15,0.73,9.68,0.00,-0.01,0.00,76.38,-22.88,-22.19
2026-06-27 11:34:25.950,0.16,0.73,9.67,0.00,-0.01,0.00,76.06,-22.50,-22.19
2026-06-27 11:34:25.963,0.15,0.74,9.68,-0.00,-0.00,0.00,76.06,-22.50,-22.19
2026-06-27 11:34:25.980,0.16,0.75,9.66,0.00,-0.00,0.00,76.06,-22.50,-22.19
2026-06-27 11:34:25.993,0.15,0.77,9.71,0.00,0.00,0.00,76.38,-22.06,-20.50
2026-06-27 11:34:26.010,0.13,0.75,9.69,-0.00,0.00,0.00,76.38,-22.06,-20.50
2026-06-27 11:34:26.022,0.15,0.74,9.69,0.00,0.00,0.00,76.38,-22.06,-20.50
2026-06-27 11:34:26.035,0.14,0.74,9.67,0.00,0.01,0.00,76.38,-22.06,-20.50
2026-06-27 11:34:26.051,0.11,0.75,9.68,0.00,0.01,0.00,75.69,-22.50,-21.75
2026-06-27 11:34:26.064,0.12,0.75,9.68,0.00,0.01,0.00,75.69,-22.50,-21.75
2026-06-27 11:34:26.081,0.12,0.75,9.72,0.01,0.01,0.00,75.69,-22.50,-21.75
2026-06-27 11:34:26.093,0.09,0.77,9.68,0.00,0.02,0.00,76.75,-22.50,-21.75
2026-06-27 11:34:26.110,0.08,0.77,9.67,0.00,0.02,0.00,76.75,-22.50,-21.75
2026-06-27 11:34:26.122,0.08,0.78,9.68,0.00,0.01,0.00,76.75,-22.50,-21.75
2026-06-27 11:34:26.135,0.06,0.75,9.70,0.00,0.02,0.00,76.75,-22.50,-21.75
2026-06-27 11:34:26.151,0.05,0.76,9.67,0.00,0.01,0.00,77.50,-22.50,-21.00
2026-06-27 11:34:26.164,0.04,0.77,9.68,0.00,0.01,0.00,77.50,-22.50,-21.00
2026-06-27 11:34:26.181,0.07,0.74,9.69,0.00,0.01,0.00,77.50,-22.50,-21.00
2026-06-27 11:34:26.193,0.06,0.76,9.69,0.00,0.02,-0.00,77.19,-22.06,-21.00
2026-06-27 11:34:26.210,0.04,0.78,9.66,0.00,0.01,-0.00,77.19,-22.06,-21.00
2026-06-27 11:34:26.222,0.03,0.77,9.68,0.00,0.01,0.00,77.19,-22.06,-21.00
2026-06-27 11:34:26.236,0.03,0.77,9.67,0.00,0.02,0.00,77.19,-22.06,-21.00
2026-06-27 11:34:26.251,0.03,0.77,9.69,0.00,0.01,0.00,76.75,-22.88,-22.19
2026-06-27 11:34:26.264,0.02,0.78,9.70,0.00,0.01,-0.00,76.75,-22.88,-22.19
2026-06-27 11:34:26.281,0.00,0.75,9.68,0.00,0.01,0.00,76.75,-22.88,-22.19
2026-06-27 11:34:26.294,0.03,0.75,9.70,0.00,0.01,-0.00,76.38,-22.50,-22.19
2026-06-27 11:34:26.311,0.01,0.76,9.69,0.00,0.01,0.00,76.38,-22.50,-22.19
2026-06-27 11:34:26.324,0.01,0.78,9.70,0.00,0.00,-0.00,76.38,-22.50,-22.19
2026-06-27 11:34:26.339,0.02,0.78,9.71,0.00,0.00,-0.00,76.38,-22.50,-22.19
2026-06-27 11:34:26.352,0.03,0.79,9.68,0.00,0.00,0.00,76.38,-23.25,-20.50
2026-06-27 11:34:26.365,0.02,0.80,9.68,0.00,0.00,-0.00,76.38,-23.25,-20.50
2026-06-27 11:34:26.382,0.01,0.78,9.69,0.00,0.00,0.00,76.38,-23.25,-20.50
2026-06-27 11:34:26.395,0.04,0.81,9.70,0.00,-0.00,0.00,76.06,-22.88,-20.50
2026-06-27 11:34:26.411,0.01,0.79,9.67,0.00,-0.00,0.00,76.06,-22.88,-20.50
2026-06-27 11:34:26.424,0.01,0.79,9.68,0.00,-0.00,0.00,76.06,-22.88,-20.50
2026-06-27 11:34:26.437,0.00,0.80,9.69,0.00,-0.01,0.00,76.06,-22.88,-20.50
2026-06-27 11:34:26.452,0.01,0.79,9.71,-0.00,-0.01,-0.00,77.19,-22.88,-21.00
2026-06-27 11:34:26.464,0.03,0.76,9.68,0.00,-0.01,-0.00,77.19,-22.88,-21.00
2026-06-27 11:34:26.482,0.01,0.77,9.67,0.00,-0.01,-0.00,77.19,-22.88,-21.00
2026-06-27 11:34:26.495,0.02,0.76,9.68,-0.00,-0.01,-0.00,76.38,-22.50,-21.00
2026-06-27 11:34:26.512,0.04,0.78,9.67,-0.00,-0.02,0.00,76.38,-22.50,-21.00
2026-06-27 11:34:26.524,0.01,0.77,9.68,-0.00,-0.02,0.00,76.38,-22.50,-21.00
2026-06-27 11:34:26.536,0.03,0.78,9.68,0.00,-0.02,0.00,76.38,-22.50,-21.00
2026-06-27 11:34:26.552,0.02,0.77,9.70,-0.00,-0.01,-0.00,76.38,-22.50,-20.19
2026-06-27 11:34:26.564,0.03,0.77,9.69,-0.00,-0.02,-0.00,76.38,-22.50,-20.19
2026-06-27 11:34:26.582,0.01,0.77,9.66,-0.00,-0.02,-0.00,76.38,-22.50,-20.19
2026-06-27 11:34:26.594,0.04,0.78,9.70,-0.00,-0.02,-0.00,76.06,-22.88,-21.38
2026-06-27 11:34:26.612,0.06,0.77,9.67,-0.00,-0.02,0.00,76.06,-22.88,-21.38
2026-06-27 11:34:26.624,0.06,0.77,9.68,-0.00,-0.02,0.00,76.06,-22.88,-21.38
2026-06-27 11:34:26.636,0.10,0.79,9.68,-0.00,-0.02,-0.00,76.06,-22.88,-21.38
2026-06-27 11:34:26.652,0.08,0.76,9.68,-0.00,-0.02,-0.00,77.50,-22.50,-22.19
2026-06-27 11:34:26.665,0.10,0.74,9.68,-0.00,-0.01,-0.00,77.50,-22.50,-22.19
2026-06-27 11:34:26.682,0.08,0.77,9.68,-0.00,-0.02,-0.00,77.50,-22.50,-22.19
2026-06-27 11:34:26.695,0.12,0.74,9.71,-0.00,-0.01,0.00,76.38,-21.75,-21.38
2026-06-27 11:34:26.712,0.13,0.75,9.66,-0.00,-0.01,0.00,76.38,-21.75,-21.38
2026-06-27 11:34:26.725,0.12,0.75,9.68,-0.00,-0.01,0.00,76.38,-21.75,-21.38
2026-06-27 11:34:26.737,0.13,0.76,9.68,-0.00,-0.01,0.00,76.38,-21.75,-21.38
2026-06-27 11:34:26.752,0.11,0.76,9.67,0.00,-0.00,0.00,76.50,-23.25,-21.38
2026-06-27 11:34:26.765,0.11,0.76,9.68,0.00,-0.00,0.00,76.50,-23.25,-21.38
2026-06-27 11:34:26.782,0.13,0.73,9.69,0.00,-0.00,0.00,76.50,-23.25,-21.38
2026-06-27 11:34:26.795,0.10,0.74,9.69,0.00,-0.00,-0.00,76.06,-22.50,-21.75
2026-06-27 11:34:26.813,0.11,0.74,9.67,-0.00,-0.00,-0.00,76.06,-22.50,-21.75
2026-06-27 11:34:26.826,0.07,0.77,9.69,0.00,0.00,0.00,76.06,-22.50,-21.75
2026-06-27 11:34:26.838,0.10,0.78,9.70,0.00,0.00,0.00,76.06,-22.50,-21.75
2026-06-27 11:34:26.853,0.10,0.77,9.70,0.00,0.00,0.00,77.50,-22.50,-21.38
2026-06-27 11:34:26.865,0.09,0.77,9.66,0.00,0.00,0.00,77.50,-22.50,-21.38
2026-06-27 11:34:26.882,0.08,0.77,9.66,0.00,0.00,0.00,77.50,-22.50,-21.38
2026-06-27 11:34:26.895,0.08,0.77,9.69,0.00,0.00,0.00,77.19,-22.06,-21.00
2026-06-27 11:34:26.912,0.07,0.76,9.69,0.00,0.01,-0.00,77.19,-22.06,-21.00
2026-06-27 11:34:26.925,0.10,0.78,9.67,0.00,0.00,0.00,77.19,-22.06,-21.00
2026-06-27 11:34:26.937,0.09,0.76,9.69,0.00,0.00,0.00,77.19,-22.06,-21.00
2026-06-27 11:34:26.953,0.08,0.77,9.70,0.00,0.01,0.00,77.19,-22.50,-21.38
2026-06-27 11:34:26.965,0.07,0.75,9.66,0.00,0.01,0.00,77.19,-22.50,-21.38
2026-06-27 11:34:26.982,0.07,0.76,9.70,0.00,0.00,0.00,77.19,-22.50,-21.38
2026-06-27 11:34:26.995,0.06,0.76,9.70,0.00,0.01,0.00,76.38,-22.88,-20.50
2026-06-27 11:34:27.013,0.05,0.75,9.67,0.00,0.01,0.00,76.38,-22.88,-20.50
2026-06-27 11:34:27.025,0.04,0.75,9.69,0.00,0.01,0.00,76.38,-22.88,-20.50
2026-06-27 11:34:27.042,0.04,0.77,9.67,-0.00,0.01,0.00,76.38,-22.88,-20.50
2026-06-27 11:34:27.054,0.06,0.77,9.69,0.00,0.01,0.00,76.75,-22.50,-21.75
2026-06-27 11:34:27.070,0.02,0.78,9.68,0.00,0.00,-0.00,76.75,-22.50,-21.75
2026-06-27 11:34:27.083,0.05,0.80,9.68,0.00,0.00,0.00,76.75,-22.50,-21.75
2026-06-27 11:34:27.098,0.04,0.77,9.69,0.00,0.00,-0.00,77.50,-22.88,-21.75
2026-06-27 11:34:27.113,0.00,0.74,9.68,0.00,0.00,0.00,77.50,-22.88,-21.75
2026-06-27 11:34:27.126,0.02,0.78,9.68,0.00,-0.00,-0.00,77.50,-22.88,-21.75
2026-06-27 11:34:27.139,0.01,0.77,9.69,0.00,-0.00,0.00,77.50,-22.88,-21.75
2026-06-27 11:34:27.154,0.04,0.78,9.71,0.00,-0.01,0.00,76.75,-22.50,-21.00
2026-06-27 11:34:27.166,0.03,0.78,9.71,-0.00,-0.00,-0.00,76.75,-22.50,-21.00
2026-06-27 11:34:27.183,0.03,0.79,9.68,0.00,-0.01,-0.00,76.75,-22.50,-21.00
2026-06-27 11:34:27.199,0.04,0.77,9.68,0.00,-0.01,-0.00,76.75,-21.75,-20.50
2026-06-27 11:34:27.214,0.05,0.77,9.66,0.00,-0.01,-0.00,76.75,-21.75,-20.50
2026-06-27 11:34:27.226,0.04,0.78,9.70,0.00,-0.01,-0.00,76.75,-21.75,-20.50
2026-06-27 11:34:27.239,0.04,0.76,9.71,-0.00,-0.02,-0.00,76.75,-21.75,-20.50
2026-06-27 11:34:27.254,0.05,0.77,9.70,-0.00,-0.01,0.00,76.06,-23.25,-20.50
2026-06-27 11:34:27.267,0.07,0.80,9.68,-0.00,-0.01,-0.00,76.06,-23.25,-20.50
2026-06-27 11:34:27.283,0.04,0.77,9.70,-0.00,-0.01,0.00,76.06,-23.25,-20.50
2026-06-27 11:34:27.296,0.05,0.76,9.70,0.00,-0.01,-0.00,76.38,-22.88,-20.50
2026-06-27 11:34:27.313,0.06,0.76,9.71,-0.00,-0.01,0.00,76.38,-22.88,-20.50
2026-06-27 11:34:27.326,0.10,0.77,9.68,-0.00,-0.01,-0.00,76.38,-22.88,-20.50
2026-06-27 11:34:27.342,0.09,0.75,9.68,-0.00,-0.01,-0.00,76.38,-22.88,-20.50
2026-06-27 11:34:27.355,0.10,0.77,9.68,-0.00,-0.01,0.00,77.50,-22.06,-21.38
2026-06-27 11:34:27.372,0.11,0.76,9.65,-0.00,-0.01,-0.00,77.50,-22.06,-21.38
2026-06-27 11:34:27.385,0.11,0.77,9.70,0.00,-0.01,0.00,77.50,-22.06,-21.38
2026-06-27 11:34:27.398,0.11,0.74,9.69,0.00,-0.01,-0.00,76.75,-22.06,-21.00
2026-06-27 11:34:27.414,0.11,0.77,9.69,0.00,-0.00,-0.00,76.75,-22.06,-21.00
2026-06-27 11:34:27.426,0.11,0.77,9.68,0.00,-0.00,0.00,76.75,-22.06,-21.00
2026-06-27 11:34:27.439,0.09,0.76,9.68,0.00,-0.00,0.00,76.75,-22.06,-21.00
2026-06-27 11:34:27.455,0.10,0.77,9.71,0.00,-0.00,-0.00,76.75,-22.06,-20.19
2026-06-27 11:34:27.467,0.10,0.77,9.67,0.00,0.00,-0.00,76.75,-22.06,-20.19
2026-06-27 11:34:27.484,0.10,0.75,9.68,0.00,0.00,0.00,76.75,-22.06,-20.19
2026-06-27 11:34:27.497,0.08,0.76,9.72,0.00,0.00,0.00,76.75,-23.25,-22.19
2026-06-27 11:34:27.513,0.09,0.77,9.69,0.00,0.00,0.00,76.75,-23.25,-22.19
2026-06-27 11:34:27.526,0.06,0.77,9.67,0.00,0.01,0.00,76.75,-23.25,-22.19
2026-06-27 11:34:27.539,0.07,0.77,9.68,0.00,0.01,0.00,76.75,-23.25,-22.19
2026-06-27 11:34:27.554,0.05,0.77,9.68,0.00,0.00,0.00,76.38,-22.06,-21.38
2026-06-27 11:34:27.567,0.04,0.77,9.67,0.00,0.01,0.00,76.38,-22.06,-21.38
2026-06-27 11:34:27.584,0.07,0.77,9.68,0.01,0.00,0.00,76.38,-22.06,-21.38
2026-06-27 11:34:27.597,0.04,0.76,9.68,0.00,0.00,0.00,76.06,-22.06,-21.75
2026-06-27 11:34:27.614,0.05,0.77,9.69,0.00,0.00,0.00,76.06,-22.06,-21.75
2026-06-27 11:34:27.633,0.03,0.78,9.70,0.00,-0.00,0.00,76.06,-22.06,-21.75
2026-06-27 11:34:27.645,0.04,0.78,9.68,0.00,0.00,-0.00,77.50,-22.06,-21.00
2026-06-27 11:34:27.663,0.03,0.76,9.70,0.00,0.00,0.00,77.50,-22.06,-21.00
2026-06-27 11:34:27.676,0.04,0.78,9.70,-0.00,-0.00,0.00,77.50,-22.06,-21.00
2026-06-27 11:34:27.689,0.05,0.77,9.70,0.00,-0.00,-0.00,77.50,-22.06,-21.00
2026-06-27 11:34:27.705,0.04,0.75,9.68,-0.00,0.00,0.00,77.19,-22.50,-20.50
2026-06-27 11:34:27.718,0.04,0.77,9.66,0.00,-0.01,-0.00,77.19,-22.50,-20.50
2026-06-27 11:34:27.735,0.06,0.77,9.68,-0.00,-0.01,0.00,77.19,-22.50,-20.50
2026-06-27 11:34:27.747,0.06,0.77,9.68,-0.00,-0.01,0.00,77.50,-22.50,-22.19
2026-06-27 11:34:27.764,0.03,0.77,9.68,0.00,-0.01,0.00,77.50,-22.50,-22.19
2026-06-27 11:34:27.777,0.06,0.77,9.68,0.00,-0.01,0.00,77.50,-22.50,-22.19
2026-06-27 11:34:27.789,0.08,0.76,9.69,0.00,-0.01,0.00,77.50,-22.50,-22.19
2026-06-27 11:34:27.805,0.06,0.77,9.70,-0.00,-0.01,-0.00,77.19,-22.06,-22.19
2026-06-27 11:34:27.818,0.07,0.77,9.65,0.00,-0.01,0.00,77.19,-22.06,-22.19
2026-06-27 11:34:27.835,0.08,0.76,9.68,0.00,-0.01,0.00,77.19,-22.06,-22.19
2026-06-27 11:34:27.847,0.09,0.75,9.69,-0.00,-0.01,0.00,76.75,-22.06,-22.19
2026-06-27 11:34:27.864,0.07,0.77,9.68,-0.00,-0.01,0.00,76.75,-22.06,-22.19
2026-06-27 11:34:27.876,0.09,0.76,9.68,0.00,-0.01,0.00,76.75,-22.06,-22.19
2026-06-27 11:34:27.889,0.08,0.76,9.67,0.00,-0.01,-0.00,76.75,-22.06,-22.19
2026-06-27 11:34:27.905,0.09,0.77,9.69,-0.00,-0.01,-0.00,77.50,-22.50,-21.38
2026-06-27 11:34:27.918,0.09,0.78,9.69,-0.00,-0.01,0.00,77.50,-22.50,-21.38
2026-06-27 11:34:27.935,0.08,0.78,9.68,0.00,-0.00,-0.00,77.50,-22.50,-21.38
2026-06-27 11:34:27.947,0.11,0.74,9.69,0.00,-0.01,0.00,75.38,-22.06,-21.38
2026-06-27 11:34:27.964,0.10,0.75,9.68,-0.00,-0.00,0.00,75.38,-22.06,-21.38
2026-06-27 11:34:27.977,0.12,0.76,9.67,0.00,-0.00,-0.00,75.38,-22.06,-21.38
2026-06-27 11:34:27.994,0.10,0.77,9.67,-0.00,-0.00,0.00,75.38,-22.06,-21.38
2026-06-27 11:34:28.006,0.11,0.77,9.68,0.00,-0.00,0.00,76.06,-21.75,-21.75
2026-06-27 11:34:28.019,0.10,0.78,9.67,0.00,0.00,0.00,76.06,-21.75,-21.75
2026-06-27 11:34:28.035,0.12,0.77,9.69,0.00,0.00,0.00,76.06,-21.75,-21.75
2026-06-27 11:34:28.049,0.10,0.76,9.71,0.00,0.00,-0.00,76.50,-22.50,-22.19
2026-06-27 11:34:28.065,0.10,0.74,9.71,0.00,0.00,0.00,76.50,-22.50,-22.19
2026-06-27 11:34:28.078,0.10,0.76,9.68,-0.00,0.00,0.00,76.50,-22.50,-22.19
2026-06-27 11:34:28.090,0.11,0.77,9.69,0.00,0.00,0.00,76.50,-22.50,-22.19
2026-06-27 11:34:28.105,0.08,0.76,9.71,0.00,0.01,0.00,76.00,-22.50,-21.00
2026-06-27 11:34:28.118,0.08,0.77,9.68,0.00,0.01,0.00,76.00,-22.50,-21.00
2026-06-27 11:34:28.136,0.08,0.76,9.68,-0.00,0.01,0.00,76.00,-22.50,-21.00
2026-06-27 11:34:28.153,0.05,0.76,9.69,0.00,0.01,0.00,76.06,-22.06,-20.50
2026-06-27 11:34:28.166,0.07,0.77,9.68,0.00,0.01,-0.00,76.06,-22.06,-20.50
2026-06-27 11:34:28.178,0.04,0.75,9.68,0.00,0.01,-0.00,76.06,-22.06,-20.50
2026-06-27 11:34:28.191,0.04,0.79,9.68,0.00,0.01,0.00,76.06,-22.06,-20.50
2026-06-27 11:34:28.206,0.07,0.77,9.71,0.00,0.00,0.00,75.69,-22.50,-22.50
2026-06-27 11:34:28.218,0.04,0.75,9.66,0.00,0.01,0.00,75.69,-22.50,-22.50
2026-06-27 11:34:28.236,0.03,0.79,9.67,0.00,0.00,0.00,75.69,-22.50,-22.50
2026-06-27 11:34:28.248,0.05,0.78,9.67,0.00,0.00,0.00,76.75,-22.88,-22.56
2026-06-27 11:34:28.265,0.04,0.78,9.68,0.00,0.00,-0.00,76.75,-22.88,-22.56
2026-06-27 11:34:28.278,0.06,0.79,9.67,0.00,0.00,0.00,76.75,-22.88,-22.56
2026-06-27 11:34:28.290,0.04,0.79,9.70,0.00,0.00,0.00,76.75,-22.88,-22.56
2026-06-27 11:34:28.306,0.02,0.77,9.68,0.00,-0.00,0.00,77.50,-22.06,-21.75
2026-06-27 11:34:28.318,0.05,0.77,9.69,-0.00,-0.00,-0.00,77.50,-22.06,-21.75
2026-06-27 11:34:28.336,0.03,0.77,9.68,-0.00,-0.00,0.00,77.50,-22.06,-21.75
2026-06-27 11:34:28.348,0.04,0.77,9.68,-0.00,-0.00,-0.00,76.75,-22.06,-21.75
2026-06-27 11:34:28.366,0.04,0.77,9.67,0.00,-0.01,-0.00,76.75,-22.06,-21.75
2026-06-27 11:34:28.378,0.05,0.79,9.69,-0.00,-0.01,0.00,76.75,-22.06,-21.75
2026-06-27 11:34:28.391,0.04,0.77,9.67,-0.00,-0.01,0.00,76.75,-22.06,-21.75
2026-06-27 11:34:28.406,0.05,0.77,9.68,0.00,-0.01,-0.00,76.75,-22.50,-22.50
2026-06-27 11:34:28.419,0.04,0.78,9.70,0.00,-0.01,-0.00,76.75,-22.50,-22.50
2026-06-27 11:34:28.436,0.06,0.75,9.68,0.00,-0.02,-0.00,76.75,-22.50,-22.50
2026-06-27 11:34:28.449,0.06,0.77,9.69,0.00,-0.01,-0.00,77.19,-22.88,-21.75
2026-06-27 11:34:28.466,0.07,0.76,9.68,-0.00,-0.01,0.00,77.19,-22.88,-21.75
2026-06-27 11:34:28.479,0.05,0.78,9.68,-0.00,-0.01,0.00,77.19,-22.88,-21.75
2026-06-27 11:34:28.491,0.07,0.76,9.67,-0.00,-0.01,-0.00,77.19,-22.88,-21.75
2026-06-27 11:34:28.506,0.09,0.76,9.70,0.00,-0.01,-0.00,77.19,-22.50,-21.75
2026-06-27 11:34:28.519,0.10,0.77,9.67,0.00,-0.01,-0.00,77.19,-22.50,-21.75
2026-06-27 11:34:28.536,0.11,0.78,9.67,0.00,-0.01,0.00,77.19,-22.50,-21.75
2026-06-27 11:34:28.549,0.09,0.77,9.68,0.00,-0.01,-0.00,77.19,-23.25,-21.00
2026-06-27 11:34:28.566,0.10,0.75,9.69,0.00,-0.01,-0.00,77.19,-23.25,-21.00
2026-06-27 11:34:28.579,0.11,0.76,9.68,0.00,-0.01,-0.00,77.19,-23.25,-21.00
2026-06-27 11:34:28.591,0.11,0.77,9.70,0.00,-0.01,-0.00,77.19,-23.25,-21.00
2026-06-27 11:34:28.606,0.10,0.78,9.68,-0.00,-0.01,0.00,76.38,-22.06,-21.38
2026-06-27 11:34:28.619,0.11,0.77,9.67,0.00,-0.01,0.00,76.38,-22.06,-21.38
2026-06-27 11:34:28.636,0.10,0.76,9.71,0.00,-0.00,0.00,76.38,-22.06,-21.38
2026-06-27 11:34:28.649,0.10,0.74,9.68,0.00,0.00,0.00,77.19,-22.50,-22.19
2026-06-27 11:34:28.666,0.10,0.75,9.71,0.00,0.00,-0.00,77.19,-22.50,-22.19
2026-06-27 11:34:28.679,0.08,0.77,9.68,0.00,0.00,0.00,77.19,-22.50,-22.19
2026-06-27 11:34:28.691,0.08,0.74,9.72,0.00,-0.00,-0.00,77.19,-22.50,-22.19
2026-06-27 11:34:28.706,0.08,0.76,9.66,0.00,-0.00,0.00,76.06,-23.25,-21.75
2026-06-27 11:34:28.719,0.09,0.78,9.67,0.00,-0.00,0.00,76.06,-23.25,-21.75
2026-06-27 11:34:28.736,0.07,0.76,9.66,-0.00,-0.00,0.00,76.06,-23.25,-21.75
2026-06-27 11:34:28.749,0.10,0.76,9.71,0.00,-0.00,0.00,77.88,-22.50,-21.38
2026-06-27 11:34:28.766,0.09,0.78,9.72,0.00,-0.00,-0.00,77.88,-22.50,-21.38
2026-06-27 11:34:28.779,0.08,0.76,9.69,0.00,0.00,0.00,77.88,-22.50,-21.38
2026-06-27 11:34:28.792,0.05,0.75,9.69,0.00,0.00,0.00,77.88,-22.50,-21.38
2026-06-27 11:34:28.807,0.07,0.77,9.66,0.00,0.00,-0.00,76.75,-22.06,-22.19
2026-06-27 11:34:28.819,0.07,0.76,9.69,0.00,0.00,0.00,76.75,-22.06,-22.19
2026-06-27 11:34:28.836,0.06,0.76,9.70,0.00,-0.00,0.00,76.75,-22.06,-22.19
2026-06-27 11:34:28.849,0.06,0.77,9.69,0.00,-0.00,0.00,76.75,-21.75,-20.50
2026-06-27 11:34:28.866,0.07,0.77,9.68,0.00,-0.00,0.00,76.75,-21.75,-20.50
2026-06-27 11:34:28.879,0.05,0.77,9.69,0.00,-0.00,0.00,76.75,-21.75,-20.50
2026-06-27 11:34:28.892,0.07,0.77,9.67,0.00,0.00,0.00,76.75,-21.75,-20.50
2026-06-27 11:34:28.907,0.07,0.75,9.72,0.00,-0.01,0.00,76.75,-22.06,-21.00
2026-06-27 11:34:28.920,0.06,0.75,9.68,0.00,-0.01,-0.00,76.75,-22.06,-21.00
2026-06-27 11:34:28.937,0.08,0.79,9.69,0.00,-0.00,0.00,76.75,-22.06,-21.00
2026-06-27 11:34:28.953,0.05,0.76,9.69,0.00,-0.00,0.00,76.75,-22.88,-20.50
2026-06-27 11:34:28.967,0.07,0.79,9.69,0.00,-0.00,0.00,76.75,-22.88,-20.50
2026-06-27 11:34:28.980,0.06,0.76,9.69,0.00,-0.00,-0.00,76.75,-22.88,-20.50
2026-06-27 11:34:28.993,0.05,0.77,9.70,0.00,-0.01,0.00,76.75,-22.88,-20.50
2026-06-27 11:34:29.008,0.07,0.74,9.67,-0.00,-0.00,-0.00,77.19,-22.88,-21.38
2026-06-27 11:34:29.021,0.07,0.77,9.65,0.00,-0.00,-0.00,77.19,-22.88,-21.38
2026-06-27 11:34:29.037,0.06,0.79,9.67,-0.00,-0.00,0.00,77.19,-22.88,-21.38
2026-06-27 11:34:29.049,0.08,0.77,9.71,-0.01,-0.01,0.00,77.19,-22.50,-21.00
2026-06-27 11:34:29.066,0.08,0.75,9.72,-0.00,-0.01,0.00,77.19,-22.50,-21.00
2026-06-27 11:34:29.079,0.09,0.77,9.66,-0.00,-0.00,0.00,77.19,-22.50,-21.00
2026-06-27 11:34:29.092,0.09,0.77,9.68,0.00,-0.01,-0.00,77.19,-22.50,-21.00
2026-06-27 11:34:29.108,0.06,0.76,9.72,-0.00,-0.01,0.00,76.38,-22.50,-22.19
2026-06-27 11:34:29.120,0.08,0.78,9.64,-0.00,-0.00,0.00,76.38,-22.50,-22.19
2026-06-27 11:34:29.137,0.08,0.77,9.68,0.00,-0.01,0.00,76.38,-22.50,-22.19
2026-06-27 11:34:29.149,0.10,0.77,9.71,-0.00,-0.00,-0.00,75.00,-22.06,-20.50
2026-06-27 11:34:29.167,0.09,0.77,9.69,-0.00,-0.00,0.00,75.00,-22.06,-20.50
2026-06-27 11:34:29.180,0.10,0.76,9.67,0.00,-0.01,0.00,75.00,-22.06,-20.50
2026-06-27 11:34:29.196,0.09,0.77,9.69,0.00,-0.00,0.00,75.00,-22.06,-20.50
2026-06-27 11:34:29.209,0.07,0.76,9.68,-0.00,-0.00,-0.00,76.75,-23.25,-21.00
2026-06-27 11:34:29.222,0.08,0.78,9.67,-0.00,-0.00,0.00,76.75,-23.25,-21.00
2026-06-27 11:34:29.238,0.07,0.75,9.68,0.00,-0.00,0.00,76.75,-23.25,-21.00
2026-06-27 11:34:29.251,0.08,0.77,9.68,-0.00,-0.00,-0.00,76.50,-22.06,-21.38
2026-06-27 11:34:29.267,0.08,0.74,9.68,-0.00,-0.01,0.00,76.50,-22.06,-21.38
2026-06-27 11:34:29.280,0.09,0.77,9.68,-0.00,-0.00,0.00,76.50,-22.06,-21.38
2026-06-27 11:34:29.296,0.08,0.75,9.69,0.00,-0.00,0.00,76.50,-22.06,-21.38
2026-06-27 11:34:29.309,0.10,0.77,9.68,0.00,-0.00,-0.00,75.69,-22.88,-21.75
2026-06-27 11:34:29.322,0.09,0.77,9.69,0.00,0.00,-0.00,75.69,-22.88,-21.75
2026-06-27 11:34:29.338,0.09,0.75,9.69,0.00,0.00,0.00,75.69,-22.88,-21.75
2026-06-27 11:34:29.351,0.10,0.76,9.70,-0.00,-0.00,0.00,76.75,-21.75,-21.75
2026-06-27 11:34:29.368,0.09,0.76,9.68,0.00,-0.00,0.00,76.75,-21.75,-21.75
2026-06-27 11:34:29.380,0.07,0.75,9.70,-0.00,0.00,0.00,76.75,-21.75,-21.75
2026-06-27 11:34:29.393,0.08,0.76,9.70,-0.00,0.00,-0.00,76.75,-21.75,-21.75
2026-06-27 11:34:29.408,0.09,0.75,9.67,-0.00,-0.00,0.00,76.75,-23.25,-21.75
2026-06-27 11:34:29.421,0.07,0.75,9.68,-0.00,-0.00,-0.00,76.75,-23.25,-21.75
2026-06-27 11:34:29.439,0.10,0.77,9.69,-0.00,0.00,0.00,76.75,-23.25,-21.75
2026-06-27 11:34:29.453,0.08,0.74,9.72,-0.00,0.00,0.00,77.19,-22.06,-21.38
2026-06-27 11:34:29.468,0.07,0.75,9.65,-0.00,0.00,-0.00,77.19,-22.06,-21.38
2026-06-27 11:34:29.481,0.08,0.77,9.70,0.00,0.00,0.00,77.19,-22.06,-21.38
2026-06-27 11:34:29.493,0.08,0.76,9.67,-0.00,0.00,0.00,77.19,-22.06,-21.38
2026-06-27 11:34:29.508,0.07,0.74,9.69,0.00,0.00,0.00,76.38,-22.50,-22.50
2026-06-27 11:34:29.521,0.09,0.75,9.67,-0.00,0.00,-0.00,76.38,-22.50,-22.50
2026-06-27 11:34:29.538,0.07,0.76,9.67,-0.00,0.00,0.00,76.38,-22.50,-22.50
2026-06-27 11:34:29.551,0.10,0.76,9.69,0.00,0.00,0.00,75.69,-22.50,-21.38
2026-06-27 11:34:29.568,0.09,0.75,9.66,0.00,0.00,0.00,75.69,-22.50,-21.38
2026-06-27 11:34:29.580,0.06,0.78,9.67,-0.00,0.00,0.00,75.69,-22.50,-21.38
2026-06-27 11:34:29.593,0.09,0.77,9.68,0.00,0.00,0.00,75.69,-22.50,-21.38
2026-06-27 11:34:29.608,0.07,0.79,9.70,0.00,0.00,-0.00,77.19,-22.88,-21.38
2026-06-27 11:34:29.621,0.06,0.74,9.69,0.00,-0.00,0.00,77.19,-22.88,-21.38
2026-06-27 11:34:29.639,0.07,0.75,9.64,0.00,-0.00,0.00,77.19,-22.88,-21.38
2026-06-27 11:34:29.651,0.06,0.77,9.67,0.00,-0.00,0.00,77.19,-22.88,-21.00
2026-06-27 11:34:29.668,0.05,0.76,9.70,0.00,-0.01,-0.00,77.19,-22.88,-21.00
2026-06-27 11:34:29.681,0.08,0.77,9.70,0.00,-0.00,0.00,77.19,-22.88,-21.00
2026-06-27 11:34:29.693,0.07,0.76,9.68,0.00,0.00,0.00,77.19,-22.88,-21.00
2026-06-27 11:34:29.709,0.05,0.76,9.70,-0.00,0.00,0.00,75.69,-22.88,-21.75
2026-06-27 11:34:29.721,0.07,0.77,9.67,0.00,-0.00,0.00,75.69,-22.88,-21.75
2026-06-27 11:34:29.739,0.08,0.75,9.66,0.00,-0.00,0.00,75.69,-22.88,-21.75
2026-06-27 11:34:29.752,0.09,0.77,9.68,0.00,-0.01,0.00,77.50,-22.06,-22.50
2026-06-27 11:34:29.769,0.08,0.76,9.68,0.00,-0.00,0.00,77.50,-22.06,-22.50
2026-06-27 11:34:29.781,0.08,0.77,9.69,-0.00,-0.00,0.00,77.50,-22.06,-22.50
2026-06-27 11:34:29.793,0.06,0.76,9.68,0.00,-0.00,0.00,77.50,-22.06,-22.50
2026-06-27 11:34:29.809,0.08,0.76,9.70,0.00,-0.00,-0.00,77.19,-21.75,-21.00
2026-06-27 11:34:29.822,0.08,0.76,9.66,-0.00,-0.00,0.00,77.19,-21.75,-21.00
2026-06-27 11:34:29.839,0.07,0.75,9.67,0.00,-0.00,-0.00,77.19,-21.75,-21.00
2026-06-27 11:34:29.852,0.09,0.75,9.68,0.00,-0.00,0.00,76.38,-22.50,-23.00
2026-06-27 11:34:29.869,0.08,0.75,9.69,0.00,-0.00,0.00,76.38,-22.50,-23.00
2026-06-27 11:34:29.881,0.09,0.78,9.69,-0.00,-0.00,-0.00,76.38,-22.50,-23.00
2026-06-27 11:34:29.893,0.10,0.78,9.71,0.00,-0.00,0.00,76.38,-22.50,-23.00
2026-06-27 11:34:29.910,0.10,0.78,9.71,0.00,0.00,-0.00,76.06,-21.75,-21.75
2026-06-27 11:34:29.923,0.09,0.77,9.69,-0.00,0.00,0.00,76.06,-21.75,-21.75
2026-06-27 11:34:29.940,0.09,0.77,9.69,-0.00,-0.00,0.00,76.06,-21.75,-21.75
2026-06-27 11:34:29.955,0.06,0.77,9.67,0.00,-0.00,0.00,75.38,-21.75,-21.75
2026-06-27 11:34:29.970,0.08,0.78,9.66,0.00,-0.00,-0.00,75.38,-21.75,-21.75
2026-06-27 11:34:29.985,0.08,0.77,9.67,0.00,-0.00,0.00,75.38,-21.75,-21.75
2026-06-27 11:34:29.999,0.07,0.78,9.68,0.00,-0.00,0.00,77.50,-22.50,-22.19
2026-06-27 11:34:30.012,0.09,0.78,9.72,0.00,0.00,-0.00,77.50,-22.50,-22.19
2026-06-27 11:34:30.028,0.10,0.77,9.67,-0.00,0.00,0.00,77.50,-22.50,-22.19
2026-06-27 11:34:30.043,0.11,0.74,9.68,0.00,0.00,0.00,77.50,-22.50,-22.19
2026-06-27 11:34:30.059,0.10,0.75,9.68,0.00,0.00,0.00,76.88,-22.50,-20.50
2026-06-27 11:34:30.072,0.12,0.77,9.68,-0.00,-0.00,-0.00,76.88,-22.50,-20.50
2026-06-27 11:34:30.089,0.11,0.77,9.69,-0.00,0.00,0.00,76.88,-22.50,-20.50
2026-06-27 11:34:30.102,0.13,0.76,9.71,0.00,0.00,-0.00,77.19,-22.88,-22.19
2026-06-27 11:34:30.119,0.12,0.77,9.70,0.00,0.00,0.00,77.19,-22.88,-22.19
2026-06-27 11:34:30.132,0.15,0.72,9.66,0.00,0.01,0.00,77.19,-22.88,-22.19
2026-06-27 11:34:30.144,0.12,0.75,9.68,0.00,0.00,0.00,77.19,-22.88,-22.19
2026-06-27 11:34:30.160,0.12,0.74,9.68,0.00,0.01,0.00,77.50,-22.06,-21.00
2026-06-27 11:34:30.172,0.12,0.75,9.68,0.00,0.01,0.00,77.50,-22.06,-21.00
2026-06-27 11:34:30.190,0.13,0.78,9.71,0.00,0.01,-0.00,77.50,-22.06,-21.00
2026-06-27 11:34:30.202,0.13,0.77,9.66,0.00,0.02,0.00,77.19,-22.50,-21.38
2026-06-27 11:34:30.219,0.10,0.77,9.69,0.00,0.02,0.00,77.19,-22.50,-21.38
2026-06-27 11:34:30.233,0.15,0.77,9.69,0.00,0.02,0.00,77.19,-22.50,-21.38
2026-06-27 11:34:30.245,0.13,0.76,9.68,0.00,0.02,0.00,77.19,-22.50,-21.38
2026-06-27 11:34:30.260,0.08,0.75,9.68,0.00,0.02,0.00,76.38,-22.88,-22.19
2026-06-27 11:34:30.273,0.10,0.76,9.68,0.00,0.02,0.00,76.38,-22.88,-22.19
2026-06-27 11:34:30.290,0.08,0.76,9.68,0.01,0.02,0.00,76.38,-22.88,-22.19
2026-06-27 11:34:30.302,0.08,0.77,9.69,0.00,0.02,0.00,75.69,-22.06,-21.75
2026-06-27 11:34:30.320,0.06,0.77,9.68,0.00,0.02,0.00,75.69,-22.06,-21.75
2026-06-27 11:34:30.332,0.06,0.80,9.68,0.00,0.03,0.00,75.69,-22.06,-21.75
2026-06-27 11:34:30.345,0.09,0.78,9.71,0.00,0.03,-0.00,75.69,-22.06,-21.75
2026-06-27 11:34:30.357,0.12,0.74,9.67,0.01,0.03,0.00,77.19,-22.06,-21.75
2026-06-27 11:34:30.371,0.06,0.77,9.69,0.00,0.03,0.00,77.19,-22.06,-21.75
2026-06-27 11:34:30.385,0.10,0.71,9.67,0.01,0.03,0.00,77.19,-22.06,-21.75
2026-06-27 11:34:30.398,0.06,0.70,9.68,0.00,0.03,0.00,77.19,-22.06,-21.75
2026-06-27 11:34:30.411,0.10,0.72,9.69,0.00,0.03,0.00,77.88,-21.75,-20.50
2026-06-27 11:34:30.423,0.05,0.70,9.68,0.01,0.03,0.00,77.88,-21.75,-20.50
2026-06-27 11:34:30.440,0.01,0.69,9.71,0.00,0.03,0.00,77.88,-21.75,-20.50
2026-06-27 11:34:30.453,0.03,0.74,9.68,0.00,0.03,0.00,77.19,-22.50,-19.00
2026-06-27 11:34:30.470,0.01,0.76,9.70,0.01,0.03,0.00,77.19,-22.50,-19.00
2026-06-27 11:34:30.485,0.00,0.80,9.70,0.00,0.03,-0.00,77.19,-22.50,-19.00
2026-06-27 11:34:30.499,0.01,0.79,9.70,0.00,0.03,0.00,77.19,-22.50,-19.00
2026-06-27 11:34:30.512,0.01,0.82,9.69,0.01,0.03,0.00,76.06,-22.88,-20.50
2026-06-27 11:34:30.528,-0.01,0.83,9.67,0.01,0.03,0.00,76.06,-22.88,-20.50
2026-06-27 11:34:30.541,0.00,0.83,9.68,0.01,0.03,0.00,76.06,-22.88,-20.50
2026-06-27 11:34:30.554,0.00,0.83,9.69,0.01,0.03,0.00,77.50,-23.25,-20.19
2026-06-27 11:34:30.571,0.01,0.81,9.69,0.01,0.03,0.00,77.50,-23.25,-20.19
2026-06-27 11:34:30.584,-0.03,0.78,9.66,0.01,0.03,0.00,77.50,-23.25,-20.19
2026-06-27 11:34:30.596,-0.02,0.77,9.67,0.01,0.04,0.00,77.50,-23.25,-20.19
2026-06-27 11:34:30.609,-0.01,0.72,9.67,0.01,0.03,0.00,77.19,-23.56,-20.50
2026-06-27 11:34:30.621,-0.06,0.73,9.68,0.00,0.03,0.00,77.19,-23.56,-20.50
2026-06-27 11:34:30.634,-0.06,0.76,9.69,0.01,0.03,-0.00,77.19,-23.56,-20.50
2026-06-27 11:34:30.647,-0.04,0.74,9.71,0.01,0.03,-0.00,77.19,-23.56,-20.50
2026-06-27 11:34:30.659,-0.06,0.75,9.71,0.00,0.03,-0.00,78.25,-22.06,-19.75
2026-06-27 11:34:30.671,-0.06,0.80,9.67,0.00,0.03,-0.00,78.25,-22.06,-19.75
2026-06-27 11:34:30.684,-0.07,0.79,9.70,0.00,0.03,0.00,78.25,-22.06,-19.75
2026-06-27 11:34:30.697,-0.06,0.82,9.69,0.00,0.03,-0.00,78.25,-22.06,-19.75
2026-06-27 11:34:30.709,-0.06,0.86,9.68,0.00,0.03,0.00,78.25,-22.50,-21.38
2026-06-27 11:34:30.721,-0.08,0.87,9.68,0.00,0.03,0.00,78.25,-22.50,-21.38
2026-06-27 11:34:30.736,-0.08,0.87,9.70,0.00,0.02,0.00,78.25,-22.50,-21.38
2026-06-27 11:34:30.749,-0.07,0.87,9.69,0.00,0.03,-0.00,78.25,-22.50,-21.38
2026-06-27 11:34:30.762,-0.08,0.85,9.68,0.00,0.02,-0.00,78.69,-22.50,-19.38
2026-06-27 11:34:30.776,-0.06,0.82,9.69,0.00,0.03,0.00,78.69,-22.50,-19.38
2026-06-27 11:34:30.791,-0.08,0.78,9.68,0.00,0.02,0.00,78.69,-22.50,-19.38
2026-06-27 11:34:30.805,-0.06,0.77,9.70,0.01,0.02,0.00,77.50,-23.25,-19.00
2026-06-27 11:34:30.821,-0.05,0.77,9.71,0.00,0.02,0.00,77.50,-23.25,-19.00
2026-06-27 11:34:30.835,-0.11,0.74,9.68,0.00,0.02,-0.00,77.50,-23.25,-19.00
2026-06-27 11:34:30.847,-0.11,0.73,9.69,0.00,0.02,0.00,77.50,-23.25,-19.00
2026-06-27 11:34:30.862,-0.13,0.75,9.70,0.00,0.02,-0.00,78.69,-23.56,-19.00
2026-06-27 11:34:30.874,-0.10,0.78,9.68,0.00,0.02,0.00,78.69,-23.56,-19.00
2026-06-27 11:34:30.891,-0.09,0.82,9.68,0.00,0.02,0.00,78.69,-23.56,-19.00
2026-06-27 11:34:30.903,-0.14,0.84,9.68,0.00,0.02,-0.00,78.25,-22.88,-19.38
2026-06-27 11:34:30.921,-0.14,0.82,9.70,0.00,0.01,-0.00,78.25,-22.88,-19.38
2026-06-27 11:34:30.935,-0.09,0.86,9.69,0.00,0.01,0.00,78.25,-22.88,-19.38
2026-06-27 11:34:30.948,-0.09,0.88,9.69,0.00,0.01,-0.00,78.25,-22.88,-19.38
2026-06-27 11:34:30.962,-0.08,0.89,9.69,0.00,0.01,0.00,77.88,-23.56,-19.00
2026-06-27 11:34:30.975,-0.09,0.82,9.64,0.00,0.01,0.00,77.88,-23.56,-19.00
2026-06-27 11:34:30.992,-0.09,0.83,9.67,0.00,0.01,0.00,77.88,-23.56,-19.00
2026-06-27 11:34:31.004,-0.10,0.77,9.71,0.00,0.01,0.00,77.88,-22.88,-19.75
2026-06-27 11:34:31.021,-0.10,0.76,9.68,0.00,0.01,0.00,77.88,-22.88,-19.75
2026-06-27 11:34:31.037,-0.12,0.73,9.72,-0.00,0.00,0.00,77.88,-22.88,-19.75
2026-06-27 11:34:31.052,-0.10,0.75,9.71,-0.00,0.00,0.00,78.25,-22.50,-19.38
2026-06-27 11:34:31.064,-0.08,0.72,9.68,-0.00,0.00,-0.00,78.25,-22.50,-19.38
2026-06-27 11:34:31.081,-0.09,0.78,9.70,0.00,-0.00,-0.00,78.25,-22.50,-19.38
2026-06-27 11:34:31.094,-0.10,0.79,9.69,-0.00,-0.00,0.00,78.25,-22.50,-19.38
2026-06-27 11:34:31.111,-0.09,0.82,9.69,-0.00,0.00,-0.00,77.88,-21.75,-18.50
2026-06-27 11:34:31.124,-0.08,0.83,9.68,-0.00,0.00,0.00,77.88,-21.75,-18.50
2026-06-27 11:34:31.142,-0.09,0.85,9.67,-0.00,0.00,-0.00,77.88,-21.75,-18.50
2026-06-27 11:34:31.154,-0.07,0.84,9.68,-0.00,0.01,0.00,78.25,-22.50,-19.00
2026-06-27 11:34:31.171,-0.10,0.83,9.68,0.00,0.00,0.00,78.25,-22.50,-19.00
2026-06-27 11:34:31.183,-0.10,0.79,9.70,0.00,0.00,0.00,78.25,-22.50,-19.00
2026-06-27 11:34:31.196,-0.11,0.80,9.68,-0.00,0.00,0.00,78.25,-22.50,-19.00
2026-06-27 11:34:31.212,-0.10,0.78,9.71,-0.00,0.00,0.00,79.00,-23.25,-18.50
2026-06-27 11:34:31.225,-0.11,0.76,9.68,-0.00,0.00,0.00,79.00,-23.25,-18.50
2026-06-27 11:34:31.242,-0.09,0.75,9.69,-0.00,0.00,-0.00,79.00,-23.25,-18.50
2026-06-27 11:34:31.254,-0.13,0.76,9.68,0.00,0.00,0.00,79.00,-22.06,-19.00
2026-06-27 11:34:31.271,-0.09,0.76,9.71,-0.00,0.00,-0.00,79.00,-22.06,-19.00
2026-06-27 11:34:31.284,-0.12,0.80,9.69,-0.00,-0.00,0.00,79.00,-22.06,-19.00
2026-06-27 11:34:31.297,-0.12,0.80,9.70,0.00,0.00,0.00,79.00,-22.06,-19.00
2026-06-27 11:34:31.312,-0.10,0.82,9.70,-0.00,-0.00,0.00,78.25,-23.56,-19.00
2026-06-27 11:34:31.325,-0.09,0.82,9.67,-0.00,0.00,-0.00,78.25,-23.56,-19.00
2026-06-27 11:34:31.342,-0.10,0.81,9.65,-0.00,0.00,-0.00,78.25,-23.56,-19.00
2026-06-27 11:34:31.355,-0.10,0.82,9.71,-0.00,0.00,0.00,78.25,-22.50,-19.75
2026-06-27 11:34:31.372,-0.09,0.81,9.68,0.00,0.00,0.00,78.25,-22.50,-19.75
2026-06-27 11:34:31.385,-0.09,0.78,9.68,0.00,0.00,0.00,78.25,-22.50,-19.75
2026-06-27 11:34:31.397,-0.09,0.80,9.68,-0.00,0.00,-0.00,78.25,-22.50,-19.75
2026-06-27 11:34:31.412,-0.10,0.77,9.71,-0.00,0.00,-0.00,78.69,-23.25,-19.75
2026-06-27 11:34:31.425,-0.11,0.77,9.68,-0.00,0.00,0.00,78.69,-23.25,-19.75
2026-06-27 11:34:31.443,-0.09,0.74,9.68,-0.00,0.00,0.00,78.69,-23.25,-19.75
2026-06-27 11:34:31.456,-0.11,0.77,9.70,-0.00,0.00,0.00,78.69,-22.06,-19.00
2026-06-27 11:34:31.472,-0.12,0.80,9.68,-0.00,-0.00,0.00,78.69,-22.06,-19.00
2026-06-27 11:34:31.485,-0.09,0.79,9.70,-0.00,0.00,-0.00,78.69,-22.06,-19.00
2026-06-27 11:34:31.497,-0.11,0.78,9.67,0.00,0.01,-0.00,78.69,-22.06,-19.00
2026-06-27 11:34:31.512,-0.13,0.80,9.67,-0.00,-0.00,0.00,79.38,-22.50,-19.38
2026-06-27 11:34:31.525,-0.08,0.81,9.67,-0.00,0.00,0.00,79.38,-22.50,-19.38
2026-06-27 11:34:31.542,-0.08,0.83,9.72,0.00,0.00,0.00,79.38,-22.50,-19.38
2026-06-27 11:34:31.555,-0.11,0.81,9.72,0.00,0.00,0.00,79.00,-22.06,-19.38
2026-06-27 11:34:31.573,-0.12,0.80,9.71,0.00,0.00,0.00,79.00,-22.06,-19.38
2026-06-27 11:34:31.585,-0.10,0.78,9.67,-0.00,0.00,0.00,79.00,-22.06,-19.38
2026-06-27 11:34:31.597,-0.09,0.77,9.69,-0.00,0.00,-0.00,79.00,-22.06,-19.38
2026-06-27 11:34:31.613,-0.12,0.76,9.69,0.00,0.00,0.00,77.88,-22.50,-19.00
2026-06-27 11:34:31.625,-0.11,0.78,9.71,0.00,0.00,0.00,77.88,-22.50,-19.00
2026-06-27 11:34:31.643,-0.12,0.76,9.72,-0.00,0.00,0.00,77.88,-22.50,-19.00
2026-06-27 11:34:31.655,-0.11,0.76,9.69,-0.00,-0.00,-0.00,78.25,-22.50,-19.00
2026-06-27 11:34:31.673,-0.10,0.79,9.70,0.00,-0.00,-0.00,78.25,-22.50,-19.00
2026-06-27 11:34:31.685,-0.10,0.80,9.68,0.00,0.00,-0.00,78.25,-22.50,-19.00
2026-06-27 11:34:31.697,-0.11,0.82,9.68,0.00,0.00,0.00,78.25,-22.50,-19.00
2026-06-27 11:34:31.713,-0.11,0.80,9.68,-0.00,0.00,0.00,78.25,-22.88,-19.38
2026-06-27 11:34:31.725,-0.09,0.82,9.67,0.00,0.00,-0.00,78.25,-22.88,-19.38
2026-06-27 11:34:31.743,-0.11,0.81,9.70,0.00,0.00,0.00,78.25,-22.88,-19.38
2026-06-27 11:34:31.762,-0.12,0.78,9.70,0.00,0.00,0.00,77.50,-22.50,-19.00
2026-06-27 11:34:31.775,-0.11,0.77,9.67,0.00,0.00,-0.00,77.50,-22.50,-19.00
2026-06-27 11:34:31.794,-0.14,0.79,9.67,-0.00,0.00,0.00,77.50,-22.50,-19.00
2026-06-27 11:34:31.806,-0.13,0.78,9.69,0.00,0.00,0.00,78.25,-22.06,-18.19
2026-06-27 11:34:31.823,-0.14,0.78,9.69,0.00,-0.00,0.00,78.25,-22.06,-18.19
2026-06-27 11:34:31.836,-0.14,0.80,9.68,-0.00,-0.00,0.00,78.25,-22.06,-18.19
2026-06-27 11:34:31.848,-0.15,0.79,9.67,0.00,-0.00,-0.00,78.25,-22.06,-18.19
2026-06-27 11:34:31.864,-0.17,0.79,9.68,-0.00,-0.00,0.00,78.69,-23.25,-19.38
2026-06-27 11:34:31.876,-0.16,0.81,9.67,-0.00,-0.00,-0.00,78.69,-23.25,-19.38
2026-06-27 11:34:31.893,-0.14,0.81,9.68,-0.00,-0.00,0.00,78.69,-23.25,-19.38
2026-06-27 11:34:31.906,-0.15,0.84,9.67,-0.00,-0.01,0.00,78.25,-22.88,-20.19
2026-06-27 11:34:31.923,-0.14,0.82,9.72,-0.00,-0.01,0.00,78.25,-22.88,-20.19
2026-06-27 11:34:31.936,-0.15,0.80,9.70,-0.00,-0.00,0.00,78.25,-22.88,-20.19
2026-06-27 11:34:31.948,-0.16,0.81,9.68,0.00,-0.01,0.00,78.25,-22.88,-20.19
2026-06-27 11:34:31.964,-0.14,0.81,9.71,-0.00,-0.01,0.00,77.88,-22.88,-19.38
2026-06-27 11:34:31.976,-0.09,0.79,9.67,-0.00,-0.01,-0.00,77.88,-22.88,-19.38
2026-06-27 11:34:31.994,-0.09,0.81,9.69,-0.00,-0.01,-0.00,77.88,-22.88,-19.38
2026-06-27 11:34:32.006,-0.12,0.76,9.65,-0.00,-0.01,-0.00,77.88,-22.50,-18.50
2026-06-27 11:34:32.024,-0.10,0.78,9.67,-0.00,-0.01,-0.00,77.88,-22.50,-18.50
2026-06-27 11:34:32.036,-0.10,0.77,9.67,0.00,-0.01,0.00,77.88,-22.50,-18.50
2026-06-27 11:34:32.048,-0.12,0.77,9.68,-0.00,-0.01,0.00,77.88,-22.50,-18.50
2026-06-27 11:34:32.064,-0.12,0.77,9.71,0.00,-0.01,0.00,78.25,-22.50,-19.75
2026-06-27 11:34:32.076,-0.10,0.80,9.67,0.00,-0.00,-0.00,78.25,-22.50,-19.75
2026-06-27 11:34:32.093,-0.11,0.78,9.67,-0.00,-0.01,0.00,78.25,-22.50,-19.75
2026-06-27 11:34:32.106,-0.06,0.79,9.70,-0.00,-0.00,-0.00,79.00,-22.50,-19.00
2026-06-27 11:34:32.123,-0.11,0.80,9.67,0.00,-0.00,-0.00,79.00,-22.50,-19.00
2026-06-27 11:34:32.136,-0.08,0.78,9.68,-0.00,-0.00,0.00,79.00,-22.50,-19.00
2026-06-27 11:34:32.148,-0.08,0.82,9.70,0.00,0.00,0.00,79.00,-22.50,-19.00
2026-06-27 11:34:32.164,-0.09,0.79,9.68,0.00,-0.00,0.00,78.69,-22.06,-19.38
2026-06-27 11:34:32.176,-0.10,0.82,9.69,0.00,0.00,-0.00,78.69,-22.06,-19.38
2026-06-27 11:34:32.193,-0.09,0.77,9.70,0.00,0.00,0.00,78.69,-22.06,-19.38
2026-06-27 11:34:32.206,-0.09,0.78,9.68,0.00,-0.00,0.00,79.00,-22.50,-19.00
2026-06-27 11:34:32.223,-0.12,0.77,9.68,0.00,0.00,0.00,79.00,-22.50,-19.00
2026-06-27 11:34:32.235,-0.10,0.76,9.69,0.00,-0.00,0.00,79.00,-22.50,-19.00
2026-06-27 11:34:32.248,-0.13,0.81,9.69,0.00,0.00,0.00,79.00,-22.50,-19.00
2026-06-27 11:34:32.264,-0.12,0.80,9.74,-0.00,-0.00,0.00,77.88,-22.88,-19.38
2026-06-27 11:34:32.276,-0.16,0.83,9.67,-0.00,-0.00,-0.00,77.88,-22.88,-19.38
2026-06-27 11:34:32.293,-0.11,0.80,9.68,0.00,-0.00,-0.00,77.88,-22.88,-19.38
2026-06-27 11:34:32.305,-0.14,0.84,9.70,-0.00,-0.01,-0.00,77.88,-23.25,-19.75
2026-06-27 11:34:32.319,-0.13,0.82,9.70,-0.00,-0.01,0.00,77.88,-23.25,-19.75
2026-06-27 11:34:32.335,-0.13,0.83,9.66,-0.00,-0.01,-0.00,77.88,-23.25,-19.75
2026-06-27 11:34:32.347,-0.09,0.84,9.69,0.00,-0.01,-0.00,77.88,-23.25,-19.75
2026-06-27 11:34:32.364,-0.11,0.82,9.70,-0.00,-0.01,-0.00,79.00,-23.25,-19.38
2026-06-27 11:34:32.376,-0.09,0.81,9.67,-0.00,-0.00,-0.00,79.00,-23.25,-19.38
2026-06-27 11:34:32.394,-0.11,0.78,9.66,0.00,-0.01,0.00,79.00,-23.25,-19.38
2026-06-27 11:34:32.406,-0.16,0.79,9.67,-0.00,-0.02,0.00,77.88,-22.88,-19.38
2026-06-27 11:34:32.424,-0.15,0.79,9.68,-0.00,-0.02,0.00,77.88,-22.88,-19.38
2026-06-27 11:34:32.437,-0.17,0.81,9.67,-0.00,-0.01,0.00,77.88,-22.88,-19.38
2026-06-27 11:34:32.450,-0.15,0.78,9.68,-0.00,-0.01,0.00,77.88,-22.88,-19.38
2026-06-27 11:34:32.465,-0.13,0.78,9.69,-0.00,-0.02,-0.00,78.69,-22.50,-20.50
2026-06-27 11:34:32.477,-0.10,0.80,9.64,-0.00,-0.02,-0.00,78.69,-22.50,-20.50
2026-06-27 11:34:32.494,-0.10,0.80,9.66,-0.00,-0.02,-0.00,78.69,-22.50,-20.50
2026-06-27 11:34:32.507,-0.06,0.81,9.67,-0.00,-0.02,0.00,78.25,-22.06,-18.50
2026-06-27 11:34:32.524,-0.07,0.84,9.68,-0.00,-0.02,0.00,78.25,-22.06,-18.50
2026-06-27 11:34:32.536,-0.06,0.81,9.71,-0.00,-0.03,0.00,78.25,-22.06,-18.50
2026-06-27 11:34:32.549,-0.04,0.81,9.69,-0.00,-0.02,-0.00,78.25,-22.06,-18.50
2026-06-27 11:34:32.565,-0.06,0.82,9.74,-0.00,-0.02,-0.00,78.25,-23.25,-19.75
2026-06-27 11:34:32.577,-0.04,0.76,9.66,-0.00,-0.02,-0.00,78.25,-23.25,-19.75
2026-06-27 11:34:32.594,-0.06,0.78,9.68,-0.00,-0.02,-0.00,78.25,-23.25,-19.75
2026-06-27 11:34:32.606,-0.05,0.77,9.67,-0.00,-0.02,0.00,77.88,-22.88,-19.00
2026-06-27 11:34:32.624,-0.05,0.78,9.69,-0.00,-0.02,0.00,77.88,-22.88,-19.00
2026-06-27 11:34:32.636,-0.02,0.76,9.67,-0.00,-0.02,0.00,77.88,-22.88,-19.00
2026-06-27 11:34:32.649,-0.05,0.77,9.72,-0.00,-0.02,-0.00,77.88,-22.88,-19.00
2026-06-27 11:34:32.665,-0.05,0.78,9.69,-0.00,-0.02,0.00,77.88,-22.50,-17.75
2026-06-27 11:34:32.677,-0.08,0.79,9.67,-0.00,-0.02,-0.00,77.88,-22.50,-17.75
2026-06-27 11:34:32.696,-0.04,0.78,9.67,-0.00,-0.02,0.00,77.88,-22.50,-17.75
2026-06-27 11:34:32.708,-0.04,0.81,9.68,-0.00,-0.02,0.00,77.88,-22.50,-20.50
2026-06-27 11:34:32.725,-0.02,0.78,9.68,-0.00,-0.02,-0.00,77.88,-22.50,-20.50
2026-06-27 11:34:32.737,-0.05,0.80,9.70,-0.00,-0.03,-0.00,77.88,-22.50,-20.50
2026-06-27 11:34:32.749,-0.03,0.80,9.67,-0.00,-0.02,-0.00,77.88,-22.50,-20.50
2026-06-27 11:34:32.763,-0.04,0.81,9.69,-0.00,-0.02,-0.00,77.88,-22.50,-21.00
2026-06-27 11:34:32.776,-0.05,0.81,9.71,-0.00,-0.02,-0.00,77.88,-22.50,-21.00
2026-06-27 11:34:32.788,-0.04,0.79,9.68,-0.00,-0.03,0.00,77.88,-22.50,-21.00
2026-06-27 11:34:32.801,-0.04,0.79,9.71,-0.00,-0.03,0.00,77.88,-22.50,-21.00
2026-06-27 11:34:32.814,-0.04,0.78,9.72,-0.00,-0.03,0.00,77.50,-22.50,-19.38
2026-06-27 11:34:32.828,-0.02,0.79,9.68,-0.00,-0.03,-0.00,77.50,-22.50,-19.38
2026-06-27 11:34:32.846,-0.02,0.77,9.69,-0.00,-0.03,0.00,77.50,-22.50,-19.38
2026-06-27 11:34:32.859,-0.02,0.76,9.68,-0.00,-0.03,-0.00,77.88,-23.25,-18.50
2026-06-27 11:34:32.875,-0.02,0.77,9.65,-0.00,-0.03,0.00,77.88,-23.25,-18.50
2026-06-27 11:34:32.895,-0.02,0.78,9.68,-0.00,-0.03,0.00,77.88,-23.25,-18.50
2026-06-27 11:34:32.908,0.00,0.81,9.69,-0.01,-0.03,0.00,77.88,-22.88,-20.19
2026-06-27 11:34:32.925,0.00,0.78,9.69,-0.00,-0.03,-0.00,77.88,-22.88,-20.19
2026-06-27 11:34:32.938,0.02,0.79,9.66,-0.00,-0.03,0.00,77.88,-22.88,-20.19
2026-06-27 11:34:32.951,0.01,0.79,9.71,-0.01,-0.03,-0.00,77.88,-22.88,-20.19
2026-06-27 11:34:32.964,0.02,0.79,9.68,-0.00,-0.03,-0.00,77.88,-22.88,-19.38
2026-06-27 11:34:32.976,0.09,0.77,9.66,-0.00,-0.03,-0.00,77.88,-22.88,-19.38
2026-06-27 11:34:32.993,0.06,0.77,9.69,-0.00,-0.03,-0.00,77.88,-22.88,-19.38
2026-06-27 11:34:33.006,0.16,0.65,9.73,-0.00,-0.02,-0.00,77.50,-22.50,-20.50
2026-06-27 11:34:33.019,0.18,0.61,9.70,-0.00,-0.02,-0.00,77.50,-22.50,-20.50
2026-06-27 11:34:33.036,0.19,0.62,9.62,-0.00,-0.02,-0.01,77.50,-22.50,-20.50
2026-06-27 11:34:33.049,0.07,0.65,9.71,-0.00,-0.02,-0.00,77.50,-22.50,-20.50
2026-06-27 11:34:33.066,0.09,0.72,9.71,-0.00,-0.02,0.00,77.19,-22.88,-20.50
2026-06-27 11:34:33.079,0.10,0.86,9.71,-0.00,-0.01,0.00,77.19,-22.88,-20.50
2026-06-27 11:34:33.096,0.11,0.86,9.72,-0.00,-0.01,0.00,77.19,-22.88,-20.50
2026-06-27 11:34:33.108,0.14,0.83,9.70,-0.00,-0.00,-0.00,77.19,-22.06,-20.50
2026-06-27 11:34:33.125,0.08,0.85,9.68,-0.00,-0.00,-0.00,77.19,-22.06,-20.50
2026-06-27 11:34:33.138,0.05,0.75,9.65,0.00,0.00,0.00,77.19,-22.06,-20.50
2026-06-27 11:34:33.150,0.06,0.71,9.68,-0.00,0.00,0.00,77.19,-22.06,-20.50
2026-06-27 11:34:33.166,0.09,0.68,9.71,-0.00,0.00,0.00,77.19,-22.06,-21.00
2026-06-27 11:34:33.179,0.07,0.70,9.68,0.00,-0.00,-0.00,77.19,-22.06,-21.00
2026-06-27 11:34:33.196,0.09,0.75,9.68,-0.00,-0.00,-0.00,77.19,-22.06,-21.00
2026-06-27 11:34:33.208,0.04,0.81,9.68,-0.00,0.01,-0.00,76.75,-23.25,-21.75
2026-06-27 11:34:33.226,0.09,0.82,9.69,-0.00,0.01,-0.00,76.75,-23.25,-21.75
2026-06-27 11:34:33.238,0.08,0.84,9.71,0.00,0.01,0.00,76.75,-23.25,-21.75
2026-06-27 11:34:33.251,0.06,0.79,9.68,0.00,0.01,0.00,76.75,-23.25,-21.75
2026-06-27 11:34:33.267,0.06,0.72,9.71,0.00,0.01,0.00,76.75,-22.88,-21.38
2026-06-27 11:34:33.279,0.09,0.74,9.65,0.00,0.01,-0.00,76.75,-22.88,-21.38
2026-06-27 11:34:33.296,0.08,0.72,9.67,0.00,0.01,-0.00,76.75,-22.88,-21.38
2026-06-27 11:34:33.309,0.06,0.74,9.68,0.00,0.01,0.00,76.75,-22.88,-21.38
2026-06-27 11:34:33.327,0.06,0.77,9.66,-0.00,0.01,0.00,76.75,-22.88,-21.38
2026-06-27 11:34:33.339,0.07,0.77,9.69,0.00,0.01,0.00,76.75,-22.88,-21.38
2026-06-27 11:34:33.352,0.03,0.77,9.73,-0.00,0.02,0.00,76.75,-22.88,-21.38
2026-06-27 11:34:33.367,0.04,0.77,9.71,0.00,0.02,0.00,77.50,-22.88,-20.50
2026-06-27 11:34:33.379,0.03,0.77,9.67,0.00,0.01,-0.00,77.50,-22.88,-20.50
2026-06-27 11:34:33.397,0.02,0.78,9.70,0.00,0.01,0.00,77.50,-22.88,-20.50
2026-06-27 11:34:33.410,0.01,0.75,9.68,0.00,0.01,0.00,76.75,-22.06,-21.00
2026-06-27 11:34:33.427,0.03,0.76,9.68,0.00,0.01,-0.00,76.75,-22.06,-21.00
2026-06-27 11:34:33.439,0.03,0.75,9.68,0.00,0.01,0.00,76.75,-22.06,-21.00
2026-06-27 11:34:33.451,0.00,0.78,9.68,0.00,0.01,0.00,76.75,-22.06,-21.00
2026-06-27 11:34:33.467,0.00,0.77,9.69,0.00,0.01,0.00,77.19,-22.50,-21.75
2026-06-27 11:34:33.479,0.04,0.81,9.67,0.00,0.01,-0.00,77.19,-22.50,-21.75
2026-06-27 11:34:33.497,0.02,0.81,9.66,0.00,0.01,0.00,77.19,-22.50,-21.75
2026-06-27 11:34:33.510,0.00,0.83,9.68,0.00,0.01,-0.00,77.19,-22.50,-21.00
2026-06-27 11:34:33.527,0.00,0.79,9.66,0.00,0.01,0.00,77.19,-22.50,-21.00
2026-06-27 11:34:33.539,0.00,0.79,9.70,0.00,0.01,0.00,77.19,-22.50,-21.00
2026-06-27 11:34:33.551,0.01,0.78,9.68,0.00,0.01,0.00,77.19,-22.50,-21.00
2026-06-27 11:34:33.567,-0.01,0.78,9.66,0.00,0.01,0.00,76.75,-22.88,-20.50
2026-06-27 11:34:33.579,0.03,0.76,9.70,0.00,0.01,-0.00,76.75,-22.88,-20.50
2026-06-27 11:34:33.597,0.00,0.77,9.68,0.00,0.01,-0.00,76.75,-22.88,-20.50
2026-06-27 11:34:33.609,0.02,0.77,9.68,0.00,0.01,0.00,76.50,-22.06,-19.75
2026-06-27 11:34:33.627,0.00,0.77,9.68,0.00,0.01,0.00,76.50,-22.06,-19.75
2026-06-27 11:34:33.639,0.01,0.79,9.68,0.00,0.00,0.00,76.50,-22.06,-19.75
2026-06-27 11:34:33.652,0.03,0.77,9.68,0.00,0.00,0.00,76.50,-22.06,-19.75
2026-06-27 11:34:33.667,0.03,0.80,9.69,0.00,0.00,0.00,76.38,-22.88,-21.00
2026-06-27 11:34:33.680,0.04,0.78,9.70,0.00,0.01,-0.00,76.38,-22.88,-21.00
2026-06-27 11:34:33.697,0.04,0.75,9.66,0.00,0.01,-0.00,76.38,-22.88,-21.00
2026-06-27 11:34:33.710,0.04,0.76,9.66,0.00,0.01,-0.00,78.25,-21.75,-20.19
2026-06-27 11:34:33.728,0.03,0.76,9.68,0.00,0.01,0.00,78.25,-21.75,-20.19
2026-06-27 11:34:33.741,0.05,0.76,9.68,0.00,0.01,0.00,78.25,-21.75,-20.19
2026-06-27 11:34:33.753,0.04,0.78,9.67,0.00,0.02,0.00,78.25,-21.75,-20.19
2026-06-27 11:34:33.768,0.00,0.74,9.69,0.00,0.02,0.00,77.19,-22.88,-20.50
2026-06-27 11:34:33.780,-0.02,0.76,9.68,0.00,0.02,0.00,77.19,-22.88,-20.50
2026-06-27 11:34:33.797,0.00,0.76,9.68,0.00,0.02,-0.00,77.19,-22.88,-20.50
2026-06-27 11:34:33.810,0.00,0.77,9.68,0.00,0.02,0.00,77.19,-22.50,-20.50
2026-06-27 11:34:33.827,-0.02,0.77,9.69,0.00,0.02,0.00,77.19,-22.50,-20.50
2026-06-27 11:34:33.840,-0.02,0.81,9.69,0.00,0.01,0.00,77.19,-22.50,-20.50
2026-06-27 11:34:33.853,-0.01,0.80,9.71,0.00,0.02,0.00,77.19,-22.50,-20.50
2026-06-27 11:34:33.868,-0.03,0.80,9.70,0.00,0.02,-0.00,77.50,-22.50,-21.00
2026-06-27 11:34:33.887,-0.05,0.81,9.65,-0.00,0.01,-0.00,77.50,-22.50,-21.00
2026-06-27 11:34:33.899,-0.04,0.80,9.71,0.00,0.01,-0.00,77.50,-22.50,-21.00
2026-06-27 11:34:33.917,-0.03,0.80,9.70,-0.00,0.01,0.00,77.19,-22.88,-19.75
2026-06-27 11:34:33.929,-0.06,0.78,9.69,-0.00,0.01,0.00,77.19,-22.88,-19.75
2026-06-27 11:34:33.946,-0.04,0.79,9.68,0.00,0.00,0.00,77.19,-22.88,-19.75
2026-06-27 11:34:33.959,-0.02,0.78,9.69,0.00,0.00,0.00,76.75,-22.50,-20.19
2026-06-27 11:34:33.976,-0.05,0.80,9.69,0.00,0.00,-0.00,76.75,-22.50,-20.19
2026-06-27 11:34:33.989,-0.05,0.79,9.70,0.00,0.00,0.00,76.75,-22.50,-20.19
2026-06-27 11:34:33.002,-0.03,0.79,9.68,-0.00,0.00,0.00,76.75,-22.50,-20.19
2026-06-27 11:34:34.018,-0.05,0.80,9.69,-0.00,0.00,-0.00,78.25,-23.25,-21.00
2026-06-27 11:34:34.030,-0.04,0.81,9.68,-0.00,-0.00,0.00,78.25,-23.25,-21.00
2026-06-27 11:34:34.047,-0.05,0.81,9.69,-0.00,-0.00,-0.00,78.25,-23.25,-21.00
2026-06-27 11:34:34.060,-0.04,0.78,9.68,-0.00,-0.00,-0.00,76.75,-22.50,-21.00
2026-06-27 11:34:34.076,-0.05,0.78,9.69,-0.00,-0.00,0.00,76.75,-22.50,-21.00
2026-06-27 11:34:34.089,-0.04,0.78,9.69,-0.00,-0.01,0.00,76.75,-22.50,-21.00
2026-06-27 11:34:34.101,-0.05,0.78,9.68,-0.00,-0.01,0.00,76.75,-22.50,-21.00
2026-06-27 11:34:34.118,-0.05,0.80,9.71,-0.00,-0.01,0.00,77.88,-22.88,-19.75
2026-06-27 11:34:34.130,-0.06,0.78,9.70,-0.00,-0.01,0.00,77.88,-22.88,-19.75
2026-06-27 11:34:34.147,-0.05,0.77,9.67,-0.00,-0.01,-0.00,77.88,-22.88,-19.75
2026-06-27 11:34:34.160,-0.04,0.79,9.68,-0.00,-0.01,-0.00,77.88,-22.06,-19.75
2026-06-27 11:34:34.175,-0.04,0.79,9.68,-0.00,-0.01,0.00,77.88,-22.06,-19.75
2026-06-27 11:34:34.189,-0.04,0.78,9.68,-0.00,-0.01,0.00,77.88,-22.06,-19.75
2026-06-27 11:34:34.201,-0.04,0.79,9.69,0.00,-0.01,0.00,77.88,-22.06,-19.75
2026-06-27 11:34:34.219,-0.01,0.82,9.71,-0.00,-0.01,-0.00,78.25,-22.50,-21.38
2026-06-27 11:34:34.231,-0.02,0.80,9.68,-0.00,-0.01,-0.00,78.25,-22.50,-21.38
2026-06-27 11:34:34.248,-0.05,0.79,9.68,-0.00,-0.01,-0.00,78.25,-22.50,-21.38
2026-06-27 11:34:34.261,-0.02,0.80,9.68,-0.01,-0.01,0.00,78.25,-22.88,-20.19
2026-06-27 11:34:34.278,-0.05,0.78,9.70,-0.00,-0.02,0.00,78.25,-22.88,-20.19
2026-06-27 11:34:34.291,-0.04,0.78,9.69,-0.00,-0.02,0.00,78.25,-22.88,-20.19
2026-06-27 11:34:34.304,-0.02,0.77,9.70,-0.00,-0.02,0.00,78.25,-22.88,-20.19
2026-06-27 11:34:34.319,-0.03,0.78,9.68,-0.00,-0.02,0.00,77.50,-22.06,-21.00
2026-06-27 11:34:34.332,-0.03,0.78,9.68,-0.00,-0.02,-0.00,77.50,-22.06,-21.00
2026-06-27 11:34:34.349,-0.02,0.77,9.68,-0.00,-0.02,-0.00,77.50,-22.06,-21.00
2026-06-27 11:34:34.361,0.02,0.77,9.68,-0.00,-0.02,0.00,76.50,-22.88,-21.00
2026-06-27 11:34:34.378,0.16,0.76,9.76,-0.01,-0.02,-0.00,76.50,-22.88,-21.00
2026-06-27 11:34:34.391,0.19,0.74,9.65,0.00,-0.01,-0.01,76.50,-22.88,-21.00
2026-06-27 11:34:34.403,0.15,0.71,9.66,-0.00,-0.01,-0.01,76.50,-22.88,-21.00
2026-06-27 11:34:34.419,0.11,0.72,9.65,-0.00,0.00,0.00,77.50,-22.06,-19.75
2026-06-27 11:34:34.431,0.15,0.67,9.65,-0.00,0.01,0.01,77.50,-22.06,-19.75
2026-06-27 11:34:34.449,0.16,0.72,9.72,0.00,0.01,0.01,77.50,-22.06,-19.75
2026-06-27 11:34:34.461,0.09,0.72,9.74,0.00,0.01,0.00,77.50,-22.06,-19.75
2026-06-27 11:34:34.478,0.04,0.71,9.71,0.00,0.02,0.00,77.50,-22.06,-19.75
2026-06-27 11:34:34.490,0.07,0.71,9.65,0.00,0.02,-0.00,77.50,-22.06,-19.75
2026-06-27 11:34:34.503,0.02,0.74,9.64,0.00,0.03,-0.00,77.50,-22.06,-19.75
2026-06-27 11:34:34.516,-0.04,0.75,9.69,0.00,0.03,0.00,77.88,-23.25,-19.75
2026-06-27 11:34:34.529,-0.03,0.77,9.69,0.00,0.03,0.01,77.88,-23.25,-19.75
2026-06-27 11:34:34.542,0.00,0.78,9.69,0.00,0.03,0.01,77.88,-23.25,-19.75
2026-06-27 11:34:34.555,-0.02,0.77,9.73,0.00,0.03,0.01,77.88,-23.25,-19.75
2026-06-27 11:34:34.569,-0.07,0.79,9.75,0.00,0.03,-0.00,78.25,-23.25,-19.38
2026-06-27 11:34:34.581,-0.07,0.80,9.65,0.00,0.03,-0.00,78.25,-23.25,-19.38
2026-06-27 11:34:34.597,-0.05,0.81,9.67,0.00,0.03,-0.01,78.25,-23.25,-19.38
2026-06-27 11:34:34.610,-0.04,0.77,9.69,0.00,0.02,0.01,78.25,-23.25,-19.38
2026-06-27 11:34:34.623,-0.08,0.81,9.71,0.00,0.02,0.01,78.25,-23.25,-19.38
2026-06-27 11:34:34.640,-0.09,0.86,9.66,0.00,0.02,0.00,78.25,-23.25,-19.38
2026-06-27 11:34:34.652,-0.06,0.82,9.69,0.00,0.03,-0.00,78.25,-23.25,-19.38
2026-06-27 11:34:34.665,-0.08,0.80,9.66,0.00,0.03,-0.01,78.69,-22.88,-20.19
2026-06-27 11:34:34.679,-0.09,0.80,9.66,0.00,0.02,0.00,78.69,-22.88,-20.19
2026-06-27 11:34:34.692,-0.10,0.78,9.66,0.00,0.02,0.00,78.69,-22.88,-20.19
2026-06-27 11:34:34.704,-0.11,0.78,9.65,0.00,0.02,0.01,78.69,-22.88,-20.19
2026-06-27 11:34:34.720,-0.12,0.77,9.70,0.00,0.01,0.01,77.50,-22.06,-18.50
2026-06-27 11:34:34.733,-0.20,0.77,9.73,0.00,0.01,0.00,77.50,-22.06,-18.50
2026-06-27 11:34:34.750,-0.20,0.78,9.71,0.00,0.01,-0.00,77.50,-22.06,-18.50
2026-06-27 11:34:34.762,-0.18,0.82,9.68,-0.00,0.01,-0.00,78.25,-22.88,-20.50
2026-06-27 11:34:34.779,-0.18,0.83,9.68,-0.00,0.01,-0.01,78.25,-22.88,-20.50
2026-06-27 11:34:34.791,-0.13,0.90,9.69,-0.00,-0.00,0.00,78.25,-22.88,-20.50
2026-06-27 11:34:34.804,-0.10,0.91,9.68,-0.00,-0.00,0.00,78.25,-22.88,-20.50
2026-06-27 11:34:34.820,-0.08,0.91,9.69,-0.00,-0.00,0.00,78.25,-22.88,-19.38
2026-06-27 11:34:34.833,-0.11,0.86,9.68,-0.00,-0.00,0.00,78.25,-22.88,-19.38
2026-06-27 11:34:34.850,-0.07,0.86,9.68,-0.00,-0.00,0.00,78.25,-22.88,-19.38
2026-06-27 11:34:34.862,-0.11,0.87,9.67,-0.00,-0.00,-0.00,78.69,-22.06,-19.75
2026-06-27 11:34:34.879,-0.08,0.81,9.68,-0.00,-0.00,0.00,78.69,-22.06,-19.75
2026-06-27 11:34:34.891,-0.08,0.75,9.65,-0.00,-0.00,0.00,78.69,-22.06,-19.75
2026-06-27 11:34:34.904,-0.10,0.73,9.68,-0.00,-0.00,0.00,78.69,-22.06,-19.75
2026-06-27 11:34:34.920,-0.09,0.71,9.68,-0.00,-0.00,0.00,78.25,-22.50,-19.00
2026-06-27 11:34:34.933,-0.09,0.69,9.69,-0.00,0.00,0.00,78.25,-22.50,-19.00
2026-06-27 11:34:34.950,-0.06,0.69,9.67,-0.00,-0.01,0.00,78.25,-22.50,-19.00
2026-06-27 11:34:34.963,-0.06,0.73,9.67,-0.00,-0.01,-0.00,79.00,-22.50,-19.75
2026-06-27 11:34:34.980,-0.10,0.75,9.68,-0.00,-0.01,-0.00,79.00,-22.50,-19.75
2026-06-27 11:34:34.993,-0.08,0.82,9.68,-0.00,-0.01,0.00,79.00,-22.50,-19.75
2026-06-27 11:34:35.010,-0.09,0.84,9.69,-0.00,-0.01,0.00,77.88,-22.50,-19.00
2026-06-27 11:34:35.022,-0.06,0.86,9.69,-0.00,-0.00,0.00,77.88,-22.50,-19.00
2026-06-27 11:34:35.034,-0.08,0.88,9.66,0.00,-0.00,-0.00,77.88,-22.50,-19.00
2026-06-27 11:34:35.051,-0.06,0.85,9.68,-0.00,-0.01,-0.00,77.88,-22.50,-19.00
2026-06-27 11:34:35.063,-0.06,0.81,9.70,-0.00,0.00,0.00,78.25,-22.06,-19.38
2026-06-27 11:34:35.080,-0.09,0.80,9.68,0.00,-0.00,0.00,78.25,-22.06,-19.38
2026-06-27 11:34:35.093,-0.11,0.76,9.68,-0.00,-0.00,0.00,78.25,-22.06,-19.38
2026-06-27 11:34:35.105,-0.10,0.72,9.70,-0.00,-0.00,0.00,78.25,-22.06,-19.38
2026-06-27 11:34:35.121,-0.08,0.72,9.68,-0.00,-0.00,0.00,79.38,-23.25,-20.19
2026-06-27 11:34:35.133,-0.12,0.73,9.68,-0.00,-0.01,-0.00,79.38,-23.25,-20.19
2026-06-27 11:34:35.150,-0.13,0.74,9.67,-0.00,-0.01,-0.00,79.38,-23.25,-20.19
2026-06-27 11:34:35.163,-0.06,0.78,9.70,-0.00,-0.01,-0.00,79.00,-22.88,-20.50
2026-06-27 11:34:35.180,-0.09,0.77,9.67,-0.00,-0.01,-0.00,79.00,-22.88,-20.50
2026-06-27 11:34:35.193,-0.07,0.85,9.70,-0.00,-0.01,-0.00,79.00,-22.88,-20.50
2026-06-27 11:34:35.207,-0.06,0.86,9.66,-0.00,-0.01,-0.00,79.00,-22.88,-20.50
2026-06-27 11:34:35.221,-0.09,0.86,9.70,-0.00,-0.01,0.00,77.50,-22.88,-19.75
2026-06-27 11:34:35.234,-0.05,0.85,9.68,-0.00,-0.01,0.00,77.50,-22.88,-19.75
2026-06-27 11:34:35.251,-0.08,0.85,9.70,-0.00,-0.01,0.00,77.50,-22.88,-19.75
2026-06-27 11:34:35.263,-0.06,0.81,9.68,-0.00,-0.01,0.00,78.69,-22.50,-19.75
2026-06-27 11:34:35.281,-0.05,0.79,9.68,-0.00,-0.01,-0.00,78.69,-22.50,-19.75
2026-06-27 11:34:35.293,-0.08,0.74,9.66,-0.00,-0.01,0.00,78.69,-22.50,-19.75
2026-06-27 11:34:35.305,-0.09,0.74,9.69,-0.00,-0.01,-0.00,78.69,-22.50,-19.75
2026-06-27 11:34:35.321,-0.08,0.73,9.71,0.00,-0.01,-0.00,78.25,-22.50,-19.00
2026-06-27 11:34:35.333,-0.08,0.73,9.68,-0.00,-0.01,0.00,78.25,-22.50,-19.00
2026-06-27 11:34:35.351,-0.09,0.73,9.69,-0.00,-0.01,0.00,78.25,-22.50,-19.00
2026-06-27 11:34:35.364,-0.08,0.77,9.70,-0.00,-0.01,0.00,78.25,-22.88,-20.19
2026-06-27 11:34:35.381,-0.07,0.79,9.68,-0.00,-0.01,-0.00,78.25,-22.88,-20.19
2026-06-27 11:34:35.393,-0.06,0.81,9.69,-0.00,-0.01,-0.00,78.25,-22.88,-20.19
2026-06-27 11:34:35.406,-0.07,0.84,9.69,-0.00,-0.01,0.00,78.25,-22.88,-20.19
2026-06-27 11:34:35.421,-0.07,0.83,9.67,-0.00,-0.01,-0.00,78.25,-22.88,-19.75
2026-06-27 11:34:35.434,-0.06,0.88,9.68,-0.00,-0.01,0.00,78.25,-22.88,-19.75
2026-06-27 11:34:35.451,-0.05,0.83,9.71,-0.00,-0.01,0.00,78.25,-22.88,-19.75
2026-06-27 11:34:35.469,-0.08,0.82,9.69,-0.00,-0.01,0.00,78.25,-22.88,-20.19
2026-06-27 11:34:35.482,-0.02,0.75,9.69,-0.00,-0.00,-0.00,78.25,-22.88,-20.19
2026-06-27 11:34:35.497,-0.03,0.75,9.68,-0.00,-0.01,0.00,78.25,-22.88,-20.19
2026-06-27 11:34:35.511,-0.04,0.73,9.68,-0.00,-0.01,-0.00,77.88,-22.88,-19.38
2026-06-27 11:34:35.523,-0.03,0.72,9.68,0.00,-0.00,-0.00,77.88,-22.88,-19.38
2026-06-27 11:34:35.536,-0.03,0.70,9.67,0.00,-0.00,0.00,77.88,-22.88,-19.38
2026-06-27 11:34:35.551,-0.03,0.74,9.69,-0.00,0.00,0.00,77.88,-22.88,-19.38
2026-06-27 11:34:35.564,-0.03,0.79,9.70,0.00,0.00,-0.00,78.00,-23.25,-19.00
2026-06-27 11:34:35.582,-0.04,0.78,9.69,-0.00,0.00,0.00,78.00,-23.25,-19.00
2026-06-27 11:34:35.594,-0.06,0.82,9.69,0.00,0.00,-0.00,78.00,-23.25,-19.00
2026-06-27 11:34:35.607,-0.05,0.81,9.70,0.00,0.01,0.00,78.00,-23.25,-19.00
2026-06-27 11:34:35.622,-0.04,0.81,9.69,0.00,0.01,0.00,77.50,-22.88,-19.75
2026-06-27 11:34:35.634,-0.05,0.80,9.66,0.00,0.01,0.00,77.50,-22.88,-19.75
2026-06-27 11:34:35.651,-0.05,0.80,9.71,-0.00,0.01,0.00,77.50,-22.88,-19.75
2026-06-27 11:34:35.663,-0.07,0.77,9.68,0.00,0.01,0.00,78.25,-23.25,-19.00
2026-06-27 11:34:35.681,-0.06,0.78,9.68,0.00,0.01,0.00,78.25,-23.25,-19.00
2026-06-27 11:34:35.693,-0.07,0.76,9.68,0.00,0.00,0.00,78.25,-23.25,-19.00
2026-06-27 11:34:35.706,-0.07,0.77,9.68,0.00,0.00,0.00,78.25,-23.25,-19.00
2026-06-27 11:34:35.722,-0.08,0.77,9.70,0.00,0.01,-0.00,77.88,-22.06,-20.19
2026-06-27 11:34:35.735,-0.08,0.75,9.67,0.00,0.01,0.00,77.88,-22.06,-20.19
2026-06-27 11:34:35.752,-0.06,0.79,9.69,-0.00,0.00,0.00,77.88,-22.06,-20.19
2026-06-27 11:34:35.766,-0.10,0.80,9.70,0.00,0.00,-0.00,78.25,-22.88,-19.75
2026-06-27 11:34:35.782,-0.08,0.80,9.70,0.00,0.00,0.00,78.25,-22.88,-19.75
2026-06-27 11:34:35.794,-0.08,0.81,9.67,0.00,0.01,-0.00,78.25,-22.88,-19.75
2026-06-27 11:34:35.807,-0.09,0.82,9.68,0.00,0.00,0.00,78.25,-22.88,-19.75
2026-06-27 11:34:35.822,-0.07,0.81,9.69,0.00,0.00,0.00,79.00,-22.50,-19.75
2026-06-27 11:34:35.835,-0.07,0.82,9.67,0.00,0.00,0.00,79.00,-22.50,-19.75
2026-06-27 11:34:35.851,-0.08,0.79,9.69,0.00,0.00,0.00,79.00,-22.50,-19.75
2026-06-27 11:34:35.865,-0.08,0.78,9.70,0.00,0.00,0.00,78.25,-22.50,-19.75
2026-06-27 11:34:35.882,-0.07,0.77,9.70,0.00,0.00,0.00,78.25,-22.50,-19.75
2026-06-27 11:34:35.894,-0.08,0.77,9.69,0.00,-0.00,0.00,78.25,-22.50,-19.75
2026-06-27 11:34:35.907,-0.08,0.77,9.71,0.00,0.00,0.00,78.25,-22.50,-19.75
2026-06-27 11:34:35.922,-0.09,0.77,9.69,0.00,0.00,0.00,78.69,-22.50,-20.19
2026-06-27 11:34:35.935,-0.09,0.78,9.69,0.00,0.00,0.00,78.69,-22.50,-20.19
2026-06-27 11:34:35.952,-0.07,0.80,9.67,0.00,0.00,0.00,78.69,-22.50,-20.19
2026-06-27 11:34:35.965,-0.09,0.81,9.69,-0.00,-0.00,-0.00,77.50,-22.50,-19.00
2026-06-27 11:34:35.982,-0.06,0.80,9.65,0.00,0.00,0.00,77.50,-22.50,-19.00
2026-06-27 11:34:35.994,-0.09,0.81,9.68,-0.00,0.00,0.00,77.50,-22.50,-19.00
2026-06-27 11:34:36.007,-0.09,0.82,9.67,-0.00,-0.00,0.00,77.50,-22.50,-19.00
2026-06-27 11:34:36.023,-0.10,0.80,9.70,0.00,0.00,0.00,78.69,-22.88,-19.00
2026-06-27 11:34:36.035,-0.09,0.80,9.67,-0.00,-0.00,0.00,78.69,-22.88,-19.00
2026-06-27 11:34:36.052,-0.08,0.79,9.68,0.00,0.00,0.00,78.69,-22.88,-19.00
2026-06-27 11:34:36.068,-0.08,0.78,9.68,-0.00,-0.00,0.00,78.25,-22.88,-19.38
2026-06-27 11:34:36.082,-0.09,0.76,9.68,0.00,-0.00,0.00,78.25,-22.88,-19.38
2026-06-27 11:34:36.096,-0.09,0.79,9.70,0.00,-0.00,0.00,78.25,-22.88,-19.38
2026-06-27 11:34:36.108,-0.06,0.78,9.70,0.00,0.00,-0.00,78.25,-22.88,-19.38
2026-06-27 11:34:36.123,-0.08,0.79,9.68,-0.00,-0.00,0.00,78.69,-22.50,-20.50
2026-06-27 11:34:36.136,-0.08,0.78,9.67,-0.00,-0.00,-0.00,78.69,-22.50,-20.50
2026-06-27 11:34:36.153,-0.07,0.81,9.67,0.00,-0.00,0.00,78.69,-22.50,-20.50
2026-06-27 11:34:36.165,-0.09,0.80,9.68,0.00,-0.00,0.00,79.00,-22.50,-19.00
2026-06-27 11:34:36.182,-0.07,0.81,9.67,0.00,-0.00,0.00,79.00,-22.50,-19.00
2026-06-27 11:34:36.195,-0.07,0.82,9.72,0.00,-0.00,0.00,79.00,-22.50,-19.00
2026-06-27 11:34:36.208,-0.07,0.81,9.69,0.00,-0.01,0.00,79.00,-22.50,-19.00
2026-06-27 11:34:36.223,-0.10,0.80,9.68,0.00,-0.00,-0.00,78.25,-22.50,-20.19
2026-06-27 11:34:36.236,-0.06,0.80,9.68,0.00,-0.00,-0.00,78.25,-22.50,-20.19
2026-06-27 11:34:36.253,-0.08,0.79,9.68,0.00,-0.00,0.00,78.25,-22.50,-20.19
2026-06-27 11:34:36.265,-0.07,0.77,9.68,-0.00,-0.00,0.00,78.69,-22.50,-20.50
2026-06-27 11:34:36.282,-0.09,0.77,9.68,-0.00,-0.00,0.00,78.69,-22.50,-20.50
2026-06-27 11:34:36.295,-0.07,0.79,9.69,0.00,-0.01,-0.00,78.69,-22.50,-20.50
2026-06-27 11:34:36.308,-0.06,0.78,9.68,0.00,-0.00,-0.00,78.69,-22.50,-20.50
2026-06-27 11:34:36.323,-0.10,0.78,9.70,0.00,-0.00,0.00,78.69,-22.50,-19.75
2026-06-27 11:34:36.336,-0.07,0.79,9.69,0.00,-0.00,-0.00,78.69,-22.50,-19.75
2026-06-27 11:34:36.353,-0.08,0.81,9.70,0.00,-0.01,-0.00,78.69,-22.50,-19.75
2026-06-27 11:34:36.366,-0.08,0.80,9.68,-0.00,-0.01,0.00,77.50,-22.50,-19.00
2026-06-27 11:34:36.383,-0.06,0.80,9.68,0.00,-0.01,0.00,77.50,-22.50,-19.00
2026-06-27 11:34:36.396,-0.07,0.79,9.67,0.00,-0.01,-0.00,77.50,-22.50,-19.00
2026-06-27 11:34:36.409,-0.07,0.78,9.68,0.00,-0.01,0.00,77.50,-22.50,-19.00
2026-06-27 11:34:36.424,-0.07,0.80,9.69,-0.00,-0.01,0.00,78.69,-22.88,-19.00
2026-06-27 11:34:36.437,-0.06,0.80,9.66,0.00,-0.01,0.00,78.69,-22.88,-19.00
2026-06-27 11:34:36.454,-0.06,0.78,9.69,0.00,-0.00,-0.00,78.69,-22.88,-19.00
2026-06-27 11:34:36.466,-0.06,0.79,9.71,0.00,-0.01,0.00,79.00,-22.50,-19.75
2026-06-27 11:34:36.483,-0.07,0.79,9.68,-0.00,-0.01,-0.00,79.00,-22.50,-19.75
2026-06-27 11:34:36.496,-0.08,0.79,9.70,-0.00,-0.01,0.00,79.00,-22.50,-19.75
2026-06-27 11:34:36.510,-0.07,0.81,9.69,-0.00,-0.01,0.00,79.00,-22.50,-19.75
2026-06-27 11:34:36.524,-0.06,0.78,9.71,-0.00,-0.00,0.00,79.00,-23.56,-20.50
2026-06-27 11:34:36.537,-0.06,0.80,9.70,-0.00,-0.00,0.00,79.00,-23.56,-20.50
2026-06-27 11:34:36.554,-0.08,0.79,9.69,0.00,-0.01,0.00,79.00,-23.56,-20.50
2026-06-27 11:34:36.570,-0.06,0.80,9.69,0.00,0.00,0.00,77.88,-22.50,-19.75
2026-06-27 11:34:36.584,-0.07,0.80,9.70,0.00,-0.01,-0.00,77.88,-22.50,-19.75
2026-06-27 11:34:36.597,-0.06,0.78,9.68,-0.00,-0.01,0.00,77.88,-22.50,-19.75
2026-06-27 11:34:36.609,-0.06,0.80,9.69,-0.00,-0.00,-0.00,77.88,-22.50,-19.75
2026-06-27 11:34:36.624,-0.07,0.80,9.71,0.00,-0.01,0.00,78.69,-22.88,-20.50
2026-06-27 11:34:36.637,-0.09,0.81,9.68,-0.00,-0.00,-0.00,78.69,-22.88,-20.50
2026-06-27 11:34:36.654,-0.05,0.79,9.70,0.00,-0.00,0.00,78.69,-22.88,-20.50
2026-06-27 11:34:36.667,-0.06,0.77,9.70,0.00,-0.01,0.00,77.50,-22.88,-20.50
2026-06-27 11:34:36.684,-0.06,0.80,9.70,-0.00,-0.00,-0.00,77.50,-22.88,-20.50
2026-06-27 11:34:36.697,-0.06,0.76,9.67,0.00,-0.00,0.00,77.50,-22.88,-20.50
2026-06-27 11:34:36.709,-0.06,0.79,9.69,0.00,-0.00,-0.00,77.50,-22.88,-20.50
2026-06-27 11:34:36.724,-0.05,0.79,9.70,-0.00,-0.01,0.00,77.50,-23.25,-20.19
2026-06-27 11:34:36.737,-0.05,0.78,9.69,-0.00,-0.01,0.00,77.50,-23.25,-20.19
2026-06-27 11:34:36.754,-0.06,0.80,9.68,0.00,-0.01,-0.00,77.50,-23.25,-20.19
2026-06-27 11:34:36.767,-0.05,0.81,9.71,-0.00,-0.01,0.00,77.88,-22.50,-19.38
2026-06-27 11:34:36.784,-0.07,0.80,9.69,-0.00,-0.01,0.00,77.88,-22.50,-19.38
2026-06-27 11:34:36.796,-0.03,0.82,9.66,0.00,-0.01,-0.00,77.88,-22.50,-19.38
2026-06-27 11:34:36.808,-0.06,0.78,9.70,0.00,-0.01,0.00,77.88,-22.50,-19.38
2026-06-27 11:34:36.826,-0.03,0.79,9.68,0.00,-0.01,-0.00,78.25,-23.25,-20.50
2026-06-27 11:34:36.841,-0.04,0.80,9.66,-0.00,-0.01,-0.00,78.25,-23.25,-20.50
2026-06-27 11:34:36.855,-0.05,0.79,9.67,-0.00,-0.01,0.00,78.25,-23.25,-20.50
2026-06-27 11:34:36.869,-0.06,0.78,9.70,0.00,-0.01,-0.00,77.88,-22.88,-20.19
2026-06-27 11:34:36.885,-0.05,0.76,9.68,-0.00,-0.01,-0.00,77.88,-22.88,-20.19
2026-06-27 11:34:36.897,-0.05,0.77,9.69,0.00,-0.01,0.00,77.88,-22.88,-20.19
2026-06-27 11:34:36.909,-0.03,0.78,9.69,0.00,-0.01,0.00,77.88,-22.88,-20.19
2026-06-27 11:34:36.926,-0.04,0.78,9.70,0.00,-0.01,0.00,78.69,-22.50,-21.38
2026-06-27 11:34:36.943,-0.03,0.79,9.67,-0.00,-0.01,-0.00,78.69,-22.50,-21.38
2026-06-27 11:34:36.956,-0.05,0.79,9.69,-0.00,-0.01,-0.00,78.69,-22.50,-21.38
2026-06-27 11:34:36.973,-0.04,0.79,9.70,-0.00,-0.01,0.00,77.88,-22.06,-19.75
2026-06-27 11:34:36.986,-0.02,0.79,9.68,0.00,-0.02,0.00,77.88,-22.06,-19.75
2026-06-27 11:34:36.003,-0.01,0.79,9.67,-0.00,-0.02,0.00,77.88,-22.06,-19.75
2026-06-27 11:34:37.015,-0.04,0.81,9.70,-0.00,-0.01,0.00,77.88,-22.50,-20.50
2026-06-27 11:34:37.028,-0.05,0.78,9.68,-0.00,-0.01,0.00,77.88,-22.50,-20.50
2026-06-27 11:34:37.044,-0.02,0.79,9.68,0.00,-0.01,-0.00,77.88,-22.50,-20.50
2026-06-27 11:34:37.058,-0.03,0.76,9.67,0.00,-0.02,0.00,77.88,-22.50,-20.50
2026-06-27 11:34:37.074,-0.01,0.77,9.70,-0.00,-0.01,0.00,77.50,-22.88,-19.38
2026-06-27 11:34:37.087,-0.02,0.78,9.67,-0.00,-0.02,-0.00,77.50,-22.88,-19.38
2026-06-27 11:34:37.105,-0.01,0.80,9.69,-0.00,-0.02,0.00,77.50,-22.88,-19.38
2026-06-27 11:34:37.118,-0.01,0.79,9.71,-0.00,-0.02,-0.00,77.19,-22.06,-21.00
2026-06-27 11:34:37.135,-0.02,0.82,9.68,-0.00,-0.01,-0.00,77.19,-22.06,-21.00
2026-06-27 11:34:37.147,-0.01,0.80,9.68,-0.00,-0.02,0.00,77.19,-22.06,-21.00
2026-06-27 11:34:37.159,-0.01,0.81,9.68,-0.00,-0.02,-0.00,77.19,-22.06,-21.00
2026-06-27 11:34:37.175,0.00,0.79,9.69,-0.01,-0.02,0.00,77.50,-22.88,-21.00
2026-06-27 11:34:37.188,0.00,0.79,9.67,-0.00,-0.02,0.00,77.50,-22.88,-21.00
2026-06-27 11:34:37.205,0.03,0.79,9.68,-0.00,-0.02,0.00,77.50,-22.88,-21.00
2026-06-27 11:34:37.218,0.01,0.78,9.70,-0.00,-0.02,-0.00,77.19,-22.06,-21.38
2026-06-27 11:34:37.235,0.02,0.75,9.69,-0.00,-0.02,0.00,77.19,-22.06,-21.38
2026-06-27 11:34:37.248,0.01,0.74,9.69,-0.00,-0.02,0.00,77.19,-22.06,-21.38
2026-06-27 11:34:37.260,0.02,0.76,9.68,-0.00,-0.02,-0.00,77.19,-22.06,-21.38
2026-06-27 11:34:37.272,0.00,0.72,9.71,-0.00,-0.03,0.00,76.38,-22.88,-19.00
2026-06-27 11:34:37.286,0.04,0.68,9.62,-0.00,-0.03,-0.00,76.38,-22.88,-19.00
2026-06-27 11:34:37.299,0.06,0.71,9.68,-0.00,-0.03,-0.00,76.38,-22.88,-19.00
2026-06-27 11:34:37.311,0.04,0.73,9.71,-0.00,-0.03,-0.00,76.38,-22.88,-19.00
2026-06-27 11:34:37.325,0.01,0.77,9.70,-0.00,-0.03,-0.00,76.75,-22.06,-20.19
2026-06-27 11:34:37.337,0.06,0.82,9.72,-0.01,-0.03,-0.00,76.75,-22.06,-20.19
2026-06-27 11:34:37.356,0.08,0.80,9.71,-0.00,-0.03,0.00,76.75,-22.06,-20.19
2026-06-27 11:34:37.368,0.11,0.76,9.65,-0.01,-0.03,-0.00,76.75,-22.88,-19.75
2026-06-27 11:34:37.385,0.09,0.78,9.71,-0.00,-0.03,-0.00,76.75,-22.88,-19.75
2026-06-27 11:34:37.398,0.07,0.73,9.68,-0.00,-0.03,-0.00,76.75,-22.88,-19.75
2026-06-27 11:34:37.410,0.11,0.78,9.66,-0.00,-0.03,-0.00,76.75,-22.88,-19.75
2026-06-27 11:34:37.423,0.15,0.78,9.68,-0.00,-0.03,-0.00,77.19,-22.06,-20.50
2026-06-27 11:34:37.436,0.12,0.77,9.67,-0.00,-0.03,-0.00,77.19,-22.06,-20.50
2026-06-27 11:34:37.449,0.12,0.75,9.70,-0.00,-0.02,0.00,77.19,-22.06,-20.50
2026-06-27 11:34:37.461,0.13,0.75,9.70,-0.00,-0.02,-0.00,77.19,-22.06,-20.50
2026-06-27 11:34:37.474,0.12,0.75,9.69,-0.00,-0.02,0.00,76.06,-22.88,-21.00
2026-06-27 11:34:37.488,0.17,0.75,9.65,-0.00,-0.02,0.00,76.06,-22.88,-21.00
2026-06-27 11:34:37.506,0.14,0.77,9.67,-0.00,-0.02,0.00,76.06,-22.88,-21.00
2026-06-27 11:34:37.519,0.13,0.75,9.68,-0.00,-0.02,0.00,76.75,-22.88,-22.19
2026-06-27 11:34:37.536,0.14,0.76,9.69,0.00,-0.02,0.00,76.75,-22.88,-22.19
2026-06-27 11:34:37.548,0.16,0.73,9.68,0.00,-0.02,0.00,76.75,-22.88,-22.19
2026-06-27 11:34:37.561,0.13,0.75,9.69,0.00,-0.01,0.00,76.75,-22.88,-22.19
2026-06-27 11:34:37.576,0.13,0.77,9.69,0.00,-0.01,0.00,75.69,-22.88,-20.50
2026-06-27 11:34:37.593,0.14,0.78,9.66,0.00,-0.01,-0.00,75.69,-22.88,-20.50
2026-06-27 11:34:37.607,0.15,0.76,9.65,0.00,-0.01,0.00,75.69,-22.88,-20.50
2026-06-27 11:34:37.625,0.16,0.77,9.68,0.00,-0.01,0.00,76.06,-22.50,-22.56
2026-06-27 11:34:37.638,0.17,0.74,9.67,0.00,-0.01,0.00,76.06,-22.50,-22.56
2026-06-27 11:34:37.656,0.16,0.75,9.67,0.00,-0.01,0.00,76.06,-22.50,-22.56
2026-06-27 11:34:37.669,0.17,0.76,9.68,0.00,-0.00,0.00,75.69,-22.88,-21.38
2026-06-27 11:34:37.686,0.14,0.75,9.67,0.00,-0.01,0.00,75.69,-22.88,-21.38
2026-06-27 11:34:37.699,0.16,0.75,9.67,0.00,-0.00,0.00,75.69,-22.88,-21.38
2026-06-27 11:34:37.711,0.16,0.76,9.72,0.00,-0.00,0.00,75.69,-22.88,-21.38
2026-06-27 11:34:37.726,0.13,0.75,9.68,0.00,-0.00,0.00,75.69,-22.50,-21.75
2026-06-27 11:34:37.738,0.16,0.76,9.67,0.00,-0.00,0.00,75.69,-22.50,-21.75
2026-06-27 11:34:37.756,0.16,0.75,9.69,0.00,-0.00,0.00,75.69,-22.50,-21.75
2026-06-27 11:34:37.768,0.16,0.76,9.70,0.00,-0.00,0.00,75.38,-22.88,-21.75
2026-06-27 11:34:37.786,0.16,0.76,9.68,0.00,-0.00,0.00,75.38,-22.88,-21.75
2026-06-27 11:34:37.798,0.17,0.77,9.68,0.00,0.00,0.00,75.38,-22.88,-21.75
2026-06-27 11:34:37.811,0.15,0.77,9.70,0.00,0.00,0.00,75.38,-22.88,-21.75
2026-06-27 11:34:37.826,0.16,0.75,9.70,0.00,-0.00,0.00,76.38,-23.25,-22.56
2026-06-27 11:34:37.839,0.16,0.73,9.68,0.00,0.00,0.00,76.38,-23.25,-22.56
2026-06-27 11:34:37.856,0.16,0.75,9.67,0.00,-0.00,0.00,76.38,-23.25,-22.56
2026-06-27 11:34:37.868,0.17,0.75,9.68,0.00,0.00,0.00,76.38,-22.88,-22.56
2026-06-27 11:34:37.886,0.18,0.74,9.68,0.00,-0.00,0.00,76.38,-22.88,-22.56
2026-06-27 11:34:37.898,0.17,0.76,9.69,0.00,-0.00,0.00,76.38,-22.88,-22.56
2026-06-27 11:34:37.911,0.18,0.74,9.68,0.00,0.00,0.00,76.38,-22.88,-22.56
2026-06-27 11:34:37.927,0.16,0.75,9.71,0.00,0.00,0.00,76.06,-22.50,-21.75
2026-06-27 11:34:37.942,0.18,0.74,9.69,0.00,-0.00,0.00,76.06,-22.50,-21.75
2026-06-27 11:34:37.957,0.20,0.73,9.67,0.00,0.00,-0.00,76.06,-22.50,-21.75
2026-06-27 11:34:37.969,0.21,0.74,9.69,0.00,0.00,-0.00,75.69,-22.50,-23.00
2026-06-27 11:34:37.987,0.24,0.78,9.61,0.00,0.01,-0.00,75.69,-22.50,-23.00
2026-06-27 11:34:37.000,0.08,0.77,9.75,0.00,0.00,0.00,75.69,-22.50,-23.00
2026-06-27 11:34:38.012,0.22,0.61,9.58,0.00,0.00,0.00,75.69,-22.50,-23.00
2026-06-27 11:34:38.028,0.25,0.89,9.68,-0.00,-0.00,0.01,76.06,-22.88,-22.19
2026-06-27 11:34:38.040,0.06,0.60,9.72,0.00,-0.01,0.01,76.06,-22.88,-22.19
2026-06-27 11:34:38.057,0.25,0.81,9.54,0.00,0.01,0.00,76.06,-22.88,-22.19
2026-06-27 11:34:38.069,0.62,0.80,9.76,0.00,0.02,-0.01,76.50,-22.50,-23.00
2026-06-27 11:34:38.087,0.52,0.78,9.67,0.00,0.01,-0.01,76.50,-22.50,-23.00
2026-06-27 11:34:38.100,0.16,0.75,9.68,0.00,0.02,0.00,76.50,-22.50,-23.00
2026-06-27 11:34:38.113,0.39,0.77,9.69,0.00,0.03,0.01,76.50,-22.50,-23.00
2026-06-27 11:34:38.126,0.44,0.86,9.77,0.00,0.03,0.01,74.56,-22.06,-23.00
2026-06-27 11:34:38.138,0.28,0.66,9.65,0.01,0.03,0.00,74.56,-22.06,-23.00
2026-06-27 11:34:38.154,0.15,0.78,9.72,0.00,0.04,-0.01,74.56,-22.06,-23.00
2026-06-27 11:34:38.166,0.38,0.67,9.72,0.00,0.05,-0.01,76.06,-22.50,-22.19
2026-06-27 11:34:38.180,0.48,0.85,9.61,0.01,0.06,-0.01,76.06,-22.50,-22.19
2026-06-27 11:34:38.197,0.35,0.85,9.57,0.00,0.05,-0.01,76.06,-22.50,-22.19
2026-06-27 11:34:38.209,-0.04,0.77,9.78,0.01,0.06,0.00,76.06,-22.50,-22.19
2026-06-27 11:34:38.222,0.31,0.71,9.71,0.01,0.07,0.00,75.38,-22.50,-21.75
2026-06-27 11:34:38.237,0.47,0.64,9.62,0.01,0.07,0.00,75.38,-22.50,-21.75
2026-06-27 11:34:38.252,0.08,0.62,9.72,0.01,0.07,-0.00,75.38,-22.50,-21.75
2026-06-27 11:34:38.265,0.14,0.61,9.74,0.01,0.08,-0.01,75.38,-22.50,-21.75
2026-06-27 11:34:38.278,0.06,0.77,9.65,0.01,0.08,-0.01,75.69,-22.50,-22.19
2026-06-27 11:34:38.290,0.25,0.69,9.62,0.01,0.08,-0.01,75.69,-22.50,-22.19
2026-06-27 11:34:38.307,0.01,0.82,9.69,0.01,0.07,0.00,75.69,-22.50,-22.19
2026-06-27 11:34:38.319,0.14,0.66,9.67,0.01,0.08,0.01,76.75,-22.06,-21.38
2026-06-27 11:34:38.332,0.07,0.72,9.65,0.01,0.08,0.01,76.75,-22.06,-21.38
2026-06-27 11:34:38.348,0.16,0.70,9.72,0.01,0.08,0.00,76.75,-22.06,-21.38
2026-06-27 11:34:38.361,-0.03,0.74,9.70,0.01,0.08,0.00,76.75,-22.06,-21.38
2026-06-27 11:34:38.373,-0.06,0.76,9.67,0.01,0.08,-0.00,76.06,-22.50,-21.00
2026-06-27 11:34:38.388,0.02,0.73,9.71,0.01,0.08,-0.00,76.06,-22.50,-21.00
2026-06-27 11:34:38.400,0.01,0.67,9.65,0.01,0.08,0.00,76.06,-22.50,-21.00
2026-06-27 11:34:38.413,0.00,0.72,9.68,0.01,0.07,0.01,76.06,-22.50,-21.00
2026-06-27 11:34:38.426,-0.09,0.74,9.75,0.01,0.07,0.00,77.50,-22.50,-20.50
2026-06-27 11:34:38.438,-0.02,0.76,9.69,0.01,0.07,0.00,77.50,-22.50,-20.50
2026-06-27 11:34:38.451,0.00,0.78,9.66,0.01,0.07,-0.00,77.50,-22.50,-20.50
2026-06-27 11:34:38.464,0.00,0.82,9.68,0.01,0.07,-0.00,77.50,-22.50,-20.50
2026-06-27 11:34:38.477,-0.08,0.84,9.66,0.01,0.06,-0.00,77.50,-22.50,-19.75
2026-06-27 11:34:38.489,-0.07,0.88,9.69,0.01,0.07,0.00,77.50,-22.50,-19.75
2026-06-27 11:34:38.501,0.02,0.87,9.67,0.01,0.06,0.00,77.50,-22.50,-19.75
2026-06-27 11:34:38.514,0.03,0.83,9.64,0.01,0.06,0.00,77.50,-22.50,-19.75
2026-06-27 11:34:38.527,-0.06,0.86,9.75,0.01,0.06,0.01,77.50,-22.06,-18.50
2026-06-27 11:34:38.539,-0.06,0.79,9.68,0.01,0.06,0.00,77.50,-22.06,-18.50
2026-06-27 11:34:38.551,-0.06,0.77,9.64,0.01,0.06,-0.00,77.50,-22.06,-18.50
2026-06-27 11:34:38.564,-0.03,0.75,9.66,0.01,0.06,-0.00,77.50,-22.06,-18.50
2026-06-27 11:34:38.576,-0.06,0.75,9.69,0.01,0.06,0.00,77.50,-22.88,-19.38
2026-06-27 11:34:38.589,-0.11,0.73,9.67,0.01,0.06,0.00,77.50,-22.88,-19.38
2026-06-27 11:34:38.601,-0.06,0.75,9.66,0.01,0.06,0.01,77.50,-22.88,-19.38
2026-06-27 11:34:38.614,-0.07,0.75,9.70,0.01,0.05,0.01,77.50,-22.88,-19.38
2026-06-27 11:34:38.626,-0.06,0.77,9.74,0.01,0.05,0.00,77.88,-23.25,-19.00
2026-06-27 11:34:38.639,-0.08,0.77,9.66,0.01,0.05,-0.01,77.88,-23.25,-19.00
2026-06-27 11:34:38.652,-0.12,0.82,9.65,0.01,0.06,-0.01,77.88,-23.25,-19.00
2026-06-27 11:34:38.664,-0.08,0.82,9.66,0.01,0.05,-0.00,77.88,-23.25,-19.00
2026-06-27 11:34:38.676,-0.13,0.83,9.67,0.01,0.05,0.00,78.25,-22.50,-19.00
2026-06-27 11:34:38.689,-0.23,0.90,9.67,0.01,0.04,0.01,78.25,-22.50,-19.00
2026-06-27 11:34:38.702,-0.34,0.89,9.68,0.00,0.04,0.01,78.25,-22.50,-19.00
2026-06-27 11:34:38.714,-0.28,0.85,9.71,0.01,0.04,0.01,78.25,-22.50,-19.00
2026-06-27 11:34:38.727,-0.25,0.86,9.76,0.01,0.03,0.01,78.69,-23.25,-19.00
2026-06-27 11:34:38.740,-0.13,0.79,9.63,0.01,0.03,-0.00,78.69,-23.25,-19.00
2026-06-27 11:34:38.752,-0.20,0.84,9.64,0.01,0.03,-0.01,78.69,-23.25,-19.00
2026-06-27 11:34:38.765,-0.26,0.89,9.70,0.00,0.03,-0.01,78.69,-23.25,-19.00
2026-06-27 11:34:38.779,-0.19,0.83,9.67,0.00,0.02,-0.00,78.25,-22.50,-19.38
2026-06-27 11:34:38.792,-0.18,0.93,9.62,0.00,0.01,0.00,78.25,-22.50,-19.38
2026-06-27 11:34:38.809,-0.14,0.87,9.78,-0.00,0.01,0.01,78.25,-22.50,-19.38
2026-06-27 11:34:38.821,-0.30,0.85,9.70,-0.00,0.01,0.01,79.75,-22.50,-18.19
2026-06-27 11:34:38.838,-0.26,0.82,9.67,0.00,0.01,0.00,79.75,-22.50,-18.19
2026-06-27 11:34:38.851,-0.28,0.87,9.64,-0.00,0.00,-0.00,79.75,-22.50,-18.19
2026-06-27 11:34:38.864,-0.29,0.81,9.67,-0.00,-0.01,0.00,79.75,-22.50,-18.19
2026-06-27 11:34:38.879,-0.28,0.83,9.69,-0.00,-0.01,0.00,78.69,-22.88,-18.50
2026-06-27 11:34:38.892,-0.09,0.83,9.68,-0.00,-0.01,0.00,78.69,-22.88,-18.50
2026-06-27 11:34:38.909,-0.09,0.84,9.69,-0.00,-0.02,0.00,78.69,-22.88,-18.50
2026-06-27 11:34:38.922,-0.22,0.85,9.72,-0.00,-0.03,-0.01,77.50,-22.88,-19.00
2026-06-27 11:34:38.939,-0.22,0.85,9.68,-0.00,-0.03,-0.01,77.50,-22.88,-19.00
2026-06-27 11:34:38.951,-0.10,0.86,9.65,-0.00,-0.03,0.00,77.50,-22.88,-19.00
2026-06-27 11:34:38.964,-0.17,0.86,9.67,-0.01,-0.04,0.00,77.50,-22.88,-19.00
2026-06-27 11:34:38.977,-0.23,0.85,9.68,-0.01,-0.04,0.00,77.88,-22.50,-19.00
2026-06-27 11:34:38.990,-0.08,0.83,9.71,-0.01,-0.04,-0.00,77.88,-22.50,-19.00
2026-06-27 11:34:38.002,-0.06,0.82,9.68,-0.01,-0.04,-0.00,77.88,-22.50,-19.00
2026-06-27 11:34:39.015,-0.02,0.80,9.69,-0.01,-0.04,-0.01,77.88,-22.50,-19.00
2026-06-27 11:34:39.029,-0.07,0.74,9.70,-0.01,-0.05,-0.01,77.50,-22.06,-19.75
2026-06-27 11:34:39.041,0.00,0.74,9.68,-0.01,-0.04,-0.00,77.50,-22.06,-19.75
2026-06-27 11:34:39.058,0.12,0.73,9.67,-0.01,-0.04,0.00,77.50,-22.06,-19.75
2026-06-27 11:34:39.071,0.02,0.77,9.71,-0.01,-0.04,0.00,77.50,-22.50,-20.19
2026-06-27 11:34:39.085,0.01,0.75,9.72,-0.01,-0.04,-0.00,77.50,-22.50,-20.19
2026-06-27 11:34:39.101,0.04,0.73,9.70,-0.01,-0.03,-0.00,77.50,-22.50,-20.19
2026-06-27 11:34:39.113,0.15,0.72,9.65,-0.00,-0.03,-0.00,77.50,-22.50,-20.19
2026-06-27 11:34:39.126,0.13,0.72,9.67,-0.01,-0.03,-0.00,76.88,-22.06,-19.38
2026-06-27 11:34:39.140,0.04,0.72,9.68,-0.00,-0.02,-0.00,76.88,-22.06,-19.38
2026-06-27 11:34:39.152,0.13,0.73,9.64,-0.00,-0.02,0.00,76.88,-22.06,-19.38
2026-06-27 11:34:39.165,0.16,0.71,9.68,-0.00,-0.02,0.00,76.88,-22.06,-19.38
2026-06-27 11:34:39.180,0.12,0.70,9.71,-0.00,-0.02,0.00,77.50,-22.06,-20.19
2026-06-27 11:34:39.192,0.08,0.72,9.69,-0.00,-0.01,-0.00,77.50,-22.06,-20.19
2026-06-27 11:34:39.210,0.14,0.70,9.63,0.00,-0.00,-0.00,77.50,-22.06,-20.19
2026-06-27 11:34:39.222,0.14,0.73,9.68,0.00,-0.00,-0.00,76.38,-22.88,-20.50
2026-06-27 11:34:39.239,0.10,0.74,9.65,-0.00,0.00,0.00,76.38,-22.88,-20.50
2026-06-27 11:34:39.252,0.11,0.75,9.68,0.00,0.01,0.00,76.38,-22.88,-20.50
2026-06-27 11:34:39.264,0.13,0.77,9.70,0.00,0.01,0.00,76.38,-22.88,-20.50
2026-06-27 11:34:39.280,0.12,0.73,9.70,0.00,0.01,-0.00,77.50,-22.88,-21.00
2026-06-27 11:34:39.293,0.06,0.76,9.65,0.00,0.02,-0.00,77.50,-22.88,-21.00
2026-06-27 11:34:39.310,0.06,0.75,9.66,0.00,0.02,0.00,77.50,-22.88,-21.00
2026-06-27 11:34:39.322,0.05,0.75,9.70,0.00,0.02,0.00,77.50,-23.25,-21.75
2026-06-27 11:34:39.339,0.05,0.76,9.72,0.00,0.02,0.00,77.50,-23.25,-21.75
2026-06-27 11:34:39.353,0.00,0.78,9.72,0.00,0.03,0.00,77.50,-23.25,-21.75
2026-06-27 11:34:39.365,0.00,0.78,9.72,0.00,0.02,0.00,77.50,-23.25,-21.75
2026-06-27 11:34:39.380,0.02,0.77,9.72,0.00,0.02,0.00,77.50,-22.88,-21.00
2026-06-27 11:34:39.401,-0.02,0.80,9.66,0.00,0.02,0.00,77.50,-22.88,-21.00
2026-06-27 11:34:39.415,0.00,0.79,9.67,0.00,0.02,0.00,77.50,-22.88,-21.00
2026-06-27 11:34:39.435,0.02,0.79,9.70,0.00,0.02,0.00,77.50,-22.88,-21.38
2026-06-27 11:34:39.461,-0.02,0.79,9.70,0.00,0.02,0.00,77.50,-22.88,-21.38
2026-06-27 11:34:39.483,0.01,0.78,9.70,0.00,0.02,-0.00,77.19,-22.88,-21.00
2026-06-27 11:34:39.500,0.00,0.79,9.67,0.00,0.02,0.00,77.19,-22.88,-21.00
2026-06-27 11:34:39.513,-0.04,0.80,9.69,0.00,0.01,0.00,77.19,-22.88,-21.00
2026-06-27 11:34:39.530,0.00,0.79,9.72,0.00,0.01,0.00,77.50,-21.75,-20.19
2026-06-27 11:34:39.542,0.01,0.78,9.70,0.00,0.01,-0.00,77.50,-21.75,-20.19
2026-06-27 11:34:39.557,0.00,0.77,9.67,0.00,0.01,-0.00,77.50,-21.75,-20.19
2026-06-27 11:34:39.571,-0.01,0.79,9.67,0.00,0.01,0.00,77.19,-22.88,-21.00
2026-06-27 11:34:39.584,0.02,0.80,9.68,0.00,0.01,-0.00,77.19,-22.88,-21.00
2026-06-27 11:34:39.600,0.01,0.78,9.68,0.00,0.01,0.00,77.19,-22.88,-21.00
2026-06-27 11:34:39.613,0.01,0.77,9.70,0.00,0.01,0.00,77.19,-22.88,-21.00
2026-06-27 11:34:39.630,0.01,0.77,9.72,0.00,0.01,-0.00,78.00,-22.06,-21.00
2026-06-27 11:34:39.642,0.01,0.79,9.67,0.00,0.01,-0.00,78.00,-22.06,-21.00
2026-06-27 11:34:39.655,0.00,0.77,9.68,0.00,0.01,-0.00,78.00,-22.06,-21.00
2026-06-27 11:34:39.669,-0.02,0.78,9.68,0.00,0.01,0.00,78.00,-22.06,-21.00
2026-06-27 11:34:39.682,0.00,0.79,9.69,0.00,0.01,0.00,76.75,-22.50,-21.00
2026-06-27 11:34:39.697,0.02,0.81,9.68,0.00,0.01,-0.00,76.75,-22.50,-21.00
2026-06-27 11:34:39.711,0.00,0.79,9.68,0.00,0.01,0.00,76.75,-22.50,-21.00
2026-06-27 11:34:39.723,-0.03,0.79,9.71,0.00,0.01,-0.00,76.06,-22.88,-20.19
2026-06-27 11:34:39.741,-0.01,0.78,9.67,0.00,0.01,-0.00,76.06,-22.88,-20.19
2026-06-27 11:34:39.753,-0.01,0.77,9.68,0.00,0.01,-0.00,76.06,-22.88,-20.19
2026-06-27 11:34:39.766,-0.03,0.77,9.71,0.00,0.01,0.00,76.06,-22.88,-20.19
2026-06-27 11:34:39.781,0.00,0.78,9.69,0.00,0.00,0.00,78.69,-23.25,-20.19
2026-06-27 11:34:39.794,-0.01,0.83,9.67,0.00,0.01,0.00,78.69,-23.25,-20.19
2026-06-27 11:34:39.811,0.00,0.79,9.69,0.00,0.00,-0.00,78.69,-23.25,-20.19
2026-06-27 11:34:39.823,-0.03,0.79,9.68,0.00,0.00,0.00,77.19,-23.25,-20.50
2026-06-27 11:34:39.840,-0.01,0.82,9.67,0.00,0.00,0.00,77.19,-23.25,-20.50
2026-06-27 11:34:39.852,0.00,0.82,9.70,0.00,0.00,0.00,77.19,-23.25,-20.50
2026-06-27 11:34:39.865,0.00,0.84,9.69,0.00,0.00,0.00,77.19,-23.25,-20.50
2026-06-27 11:34:39.881,-0.02,0.77,9.70,0.00,0.00,0.00,77.50,-22.88,-20.50
2026-06-27 11:34:39.893,-0.01,0.75,9.70,0.00,0.00,-0.00,77.50,-22.88,-20.50
2026-06-27 11:34:39.909,0.00,0.76,9.66,0.00,0.00,-0.00,77.50,-22.88,-20.50
2026-06-27 11:34:39.922,-0.02,0.75,9.70,0.00,-0.00,-0.00,77.88,-22.88,-20.50
2026-06-27 11:34:39.934,0.01,0.73,9.70,0.00,-0.00,0.00,77.88,-22.88,-20.50
2026-06-27 11:34:39.951,0.00,0.74,9.68,-0.00,-0.01,0.00,77.88,-22.88,-20.50
2026-06-27 11:34:39.964,0.00,0.78,9.68,0.00,-0.00,-0.00,77.88,-22.88,-20.50
2026-06-27 11:34:39.981,0.00,0.78,9.68,-0.00,-0.00,-0.00,76.75,-22.50,-20.19
2026-06-27 11:34:39.994,0.02,0.80,9.64,-0.00,-0.01,-0.00,76.75,-22.50,-20.19
2026-06-27 11:34:40.011,0.04,0.78,9.68,-0.00,-0.00,0.00,76.75,-22.50,-20.19
2026-06-27 11:34:40.024,0.02,0.79,9.70,-0.00,-0.01,0.00,76.88,-22.88,-20.50
2026-06-27 11:34:40.041,0.04,0.81,9.68,-0.00,-0.01,0.00,76.88,-22.88,-20.50
2026-06-27 11:34:40.053,0.06,0.78,9.70,-0.00,-0.01,0.00,76.88,-22.88,-20.50
2026-06-27 11:34:40.066,0.04,0.77,9.69,-0.00,-0.00,-0.00,76.88,-22.88,-20.50
2026-06-27 11:34:40.082,0.03,0.75,9.70,0.00,-0.00,0.00,77.19,-22.88,-21.00
2026-06-27 11:34:40.097,0.06,0.75,9.66,0.00,-0.00,-0.00,77.19,-22.88,-21.00
2026-06-27 11:34:40.112,0.07,0.73,9.70,0.00,-0.00,-0.00,77.19,-22.88,-21.00
2026-06-27 11:34:40.124,0.08,0.73,9.71,0.00,-0.00,0.00,76.88,-22.06,-21.00
2026-06-27 11:34:40.141,0.06,0.72,9.68,0.00,-0.00,-0.00,76.88,-22.06,-21.00
2026-06-27 11:34:40.153,0.08,0.76,9.69,0.00,0.00,0.00,76.88,-22.06,-21.00
2026-06-27 11:34:40.166,0.08,0.78,9.68,0.00,0.01,-0.00,76.88,-22.06,-21.00
2026-06-27 11:34:40.182,0.08,0.81,9.66,-0.00,0.00,0.00,76.75,-22.50,-21.00
2026-06-27 11:34:40.195,0.07,0.82,9.67,0.00,0.01,-0.00,76.75,-22.50,-21.00
2026-06-27 11:34:40.212,0.09,0.79,9.71,0.00,0.01,0.00,76.75,-22.50,-21.00
2026-06-27 11:34:40.224,0.09,0.75,9.68,0.00,0.01,0.00,77.50,-22.88,-20.50
2026-06-27 11:34:40.241,0.05,0.73,9.66,0.00,0.01,0.00,77.50,-22.88,-20.50
2026-06-27 11:34:40.253,0.04,0.74,9.70,0.00,0.01,0.00,77.50,-22.88,-20.50
2026-06-27 11:34:40.266,0.06,0.74,9.71,0.00,0.01,0.00,77.50,-22.88,-20.50
2026-06-27 11:34:40.282,0.02,0.77,9.68,0.00,0.01,0.00,76.75,-22.88,-21.38
2026-06-27 11:34:40.295,0.03,0.79,9.67,0.00,0.01,0.00,76.75,-22.88,-21.38
2026-06-27 11:34:40.312,0.03,0.78,9.68,0.00,0.01,0.00,76.75,-22.88,-21.38
2026-06-27 11:34:40.324,0.02,0.78,9.70,0.00,0.01,0.00,76.88,-22.06,-20.56
2026-06-27 11:34:40.341,0.01,0.77,9.69,0.00,0.01,0.00,76.88,-22.06,-20.56
2026-06-27 11:34:40.353,0.02,0.74,9.67,0.00,0.01,0.00,76.88,-22.06,-20.56
2026-06-27 11:34:40.367,0.02,0.75,9.74,0.00,0.01,0.00,76.88,-22.06,-20.56
2026-06-27 11:34:40.382,0.03,0.76,9.68,0.00,0.01,0.00,77.50,-23.25,-22.19
2026-06-27 11:34:40.395,0.02,0.78,9.68,0.00,0.01,-0.00,77.50,-23.25,-22.19
2026-06-27 11:34:40.412,0.01,0.77,9.68,0.00,0.01,0.00,77.50,-23.25,-22.19
2026-06-27 11:34:40.425,0.01,0.80,9.69,0.00,0.01,0.00,77.19,-22.50,-21.00
2026-06-27 11:34:40.443,0.00,0.78,9.68,0.00,0.01,-0.00,77.19,-22.50,-21.00
2026-06-27 11:34:40.455,0.00,0.79,9.70,0.00,0.00,-0.00,77.19,-22.50,-21.00
2026-06-27 11:34:40.467,0.01,0.80,9.67,0.00,0.00,0.00,77.19,-22.50,-21.00
2026-06-27 11:34:40.482,0.02,0.78,9.68,-0.00,0.00,-0.00,76.38,-21.75,-21.00
2026-06-27 11:34:40.496,0.00,0.78,9.65,0.00,0.00,-0.00,76.38,-21.75,-21.00
2026-06-27 11:34:40.513,0.02,0.79,9.68,0.00,0.00,0.00,76.38,-21.75,-21.00
2026-06-27 11:34:40.526,0.02,0.74,9.71,0.00,0.00,0.00,77.88,-22.88,-20.19
2026-06-27 11:34:40.542,0.03,0.76,9.68,0.00,-0.00,-0.00,77.88,-22.88,-20.19
2026-06-27 11:34:40.555,0.04,0.75,9.69,0.00,-0.00,0.00,77.88,-22.88,-20.19
2026-06-27 11:34:40.567,0.04,0.77,9.66,0.00,-0.00,-0.00,77.88,-22.88,-20.19
2026-06-27 11:34:40.582,0.04,0.76,9.70,0.00,-0.00,-0.00,77.19,-22.88,-21.38
2026-06-27 11:34:40.595,0.06,0.78,9.68,0.00,-0.00,-0.00,77.19,-22.88,-21.38
2026-06-27 11:34:40.613,0.06,0.79,9.68,-0.00,-0.00,0.00,77.19,-22.88,-21.38
2026-06-27 11:34:40.628,0.07,0.77,9.70,-0.00,-0.00,0.00,76.50,-22.88,-21.75
2026-06-27 11:34:40.643,0.08,0.77,9.69,0.00,0.00,0.00,76.50,-22.88,-21.75
2026-06-27 11:34:40.655,0.09,0.76,9.67,-0.00,0.01,-0.00,76.50,-22.88,-21.75
2026-06-27 11:34:40.668,0.08,0.75,9.67,0.00,0.01,-0.00,76.50,-22.88,-21.75
2026-06-27 11:34:40.683,0.09,0.73,9.72,0.00,0.01,0.00,76.75,-22.50,-22.56
2026-06-27 11:34:40.696,0.09,0.74,9.67,0.00,0.01,0.00,76.75,-22.50,-22.56
2026-06-27 11:34:40.713,0.10,0.77,9.67,0.00,0.01,0.00,76.75,-22.50,-22.56
2026-06-27 11:34:40.726,0.11,0.77,9.68,0.00,0.01,-0.00,77.88,-22.06,-21.38
2026-06-27 11:34:40.743,0.09,0.78,9.67,0.00,0.01,0.00,77.88,-22.06,-21.38
2026-06-27 11:34:40.756,0.09,0.77,9.67,0.00,0.02,0.00,77.88,-22.06,-21.38
2026-06-27 11:34:40.768,0.09,0.75,9.71,0.00,0.02,0.00,77.88,-22.06,-21.38
2026-06-27 11:34:40.783,0.08,0.72,9.71,0.00,0.02,0.00,76.75,-22.50,-20.19
2026-06-27 11:34:40.796,0.07,0.76,9.68,0.00,0.02,0.00,76.75,-22.50,-20.19
2026-06-27 11:34:40.813,0.07,0.76,9.69,0.01,0.02,0.00,76.75,-22.50,-20.19
2026-06-27 11:34:40.826,0.04,0.76,9.69,0.00,0.02,0.00,76.06,-21.75,-20.50
2026-06-27 11:34:40.842,0.03,0.76,9.69,0.00,0.03,0.00,76.06,-21.75,-20.50
2026-06-27 11:34:40.855,0.02,0.77,9.70,0.00,0.03,0.00,76.06,-21.75,-20.50
2026-06-27 11:34:40.868,0.00,0.76,9.70,0.00,0.02,0.00,76.06,-21.75,-20.50
2026-06-27 11:34:40.880,0.00,0.76,9.68,0.00,0.03,0.00,76.50,-22.88,-20.50
2026-06-27 11:34:40.894,0.01,0.78,9.69,0.00,0.02,-0.00,76.50,-22.88,-20.50
2026-06-27 11:34:40.907,-0.01,0.78,9.68,0.00,0.02,0.00,76.50,-22.88,-20.50
2026-06-27 11:34:40.919,0.00,0.77,9.70,0.00,0.02,-0.00,76.50,-22.88,-20.50
2026-06-27 11:34:40.934,0.00,0.79,9.67,0.00,0.01,0.00,77.88,-22.88,-19.75
2026-06-27 11:34:40.946,0.00,0.81,9.70,0.00,0.01,-0.00,77.88,-22.88,-19.75
2026-06-27 11:34:40.963,0.00,0.80,9.69,0.00,0.02,-0.00,77.88,-22.88,-19.75
2026-06-27 11:34:40.976,0.01,0.82,9.68,0.00,0.01,0.00,76.06,-22.88,-21.00
2026-06-27 11:34:40.993,0.01,0.81,9.67,0.00,0.01,-0.00,76.06,-22.88,-21.00
2026-06-27 11:34:41.006,0.01,0.78,9.69,0.00,0.01,0.00,76.06,-22.88,-21.00
2026-06-27 11:34:41.018,0.02,0.80,9.70,0.00,0.01,-0.00,76.06,-22.88,-21.00
2026-06-27 11:34:41.034,0.03,0.78,9.69,0.00,0.01,0.00,77.50,-22.06,-20.50
2026-06-27 11:34:41.046,0.02,0.77,9.68,0.00,0.01,-0.00,77.50,-22.06,-20.50
2026-06-27 11:34:41.063,0.03,0.76,9.68,0.00,0.01,0.00,77.50,-22.06,-20.50
2026-06-27 11:34:41.076,0.05,0.77,9.70,-0.00,0.01,0.00,77.50,-23.56,-21.38
2026-06-27 11:34:41.093,0.03,0.77,9.67,-0.00,0.01,0.00,77.50,-23.56,-21.38
2026-06-27 11:34:41.106,0.04,0.77,9.68,0.00,0.01,-0.00,77.50,-23.56,-21.38
2026-06-27 11:34:41.118,0.02,0.78,9.70,0.00,0.01,0.00,77.50,-23.56,-21.38
2026-06-27 11:34:41.134,0.03,0.78,9.68,0.00,0.01,0.00,76.75,-22.50,-21.38
2026-06-27 11:34:41.146,0.07,0.77,9.67,0.00,0.01,-0.00,76.75,-22.50,-21.38
2026-06-27 11:34:41.163,0.06,0.77,9.66,0.00,0.01,0.00,76.75,-22.50,-21.38
2026-06-27 11:34:41.177,0.06,0.76,9.71,0.00,0.02,-0.00,76.75,-22.88,-21.00
2026-06-27 11:34:41.196,0.04,0.76,9.67,0.00,0.02,0.00,76.75,-22.88,-21.00
2026-06-27 11:34:41.214,0.07,0.75,9.69,0.00,0.02,0.00,76.75,-22.88,-21.00
2026-06-27 11:34:41.227,0.05,0.76,9.68,0.00,0.02,0.00,76.75,-22.50,-21.00
2026-06-27 11:34:41.244,0.04,0.76,9.67,0.00,0.02,0.00,76.75,-22.50,-21.00
2026-06-27 11:34:41.257,0.01,0.77,9.68,0.00,0.02,0.00,76.75,-22.50,-21.00
2026-06-27 11:34:41.269,0.04,0.77,9.68,0.00,0.02,-0.00,76.75,-22.50,-21.00
2026-06-27 11:34:41.284,0.04,0.78,9.67,0.00,0.02,0.00,76.75,-22.50,-21.75
2026-06-27 11:34:41.297,0.01,0.78,9.68,0.00,0.02,-0.00,76.75,-22.50,-21.75
2026-06-27 11:34:41.314,-0.01,0.82,9.68,0.00,0.02,0.00,76.75,-22.50,-21.75
2026-06-27 11:34:41.328,-0.06,0.79,9.69,0.00,0.02,0.00,76.88,-21.75,-20.50
2026-06-27 11:34:41.344,-0.03,0.81,9.68,0.00,0.02,0.00,76.88,-21.75,-20.50
2026-06-27 11:34:41.357,-0.01,0.79,9.69,0.00,0.02,0.00,76.88,-21.75,-20.50
2026-06-27 11:34:41.370,0.00,0.79,9.70,0.00,0.02,-0.00,76.88,-21.75,-20.50
2026-06-27 11:34:41.384,-0.01,0.81,9.69,0.00,0.01,-0.00,77.19,-22.50,-21.38
2026-06-27 11:34:41.397,-0.03,0.82,9.67,0.00,0.01,-0.00,77.19,-22.50,-21.38
2026-06-27 11:34:41.413,-0.04,0.80,9.68,0.00,0.01,0.00,77.19,-22.50,-21.38
2026-06-27 11:34:41.426,-0.02,0.80,9.72,0.00,0.01,0.00,76.88,-22.50,-20.50
2026-06-27 11:34:41.443,-0.02,0.80,9.72,0.00,0.01,0.00,76.88,-22.50,-20.50
2026-06-27 11:34:41.456,-0.06,0.81,9.66,0.00,0.01,0.00,76.88,-22.50,-20.50
2026-06-27 11:34:41.470,-0.04,0.78,9.66,0.00,0.01,-0.00,76.88,-22.50,-20.50
2026-06-27 11:34:41.485,-0.05,0.82,9.67,-0.00,0.01,0.00,77.50,-22.50,-20.50
2026-06-27 11:34:41.497,-0.03,0.79,9.67,0.00,0.00,-0.00,77.50,-22.50,-20.50
2026-06-27 11:34:41.514,-0.04,0.80,9.70,0.00,0.00,0.00,77.50,-22.50,-20.50
2026-06-27 11:34:41.527,-0.01,0.77,9.69,-0.00,0.00,-0.00,77.19,-22.06,-21.00
2026-06-27 11:34:41.544,-0.01,0.80,9.68,0.00,-0.00,-0.00,77.19,-22.06,-21.00
2026-06-27 11:34:41.557,0.00,0.77,9.70,-0.00,-0.01,-0.00,77.19,-22.06,-21.00
2026-06-27 11:34:41.570,0.02,0.77,9.70,-0.00,-0.00,-0.00,77.19,-22.06,-21.00
2026-06-27 11:34:41.585,0.03,0.77,9.69,-0.00,-0.00,0.00,77.19,-22.50,-20.50
2026-06-27 11:34:41.601,0.02,0.76,9.66,0.00,-0.00,-0.00,77.19,-22.50,-20.50
2026-06-27 11:34:41.615,0.03,0.79,9.69,-0.00,-0.00,-0.00,77.19,-22.50,-20.50
2026-06-27 11:34:41.629,0.05,0.79,9.70,-0.00,-0.01,0.00,77.19,-22.50,-20.50
2026-06-27 11:34:41.645,0.04,0.79,9.68,-0.00,-0.00,0.00,77.19,-22.50,-20.50
2026-06-27 11:34:41.657,0.03,0.77,9.66,-0.00,-0.01,0.00,77.19,-22.50,-20.50
2026-06-27 11:34:41.670,0.05,0.76,9.68,0.00,0.00,0.00,77.19,-22.50,-20.50
2026-06-27 11:34:41.685,0.04,0.74,9.70,0.00,0.00,0.00,78.25,-22.88,-20.19
2026-06-27 11:34:41.698,0.05,0.73,9.66,0.00,0.00,-0.00,78.25,-22.88,-20.19
2026-06-27 11:34:41.715,0.04,0.70,9.66,0.00,0.00,0.00,78.25,-22.88,-20.19
2026-06-27 11:34:41.727,0.10,0.72,9.66,0.00,0.00,-0.00,77.19,-22.50,-20.19
2026-06-27 11:34:41.744,0.06,0.74,9.68,0.00,0.01,0.00,77.19,-22.50,-20.19
2026-06-27 11:34:41.757,0.08,0.76,9.69,0.00,0.00,0.00,77.19,-22.50,-20.19
2026-06-27 11:34:41.769,0.10,0.78,9.68,0.00,0.01,0.00,77.19,-22.50,-20.19
2026-06-27 11:34:41.785,0.07,0.77,9.68,0.00,0.02,0.00,76.50,-22.88,-21.38
2026-06-27 11:34:41.798,0.02,0.80,9.64,0.00,0.02,0.00,76.50,-22.88,-21.38
2026-06-27 11:34:41.815,0.00,0.80,9.66,0.00,0.02,0.00,76.50,-22.88,-21.38
