timestamp,accel_x,accel_y,accel_z,gyro_x,gyro_y,gyro_z,mag_x,mag_y,mag_z
2026-06-27 11:36:13.906,0.00,0.00,0.00,0.00,0.00,0.00,0.00,0.00,0.00
2026-06-27 11:36:13.923,0.42,0.72,9.51,-0.00,-0.00,-0.00,70.56,-9.75,-31.00
2026-06-27 11:36:13.937,0.47,0.73,9.61,-0.00,-0.00,0.00,70.56,-9.75,-31.00
2026-06-27 11:36:13.956,0.52,0.73,9.67,-0.01,-0.00,0.00,70.56,-9.75,-31.00
2026-06-27 11:36:13.968,0.46,0.74,9.66,-0.00,-0.00,-0.00,70.56,-9.75,-31.00
2026-06-27 11:36:13.987,0.46,0.74,9.64,-0.00,-0.01,0.00,70.56,-9.75,-31.00
2026-06-27 11:36:13.999,0.51,0.71,9.68,-0.00,-0.00,0.00,70.56,-9.75,-31.00
2026-06-27 11:36:14.016,0.50,0.71,9.68,-0.00,-0.01,0.00,71.00,-9.75,-30.19
2026-06-27 11:36:14.029,0.46,0.70,9.66,-0.00,-0.00,0.00,71.00,-9.75,-30.19
2026-06-27 11:36:14.046,0.48,0.71,9.67,-0.00,-0.00,0.00,71.00,-9.75,-30.19
2026-06-27 11:36:14.059,0.51,0.70,9.67,-0.00,-0.00,-0.00,70.19,-9.75,-29.38
2026-06-27 11:36:14.073,0.49,0.70,9.68,-0.00,-0.00,0.00,70.19,-9.75,-29.38
2026-06-27 11:36:14.088,0.48,0.71,9.64,-0.00,-0.00,0.00,70.19,-9.75,-29.38
2026-06-27 11:36:14.101,0.48,0.71,9.68,-0.00,-0.01,-0.00,70.19,-9.75,-29.38
2026-06-27 11:36:14.117,0.51,0.70,9.68,-0.00,-0.00,0.00,71.00,-10.19,-31.00
2026-06-27 11:36:14.130,0.48,0.70,9.65,-0.00,-0.00,0.00,71.00,-10.19,-31.00
2026-06-27 11:36:14.147,0.50,0.69,9.66,-0.00,-0.00,0.00,71.00,-10.19,-31.00
2026-06-27 11:36:14.159,0.50,0.70,9.68,-0.00,-0.00,0.00,71.69,-9.75,-31.75
2026-06-27 11:36:14.176,0.49,0.69,9.70,-0.00,-0.00,0.00,71.69,-9.75,-31.75
2026-06-27 11:36:14.189,0.45,0.68,9.67,-0.00,-0.00,0.00,71.69,-9.75,-31.75
2026-06-27 11:36:14.201,0.49,0.69,9.67,-0.00,-0.00,-0.00,71.69,-9.75,-31.75
2026-06-27 11:36:14.217,0.50,0.68,9.68,-0.00,0.00,-0.00,71.00,-9.75,-30.19
2026-06-27 11:36:14.230,0.47,0.72,9.64,-0.00,-0.00,-0.00,71.00,-9.75,-30.19
2026-06-27 11:36:14.248,0.48,0.70,9.67,-0.00,-0.00,0.00,71.00,-9.75,-30.19
2026-06-27 11:36:14.260,0.50,0.68,9.69,-0.00,-0.00,0.00,70.56,-9.38,-31.00
2026-06-27 11:36:14.277,0.49,0.67,9.68,-0.01,0.00,0.00,70.56,-9.38,-31.00
2026-06-27 11:36:14.289,0.50,0.67,9.71,-0.00,0.00,0.00,70.56,-9.38,-31.00
2026-06-27 11:36:14.302,0.49,0.67,9.69,-0.00,-0.00,-0.00,70.56,-9.38,-31.00
2026-06-27 11:36:14.318,0.51,0.67,9.69,-0.00,-0.00,-0.00,71.56,-9.38,-31.38
2026-06-27 11:36:14.330,0.46,0.66,9.66,-0.00,-0.00,-0.00,71.56,-9.38,-31.38
2026-06-27 11:36:14.347,0.48,0.69,9.70,-0.00,-0.00,0.00,71.56,-9.38,-31.38
2026-06-27 11:36:14.361,0.50,0.68,9.67,-0.00,0.00,-0.00,71.19,-9.75,-31.38
2026-06-27 11:36:14.378,0.50,0.68,9.67,-0.00,0.00,-0.00,71.19,-9.75,-31.38
2026-06-27 11:36:14.390,0.49,0.69,9.67,-0.00,0.00,-0.00,71.19,-9.75,-31.38
2026-06-27 11:36:14.402,0.48,0.69,9.68,-0.00,0.00,-0.00,71.19,-9.75,-31.38
2026-06-27 11:36:14.418,0.50,0.68,9.67,-0.00,-0.00,-0.00,70.06,-9.75,-31.38
2026-06-27 11:36:14.431,0.50,0.66,9.70,-0.01,-0.00,0.00,70.06,-9.75,-31.38
2026-06-27 11:36:14.447,0.46,0.67,9.67,-0.00,-0.00,-0.00,70.06,-9.75,-31.38
2026-06-27 11:36:14.460,0.50,0.67,9.66,-0.00,0.00,-0.00,69.38,-9.38,-29.75
2026-06-27 11:36:14.478,0.52,0.72,9.68,0.00,0.00,-0.00,69.38,-9.38,-29.75
2026-06-27 11:36:14.490,0.50,0.71,9.67,-0.00,-0.00,0.00,69.38,-9.38,-29.75
2026-06-27 11:36:14.502,0.50,0.73,9.67,-0.00,0.00,0.00,69.38,-9.38,-29.75
2026-06-27 11:36:14.518,0.52,0.72,9.67,-0.00,0.00,-0.00,69.69,-9.75,-29.75
2026-06-27 11:36:14.531,0.51,0.72,9.68,-0.00,0.01,-0.00,69.69,-9.75,-29.75
2026-06-27 11:36:14.548,0.51,0.75,9.69,-0.00,0.00,-0.00,69.69,-9.75,-29.75
2026-06-27 11:36:14.561,0.52,0.73,9.68,-0.00,0.00,0.00,70.06,-9.38,-30.56
2026-06-27 11:36:14.578,0.56,0.72,9.70,0.00,0.01,-0.00,70.06,-9.38,-30.56
2026-06-27 11:36:14.590,0.51,0.72,9.65,0.00,0.01,0.00,70.06,-9.38,-30.56
2026-06-27 11:36:14.603,0.51,0.70,9.68,0.00,0.01,-0.00,70.06,-9.38,-30.56
2026-06-27 11:36:14.618,0.55,0.70,9.68,0.00,0.01,-0.00,69.69,-8.69,-31.38
2026-06-27 11:36:14.631,0.57,0.68,9.66,0.00,0.01,-0.00,69.69,-8.69,-31.38
2026-06-27 11:36:14.648,0.55,0.67,9.67,0.00,0.01,-0.00,69.69,-8.69,-31.38
2026-06-27 11:36:14.661,0.60,0.67,9.67,0.00,0.02,-0.01,70.06,-9.06,-29.75
2026-06-27 11:36:14.678,0.60,0.64,9.70,0.00,0.03,-0.01,70.06,-9.06,-29.75
2026-06-27 11:36:14.691,0.56,0.67,9.68,0.00,0.03,-0.00,70.06,-9.06,-29.75
2026-06-27 11:36:14.703,0.57,0.72,9.63,0.00,0.04,-0.00,70.06,-9.06,-29.75
2026-06-27 11:36:14.716,0.58,0.75,9.64,0.01,0.04,-0.00,70.50,-9.38,-30.19
2026-06-27 11:36:14.729,0.62,0.89,9.64,0.00,0.04,0.00,70.50,-9.38,-30.19
2026-06-27 11:36:14.742,0.61,0.89,9.64,0.01,0.05,-0.00,70.50,-9.38,-30.19
2026-06-27 11:36:14.754,0.66,0.90,9.64,0.01,0.05,-0.01,70.50,-9.38,-30.19
2026-06-27 11:36:14.766,0.70,0.94,9.66,0.01,0.06,-0.01,70.06,-9.06,-29.75
2026-06-27 11:36:14.779,0.57,0.92,9.69,0.01,0.07,-0.01,70.06,-9.06,-29.75
2026-06-27 11:36:14.794,0.42,0.65,9.66,0.01,0.07,-0.01,70.06,-9.06,-29.75
2026-06-27 11:36:14.807,0.49,0.37,9.68,0.01,0.08,0.00,70.06,-9.06,-29.75
2026-06-27 11:36:14.819,0.47,0.52,9.66,0.01,0.09,0.00,71.19,-9.06,-30.19
2026-06-27 11:36:14.831,0.24,0.39,9.70,0.01,0.08,0.01,71.19,-9.06,-30.19
2026-06-27 11:36:14.850,0.42,0.48,9.76,0.01,0.09,0.00,71.19,-9.06,-30.19
2026-06-27 11:36:14.863,0.25,0.69,9.69,0.01,0.09,0.00,71.19,-8.25,-29.38
2026-06-27 11:36:14.896,0.15,0.78,9.67,0.01,0.08,0.00,71.19,-8.25,-29.38
2026-06-27 11:36:14.909,0.25,1.02,9.65,0.01,0.07,-0.00,71.19,-8.69,-28.19
2026-06-27 11:36:14.921,0.00,0.97,9.61,0.01,0.06,0.00,71.19,-8.69,-28.19
2026-06-27 11:36:14.938,0.06,1.05,9.71,0.01,0.06,-0.01,71.19,-8.69,-28.19
2026-06-27 11:36:14.950,0.27,1.42,9.58,0.00,0.05,-0.01,71.19,-8.69,-28.19
2026-06-27 11:36:14.963,0.63,0.83,9.51,0.01,0.04,-0.02,72.00,-8.69,-28.56
2026-06-27 11:36:14.979,0.46,1.16,9.65,0.00,0.03,-0.01,72.00,-8.69,-28.56
2026-06-27 11:36:14.994,0.42,1.33,9.53,0.00,0.03,-0.00,72.00,-8.69,-28.56
2026-06-27 11:36:15.009,0.09,1.58,9.49,0.01,0.02,0.00,72.38,-8.25,-28.56
2026-06-27 11:36:15.023,0.47,1.57,9.80,-0.00,0.01,0.00,72.38,-8.25,-28.56
2026-06-27 11:36:15.039,0.18,1.51,9.66,0.00,0.02,-0.00,72.38,-8.25,-28.56
2026-06-27 11:36:15.051,0.41,0.69,9.65,-0.00,0.02,-0.00,72.38,-8.25,-28.56
2026-06-27 11:36:15.068,0.29,0.41,9.72,-0.00,0.01,-0.00,72.38,-7.56,-27.75
2026-06-27 11:36:15.081,0.00,-0.10,9.73,-0.00,0.02,0.00,72.38,-7.56,-27.75
2026-06-27 11:36:15.099,0.14,-0.29,9.79,-0.00,0.01,0.00,72.38,-7.56,-27.75
2026-06-27 11:36:15.111,0.00,0.27,9.69,-0.00,0.01,0.01,72.00,-8.69,-28.56
2026-06-27 11:36:15.129,0.11,0.43,9.70,0.01,0.01,0.01,72.00,-8.69,-28.56
2026-06-27 11:36:15.141,-0.01,0.88,9.69,-0.00,0.00,0.01,72.00,-8.69,-28.56
2026-06-27 11:36:15.154,0.29,0.88,9.57,-0.01,0.01,0.00,72.00,-8.69,-28.56
2026-06-27 11:36:15.169,0.22,0.74,9.63,-0.00,-0.00,-0.01,72.69,-8.25,-28.56
2026-06-27 11:36:15.181,0.21,0.60,9.79,-0.00,-0.00,-0.01,72.69,-8.25,-28.56
2026-06-27 11:36:15.198,0.15,0.44,9.68,-0.00,-0.00,-0.01,72.69,-8.25,-28.56
2026-06-27 11:36:15.211,0.06,0.51,9.68,-0.00,-0.01,0.00,72.00,-7.56,-29.00
2026-06-27 11:36:15.226,-0.02,0.65,9.74,-0.00,-0.02,0.01,72.00,-7.56,-29.00
2026-06-27 11:36:15.240,0.25,0.78,9.73,-0.00,-0.01,0.02,72.00,-7.56,-29.00
2026-06-27 11:36:15.252,0.49,0.82,9.61,-0.00,-0.01,0.01,72.00,-7.56,-29.00
2026-06-27 11:36:15.269,0.13,1.01,9.69,-0.00,-0.02,0.01,72.38,-8.69,-28.56
2026-06-27 11:36:15.281,0.21,0.94,9.64,0.00,-0.02,-0.01,72.38,-8.69,-28.56
2026-06-27 11:36:15.299,0.22,1.01,9.60,-0.00,-0.02,-0.01,72.38,-8.69,-28.56
2026-06-27 11:36:15.313,0.09,0.96,9.67,-0.00,-0.03,-0.00,72.38,-8.25,-29.75
2026-06-27 11:36:15.329,0.21,1.03,9.73,-0.00,-0.03,0.00,72.38,-8.25,-29.75
2026-06-27 11:36:15.342,0.34,1.01,9.60,-0.01,-0.03,0.01,72.38,-8.25,-29.75
2026-06-27 11:36:15.355,0.41,1.07,9.69,-0.01,-0.03,0.01,72.38,-8.25,-29.75
2026-06-27 11:36:15.367,0.36,0.97,9.71,-0.01,-0.03,0.00,72.38,-7.88,-28.19
2026-06-27 11:36:15.380,0.25,1.00,9.65,-0.00,-0.04,-0.01,72.38,-7.88,-28.19
2026-06-27 11:36:15.393,0.30,0.96,9.67,-0.01,-0.03,-0.01,72.38,-7.88,-28.19
2026-06-27 11:36:15.405,0.46,0.91,9.67,-0.00,-0.03,-0.01,72.38,-7.88,-28.19
2026-06-27 11:36:15.419,0.40,0.92,9.67,-0.00,-0.03,-0.00,71.56,-9.06,-28.56
2026-06-27 11:36:15.431,0.35,0.88,9.64,-0.00,-0.03,0.00,71.56,-9.06,-28.56
2026-06-27 11:36:15.449,0.56,0.94,9.69,-0.00,-0.02,0.00,71.56,-9.06,-28.56
2026-06-27 11:36:15.461,0.49,0.96,9.68,-0.00,-0.01,0.01,72.38,-7.88,-29.00
2026-06-27 11:36:15.474,0.44,1.06,9.63,-0.00,-0.01,0.01,72.38,-7.88,-29.00
2026-06-27 11:36:15.490,0.37,1.05,9.62,-0.00,-0.01,0.00,72.38,-7.88,-29.00
2026-06-27 11:36:15.503,0.43,1.08,9.65,-0.00,-0.00,0.00,72.38,-7.88,-29.00
2026-06-27 11:36:15.520,0.44,1.01,9.67,-0.00,0.00,0.01,71.56,-8.25,-29.38
2026-06-27 11:36:15.532,0.40,0.97,9.67,0.00,0.00,0.00,71.56,-8.25,-29.38
2026-06-27 11:36:15.550,0.37,0.89,9.66,-0.00,0.01,0.00,71.56,-8.25,-29.38
2026-06-27 11:36:15.562,0.38,0.90,9.68,0.00,0.01,0.01,71.56,-7.88,-29.00
2026-06-27 11:36:15.579,0.36,0.88,9.68,0.00,0.01,0.01,71.56,-7.88,-29.00
2026-06-27 11:36:15.591,0.39,0.79,9.65,0.00,0.01,0.00,71.56,-7.88,-29.00
2026-06-27 11:36:15.604,0.39,0.71,9.67,0.00,0.01,0.00,71.56,-7.88,-29.00
2026-06-27 11:36:15.620,0.39,0.59,9.68,-0.00,0.01,0.00,72.69,-9.06,-28.56
2026-06-27 11:36:15.632,0.28,0.33,9.68,0.00,0.02,-0.00,72.69,-9.06,-28.56
2026-06-27 11:36:15.650,0.35,0.25,9.73,-0.00,0.02,-0.00,72.69,-9.06,-28.56
2026-06-27 11:36:15.662,0.28,0.12,9.74,0.00,0.03,-0.00,73.06,-9.38,-28.19
2026-06-27 11:36:15.680,0.29,0.11,9.70,0.00,0.03,-0.00,73.06,-9.38,-28.19
2026-06-27 11:36:15.692,0.27,0.23,9.75,0.00,0.04,0.00,73.06,-9.38,-28.19
2026-06-27 11:36:15.704,0.29,0.33,9.70,0.00,0.05,0.01,73.06,-9.38,-28.19
2026-06-27 11:36:15.717,0.30,0.43,9.67,0.01,0.05,0.01,73.06,-10.56,-28.19
2026-06-27 11:36:15.731,0.22,0.59,9.68,0.01,0.05,0.01,73.06,-10.56,-28.19
2026-06-27 11:36:15.748,0.30,0.71,9.68,0.00,0.05,0.00,73.06,-10.56,-28.19
2026-06-27 11:36:15.760,0.27,0.72,9.62,0.01,0.05,0.00,72.38,-10.19,-27.38
2026-06-27 11:36:15.773,0.18,0.74,9.69,0.01,0.05,-0.00,72.38,-10.19,-27.38
2026-06-27 11:36:15.789,0.20,0.73,9.68,0.01,0.05,-0.01,72.38,-10.19,-27.38
2026-06-27 11:36:15.802,0.19,0.48,9.72,0.00,0.06,-0.00,72.38,-10.19,-27.38
2026-06-27 11:36:15.815,0.16,0.41,9.76,0.00,0.06,-0.01,73.50,-9.06,-26.19
2026-06-27 11:36:15.830,0.16,0.41,9.75,0.01,0.06,-0.01,73.50,-9.06,-26.19
2026-06-27 11:36:15.842,0.21,0.46,9.69,0.01,0.06,-0.00,73.50,-9.06,-26.19
2026-06-27 11:36:15.855,0.20,0.54,9.70,0.01,0.06,-0.00,73.50,-9.06,-26.19
2026-06-27 11:36:15.868,0.15,0.65,9.70,0.01,0.06,-0.00,73.88,-9.75,-26.56
2026-06-27 11:36:15.881,0.14,0.66,9.66,0.01,0.06,0.00,73.88,-9.75,-26.56
2026-06-27 11:36:15.894,0.17,0.67,9.68,0.01,0.06,0.00,73.88,-9.75,-26.56
2026-06-27 11:36:15.907,0.18,0.66,9.69,0.00,0.07,0.00,73.88,-9.75,-26.56
2026-06-27 11:36:15.920,0.17,0.66,9.66,0.01,0.06,-0.01,73.88,-9.06,-26.19
2026-06-27 11:36:15.933,0.15,0.71,9.69,0.01,0.06,-0.01,73.88,-9.06,-26.19
2026-06-27 11:36:15.951,0.17,0.72,9.71,0.01,0.07,-0.02,73.88,-9.06,-26.19
2026-06-27 11:36:15.963,0.16,0.77,9.67,0.01,0.07,-0.01,74.19,-10.56,-26.19
2026-06-27 11:36:15.978,0.17,0.79,9.65,0.01,0.07,-0.01,74.19,-10.56,-26.19
2026-06-27 11:36:15.991,0.19,0.84,9.69,0.01,0.08,-0.00,74.19,-10.56,-26.19
2026-06-27 11:36:16.004,0.20,0.83,9.67,0.01,0.08,-0.00,74.19,-10.56,-26.19
2026-06-27 11:36:16.016,0.15,0.84,9.67,0.01,0.08,-0.00,73.88,-9.38,-26.56
2026-06-27 11:36:16.031,0.16,0.82,9.66,0.01,0.09,-0.00,73.88,-9.38,-26.56
2026-06-27 11:36:16.044,0.15,0.82,9.67,0.01,0.09,-0.01,73.88,-9.38,-26.56
2026-06-27 11:36:16.056,0.12,0.80,9.67,0.01,0.10,-0.01,73.88,-9.38,-26.56
2026-06-27 11:36:16.068,0.12,0.83,9.69,0.01,0.10,-0.01,73.88,-9.06,-26.19
2026-06-27 11:36:16.082,0.06,0.82,9.65,0.01,0.10,-0.01,73.88,-9.06,-26.19
2026-06-27 11:36:16.094,0.10,0.81,9.68,0.01,0.11,-0.01,73.88,-9.06,-26.19
2026-06-27 11:36:16.107,0.10,0.81,9.68,0.01,0.11,-0.00,73.88,-9.06,-26.19
2026-06-27 11:36:16.120,0.06,0.75,9.67,0.01,0.11,-0.00,74.56,-8.25,-26.19
2026-06-27 11:36:16.133,0.00,0.78,9.62,0.01,0.12,-0.00,74.56,-8.25,-26.19
2026-06-27 11:36:16.147,0.02,0.78,9.69,0.02,0.12,-0.00,74.56,-8.25,-26.19
2026-06-27 11:36:16.159,0.02,0.82,9.68,0.01,0.12,-0.01,74.56,-8.25,-26.19
2026-06-27 11:36:16.172,-0.08,0.87,9.64,0.01,0.12,-0.01,75.38,-8.69,-25.00
2026-06-27 11:36:16.185,-0.15,0.90,9.60,0.01,0.12,-0.00,75.38,-8.69,-25.00
2026-06-27 11:36:16.201,-0.06,0.89,9.70,0.01,0.13,-0.00,75.38,-8.69,-25.00
2026-06-27 11:36:16.214,-0.13,0.84,9.68,0.01,0.12,-0.00,76.75,-8.69,-23.38
2026-06-27 11:36:16.226,-0.25,0.81,9.67,0.01,0.12,-0.00,76.75,-8.69,-23.38
2026-06-27 11:36:16.241,-0.23,0.77,9.69,0.02,0.12,-0.00,76.75,-8.69,-23.38
2026-06-27 11:36:16.253,-0.28,0.77,9.73,0.01,0.12,-0.00,76.75,-8.69,-23.38
2026-06-27 11:36:16.266,-0.34,0.81,9.69,0.01,0.11,0.00,76.06,-8.25,-24.56
2026-06-27 11:36:16.281,-0.37,0.81,9.64,0.01,0.10,-0.00,76.06,-8.25,-24.56
2026-06-27 11:36:16.293,-0.45,0.86,9.72,0.01,0.10,0.00,76.06,-8.25,-24.56
2026-06-27 11:36:16.306,-0.41,0.84,9.74,0.01,0.10,0.00,76.06,-8.25,-24.56
2026-06-27 11:36:16.318,-0.40,0.85,9.73,0.01,0.08,0.00,76.38,-7.88,-23.38
2026-06-27 11:36:16.332,-0.46,0.83,9.64,0.01,0.07,-0.00,76.38,-7.88,-23.38
2026-06-27 11:36:16.344,-0.48,0.83,9.69,0.01,0.07,-0.01,76.38,-7.88,-23.38
2026-06-27 11:36:16.357,-0.45,0.82,9.69,0.01,0.07,-0.01,76.38,-7.88,-23.38
2026-06-27 11:36:16.371,-0.49,0.79,9.69,0.01,0.06,-0.01,77.19,-7.88,-23.75
2026-06-27 11:36:16.384,-0.44,0.80,9.67,0.01,0.05,-0.01,77.19,-7.88,-23.75
2026-06-27 11:36:16.402,-0.42,0.80,9.70,0.01,0.04,-0.00,77.19,-7.88,-23.75
2026-06-27 11:36:16.414,-0.51,0.83,9.68,0.00,0.03,-0.00,77.88,-8.25,-22.56
2026-06-27 11:36:16.426,-0.51,0.82,9.69,0.00,0.03,-0.00,77.88,-8.25,-22.56
2026-06-27 11:36:16.441,-0.43,0.84,9.68,0.00,0.02,0.00,77.88,-8.25,-22.56
2026-06-27 11:36:16.454,-0.45,0.86,9.68,0.00,0.02,0.00,77.88,-8.25,-22.56
2026-06-27 11:36:16.471,-0.45,0.87,9.69,0.00,0.01,0.00,76.75,-7.88,-22.19
2026-06-27 11:36:16.484,-0.38,0.87,9.67,0.00,0.01,-0.01,76.75,-7.88,-22.19
2026-06-27 11:36:16.501,-0.45,0.87,9.66,0.00,0.00,-0.00,76.75,-7.88,-22.19
2026-06-27 11:36:16.514,-0.43,0.90,9.69,0.00,-0.01,-0.00,78.69,-7.56,-23.00
2026-06-27 11:36:16.530,-0.37,0.90,9.71,-0.00,-0.01,-0.00,78.69,-7.56,-23.00
2026-06-27 11:36:16.543,-0.37,0.93,9.71,-0.00,-0.02,0.00,78.69,-7.56,-23.00
2026-06-27 11:36:16.555,-0.30,0.94,9.69,-0.00,-0.02,-0.00,78.69,-7.56,-23.00
2026-06-27 11:36:16.572,-0.24,0.93,9.64,-0.00,-0.02,-0.00,77.50,-7.19,-22.50
2026-06-27 11:36:16.584,-0.27,0.99,9.69,-0.00,-0.02,-0.01,77.50,-7.19,-22.50
2026-06-27 11:36:16.601,-0.21,0.98,9.72,-0.00,-0.02,-0.01,77.50,-7.19,-22.50
2026-06-27 11:36:16.613,-0.25,0.94,9.64,-0.00,-0.01,-0.00,77.88,-7.88,-23.38
2026-06-27 11:36:16.627,-0.27,0.92,9.66,0.00,-0.01,-0.00,77.88,-7.88,-23.38
2026-06-27 11:36:16.643,-0.23,0.89,9.64,-0.00,-0.01,0.01,77.88,-7.88,-23.38
2026-06-27 11:36:16.655,-0.20,0.81,9.75,-0.00,-0.01,0.01,77.88,-7.88,-23.38
2026-06-27 11:36:16.672,-0.30,0.75,9.73,-0.00,-0.01,0.01,77.50,-6.75,-23.38
2026-06-27 11:36:16.684,-0.18,0.70,9.60,0.00,0.00,-0.00,77.50,-6.75,-23.38
2026-06-27 11:36:16.701,-0.15,0.78,9.70,0.00,0.00,-0.01,77.50,-6.75,-23.38
2026-06-27 11:36:16.714,-0.25,0.81,9.63,-0.00,0.01,-0.01,77.88,-7.56,-23.75
2026-06-27 11:36:16.731,-0.18,0.65,9.69,0.00,0.01,-0.01,77.88,-7.56,-23.75
2026-06-27 11:36:16.744,-0.17,0.49,9.75,0.00,0.02,-0.00,77.88,-7.56,-23.75
2026-06-27 11:36:16.756,-0.22,0.39,9.72,0.00,0.02,0.00,77.88,-7.56,-23.75
2026-06-27 11:36:16.769,-0.18,0.36,9.65,0.01,0.02,0.00,77.50,-7.56,-24.19
2026-06-27 11:36:16.782,-0.14,0.44,9.61,0.00,0.04,-0.01,77.50,-7.56,-24.19
2026-06-27 11:36:16.795,-0.15,0.31,9.90,0.01,0.05,-0.01,77.50,-7.56,-24.19
2026-06-27 11:36:16.809,-0.27,0.45,9.70,0.00,0.05,-0.01,77.50,-7.56,-24.19
2026-06-27 11:36:16.821,-0.33,0.55,9.53,0.01,0.05,-0.01,77.19,-8.69,-23.00
2026-06-27 11:36:16.835,-0.16,1.31,9.85,0.01,0.06,0.00,77.19,-8.69,-23.00
2026-06-27 11:36:16.852,-0.24,1.53,9.71,0.01,0.07,0.01,77.19,-8.69,-23.00
2026-06-27 11:36:16.865,-0.12,0.97,9.61,0.01,0.07,0.01,78.69,-7.56,-22.19
2026-06-27 11:36:16.882,-0.21,0.93,9.50,0.01,0.07,0.00,78.69,-7.56,-22.19
2026-06-27 11:36:16.895,-0.38,0.88,9.60,0.01,0.07,-0.01,78.69,-7.56,-22.19
2026-06-27 11:36:16.908,-0.38,0.90,9.89,0.01,0.08,-0.02,78.69,-7.56,-22.19
2026-06-27 11:36:16.920,-0.40,0.76,9.68,0.01,0.08,-0.02,78.25,-7.56,-21.38
2026-06-27 11:36:16.935,-0.40,1.03,9.54,0.01,0.08,-0.01,78.25,-7.56,-21.38
2026-06-27 11:36:16.951,-0.45,0.79,9.79,0.01,0.08,0.00,78.25,-7.56,-21.38
2026-06-27 11:36:16.964,-0.31,0.95,9.69,0.01,0.08,0.01,78.69,-7.19,-21.00
2026-06-27 11:36:16.976,-0.36,0.85,9.50,0.01,0.08,0.01,78.69,-7.19,-21.00
2026-06-27 11:36:16.993,-0.30,0.88,9.64,0.01,0.09,-0.00,78.69,-7.19,-21.00
2026-06-27 11:36:17.005,-0.32,0.82,9.77,0.01,0.09,-0.02,78.69,-7.19,-21.00
2026-06-27 11:36:17.017,-0.43,0.97,9.63,0.01,0.10,-0.02,79.00,-7.19,-21.38
2026-06-27 11:36:17.033,-0.45,0.97,9.62,0.01,0.10,-0.01,79.00,-7.19,-21.38
2026-06-27 11:36:17.046,-0.43,0.94,9.74,0.01,0.11,-0.00,79.00,-7.19,-21.38
2026-06-27 11:36:17.058,-0.40,0.94,9.70,0.01,0.10,0.00,79.00,-7.19,-21.38
2026-06-27 11:36:17.071,-0.40,0.92,9.54,0.01,0.11,0.01,78.69,-7.88,-20.50
2026-06-27 11:36:17.083,-0.33,1.09,9.76,0.01,0.11,0.01,78.69,-7.88,-20.50
2026-06-27 11:36:17.096,-0.45,1.07,9.73,0.01,0.12,0.00,78.69,-7.88,-20.50
2026-06-27 11:36:17.109,-0.52,1.11,9.62,0.01,0.12,-0.00,78.69,-7.88,-20.50
2026-06-27 11:36:17.121,-0.69,1.11,9.56,0.01,0.11,-0.00,79.00,-6.38,-20.19
2026-06-27 11:36:17.134,-0.76,0.98,9.71,0.01,0.11,0.01,79.00,-6.38,-20.19
2026-06-27 11:36:17.146,-0.86,1.02,9.75,0.01,0.10,0.02,79.00,-6.38,-20.19
2026-06-27 11:36:17.158,-0.81,1.11,9.53,0.01,0.09,0.02,79.00,-6.38,-20.19
2026-06-27 11:36:17.171,-0.68,1.17,9.48,0.01,0.09,0.01,79.75,-6.75,-19.38
2026-06-27 11:36:17.184,-0.15,1.09,9.86,0.01,0.09,-0.03,79.75,-6.75,-19.38
2026-06-27 11:36:17.199,-1.19,0.87,9.75,0.01,0.07,-0.03,79.75,-6.75,-19.38
2026-06-27 11:36:17.212,-0.73,0.57,9.52,0.01,0.08,-0.02,79.75,-6.75,-19.38
2026-06-27 11:36:17.225,-0.56,0.16,9.84,0.01,0.09,-0.01,80.88,-7.88,-18.50
2026-06-27 11:36:17.242,-0.98,0.29,9.77,0.01,0.09,-0.01,80.88,-7.88,-18.50
2026-06-27 11:36:17.255,-1.04,0.45,9.57,0.01,0.08,0.01,80.88,-7.88,-18.50
2026-06-27 11:36:17.268,-1.13,0.88,9.82,0.01,0.07,0.02,82.00,-6.75,-18.50
2026-06-27 11:36:17.283,-1.01,0.91,9.83,0.01,0.08,0.03,82.00,-6.75,-18.50
2026-06-27 11:36:17.302,-0.63,0.63,9.48,0.00,0.06,0.03,82.00,-6.75,-18.50
2026-06-27 11:36:17.314,-0.68,0.42,9.74,0.01,0.03,-0.00,82.38,-7.56,-17.75
2026-06-27 11:36:17.330,-1.54,0.72,9.79,0.01,0.02,-0.01,82.38,-7.56,-17.75
2026-06-27 11:36:17.344,-0.93,0.67,9.51,-0.00,0.00,-0.01,82.38,-7.56,-17.75
2026-06-27 11:36:17.357,-1.64,0.89,9.68,-0.00,-0.02,0.01,82.38,-7.56,-17.75
2026-06-27 11:36:17.373,-0.88,0.83,9.74,-0.01,-0.02,0.02,80.88,-7.19,-17.00
2026-06-27 11:36:17.386,-0.82,1.00,9.55,-0.00,-0.02,0.01,80.88,-7.19,-17.00
2026-06-27 11:36:17.404,-0.61,1.13,9.48,-0.00,-0.03,0.00,80.88,-7.19,-17.00
2026-06-27 11:36:17.416,-0.93,1.45,9.77,-0.01,-0.04,-0.00,82.00,-7.19,-19.00
2026-06-27 11:36:17.433,-0.89,1.49,9.62,0.00,-0.04,-0.00,82.00,-7.19,-19.00
2026-06-27 11:36:17.445,-0.32,1.58,9.65,-0.01,-0.03,0.00,82.00,-7.19,-19.00
2026-06-27 11:36:17.458,-0.63,1.46,9.65,-0.00,-0.03,0.00,82.00,-7.19,-19.00
2026-06-27 11:36:17.471,-0.74,1.28,9.54,-0.00,-0.03,0.01,81.69,-7.19,-18.50
2026-06-27 11:36:17.484,-0.70,1.14,9.71,-0.01,-0.03,0.01,81.69,-7.19,-18.50
2026-06-27 11:36:17.496,-0.61,0.97,9.63,-0.00,-0.03,0.01,81.69,-7.19,-18.50
2026-06-27 11:36:17.509,-0.54,0.94,9.67,-0.00,-0.04,0.02,81.69,-7.19,-18.50
2026-06-27 11:36:17.521,-0.95,0.82,9.64,-0.01,-0.04,0.01,81.69,-6.75,-17.69
2026-06-27 11:36:17.534,-0.76,0.91,9.63,-0.01,-0.04,0.00,81.69,-6.75,-17.69
2026-06-27 11:36:17.546,-0.47,0.85,9.64,-0.01,-0.04,-0.00,81.69,-6.75,-17.69
2026-06-27 11:36:17.561,-0.78,0.88,9.68,-0.00,-0.04,-0.00,81.69,-6.75,-17.69
2026-06-27 11:36:17.573,-0.98,1.09,9.74,-0.01,-0.05,-0.00,81.25,-7.88,-18.19
2026-06-27 11:36:17.586,-0.56,0.91,9.58,-0.01,-0.04,0.00,81.25,-7.88,-18.19
2026-06-27 11:36:17.603,-0.59,0.97,9.71,-0.01,-0.05,0.01,81.25,-7.88,-18.19
2026-06-27 11:36:17.615,-0.76,0.78,9.68,-0.01,-0.05,0.01,81.69,-7.56,-18.19
2026-06-27 11:36:17.628,-0.55,0.85,9.60,-0.01,-0.05,0.01,81.69,-7.56,-18.19
2026-06-27 11:36:17.644,-0.63,0.77,9.63,-0.01,-0.05,-0.00,81.69,-7.56,-18.19
2026-06-27 11:36:17.657,-0.54,0.83,9.71,-0.00,-0.05,-0.00,81.69,-7.56,-18.19
2026-06-27 11:36:17.669,-0.65,0.82,9.63,-0.01,-0.05,-0.00,81.25,-8.25,-17.38
2026-06-27 11:36:17.684,-0.66,0.77,9.61,-0.01,-0.05,0.01,81.25,-8.25,-17.38
2026-06-27 11:36:17.703,-0.65,0.93,9.70,-0.01,-0.05,0.02,81.25,-8.25,-17.38
2026-06-27 11:36:17.716,-0.52,0.99,9.61,-0.01,-0.05,0.02,82.00,-8.25,-18.50
2026-06-27 11:36:17.732,-0.68,1.03,9.61,-0.01,-0.06,0.02,82.00,-8.25,-18.50
2026-06-27 11:36:17.745,-0.64,1.12,9.66,-0.01,-0.06,0.01,82.00,-8.25,-18.50
2026-06-27 11:36:17.758,-0.47,1.07,9.70,-0.01,-0.05,-0.00,82.00,-8.25,-18.50
2026-06-27 11:36:17.771,-0.58,0.99,9.65,-0.00,-0.06,-0.01,80.88,-9.06,-18.50
2026-06-27 11:36:17.785,-0.72,1.01,9.67,-0.01,-0.06,-0.01,80.88,-9.06,-18.50
2026-06-27 11:36:17.798,-0.47,0.77,9.72,-0.01,-0.06,-0.00,80.88,-9.06,-18.50
2026-06-27 11:36:17.810,-0.42,0.75,9.64,-0.01,-0.05,0.00,80.88,-9.06,-18.50
2026-06-27 11:36:17.823,-0.58,0.68,9.64,-0.01,-0.06,0.01,80.50,-9.75,-18.19
2026-06-27 11:36:17.836,-0.64,0.59,9.73,-0.01,-0.06,0.01,80.50,-9.75,-18.19
2026-06-27 11:36:17.854,-0.68,0.54,9.74,-0.01,-0.06,0.02,80.50,-9.75,-18.19
2026-06-27 11:36:17.866,-0.61,0.49,9.63,-0.01,-0.06,0.02,81.25,-9.75,-19.00
2026-06-27 11:36:17.878,-0.62,0.61,9.67,-0.01,-0.06,0.01,81.25,-9.75,-19.00
2026-06-27 11:36:17.894,-0.63,0.63,9.68,-0.01,-0.06,0.00,81.25,-9.75,-19.00
2026-06-27 11:36:17.907,-0.33,0.92,9.62,-0.01,-0.06,0.00,81.25,-9.75,-19.00
2026-06-27 11:36:17.920,-0.36,0.93,9.66,-0.01,-0.06,-0.01,80.50,-10.19,-19.00
2026-06-27 11:36:17.935,-0.40,0.91,9.80,-0.01,-0.06,-0.01,80.50,-10.19,-19.00
2026-06-27 11:36:17.948,-0.32,0.56,9.63,-0.01,-0.06,-0.01,80.50,-10.19,-19.00
2026-06-27 11:36:17.960,-0.24,0.43,9.57,-0.00,-0.05,-0.01,80.50,-10.19,-19.00
2026-06-27 11:36:17.974,-0.31,0.41,9.64,-0.00,-0.05,-0.01,80.88,-10.56,-19.38
2026-06-27 11:36:17.987,-0.39,0.44,9.72,-0.00,-0.04,0.01,80.88,-10.56,-19.38
2026-06-27 11:36:18.005,-0.35,0.45,9.68,-0.00,-0.03,0.02,80.88,-10.56,-19.38
2026-06-27 11:36:18.018,-0.19,0.60,9.71,-0.00,-0.02,0.02,80.50,-10.19,-19.00
2026-06-27 11:36:18.035,-0.34,0.66,9.78,-0.01,-0.02,0.01,80.50,-10.19,-19.00
2026-06-27 11:36:18.047,-0.26,0.73,9.61,0.00,-0.01,-0.00,80.50,-10.19,-19.00
2026-06-27 11:36:18.060,-0.17,0.70,9.66,0.00,0.00,-0.01,80.50,-10.19,-19.00
2026-06-27 11:36:18.075,-0.27,0.75,9.68,0.00,0.01,-0.01,80.88,-10.88,-19.75
2026-06-27 11:36:18.089,-0.44,0.84,9.72,0.00,0.01,-0.01,80.88,-10.88,-19.75
2026-06-27 11:36:18.105,-0.29,0.78,9.73,0.00,0.03,0.00,80.88,-10.88,-19.75
2026-06-27 11:36:18.118,-0.28,0.65,9.64,0.00,0.03,0.01,80.50,-10.56,-19.69
2026-06-27 11:36:18.134,-0.43,0.73,9.63,0.00,0.03,0.02,80.50,-10.56,-19.69
2026-06-27 11:36:18.146,-0.39,0.60,9.83,0.00,0.04,0.01,80.50,-10.56,-19.69
2026-06-27 11:36:18.159,-0.41,0.65,9.60,0.00,0.04,0.01,80.50,-10.56,-19.69
2026-06-27 11:36:18.171,-0.34,0.57,9.58,0.00,0.04,-0.00,81.25,-11.25,-18.19
2026-06-27 11:36:18.185,-0.37,0.69,9.68,0.00,0.04,-0.01,81.25,-11.25,-18.19
2026-06-27 11:36:18.199,-0.53,0.66,9.65,0.01,0.04,-0.01,81.25,-11.25,-18.19
2026-06-27 11:36:18.211,-0.67,0.78,9.62,0.01,0.05,-0.01,81.25,-11.25,-18.19
2026-06-27 11:36:18.225,-0.48,0.76,9.71,0.01,0.05,-0.01,80.19,-12.06,-19.00
2026-06-27 11:36:18.238,-0.70,0.70,9.68,0.00,0.04,0.01,80.19,-12.06,-19.00
2026-06-27 11:36:18.255,-0.63,0.63,9.68,0.01,0.04,0.02,80.19,-12.06,-19.00
2026-06-27 11:36:18.268,-0.52,0.77,9.63,0.00,0.04,0.02,80.50,-10.56,-19.00
2026-06-27 11:36:18.284,-0.69,0.85,9.62,0.00,0.03,0.01,80.50,-10.56,-19.00
2026-06-27 11:36:18.298,-0.79,1.14,9.71,0.00,0.02,0.01,80.50,-10.56,-19.00
2026-06-27 11:36:18.310,-0.84,1.14,9.67,0.00,0.01,0.01,80.50,-10.56,-19.00
2026-06-27 11:36:18.325,-0.63,1.08,9.61,-0.00,-0.01,-0.01,80.88,-10.88,-18.50
2026-06-27 11:36:18.337,-0.75,0.98,9.68,-0.00,-0.01,-0.01,80.88,-10.88,-18.50
2026-06-27 11:36:18.354,-0.82,0.98,9.71,-0.00,-0.02,-0.01,80.88,-10.88,-18.50
2026-06-27 11:36:18.366,-0.72,0.96,9.64,-0.00,-0.03,0.01,80.19,-10.56,-19.38
2026-06-27 11:36:18.378,-0.71,0.95,9.66,-0.01,-0.03,0.01,80.19,-10.56,-19.38
2026-06-27 11:36:18.394,-0.67,0.93,9.71,-0.01,-0.03,0.02,80.19,-10.56,-19.38
2026-06-27 11:36:18.406,-0.73,0.92,9.60,-0.00,-0.05,0.01,80.19,-10.56,-19.38
2026-06-27 11:36:18.419,-0.70,0.91,9.65,-0.01,-0.06,0.00,81.25,-10.19,-18.50
2026-06-27 11:36:18.436,-0.73,0.92,9.68,-0.01,-0.07,-0.00,81.25,-10.19,-18.50
2026-06-27 11:36:18.448,-0.74,0.96,9.68,-0.01,-0.07,0.00,81.25,-10.19,-18.50
2026-06-27 11:36:18.461,-0.74,0.96,9.66,-0.01,-0.08,0.00,81.25,-10.19,-18.50
2026-06-27 11:36:18.473,-0.73,0.94,9.60,-0.01,-0.08,0.01,80.88,-10.19,-20.50
2026-06-27 11:36:18.488,-0.40,0.90,9.67,-0.01,-0.09,-0.00,80.88,-10.19,-20.50
2026-06-27 11:36:18.505,-0.53,0.92,9.66,-0.01,-0.10,0.00,80.88,-10.19,-20.50
2026-06-27 11:36:18.518,-0.49,0.97,9.67,-0.01,-0.10,-0.00,80.19,-9.75,-19.00
2026-06-27 11:36:18.531,-0.35,0.94,9.71,-0.01,-0.09,-0.00,80.19,-9.75,-19.00
2026-06-27 11:36:18.547,-0.40,0.87,9.64,-0.01,-0.10,0.01,80.19,-9.75,-19.00
2026-06-27 11:36:18.562,-0.68,0.79,9.68,-0.01,-0.10,0.01,80.19,-9.75,-19.00
2026-06-27 11:36:18.575,-0.37,0.81,9.74,-0.01,-0.10,0.00,79.38,-10.88,-19.00
2026-06-27 11:36:18.588,-0.29,0.59,9.64,-0.01,-0.10,0.00,79.38,-10.88,-19.00
2026-06-27 11:36:18.605,-0.33,0.63,9.66,-0.01,-0.09,-0.00,79.38,-10.88,-19.00
2026-06-27 11:36:18.618,-0.39,0.55,9.70,-0.01,-0.09,0.00,78.69,-9.75,-20.19
2026-06-27 11:36:18.632,-0.21,0.64,9.76,-0.01,-0.08,0.01,78.69,-9.75,-20.19
2026-06-27 11:36:18.647,-0.22,0.61,9.61,-0.01,-0.08,0.01,78.69,-9.75,-20.19
2026-06-27 11:36:18.659,-0.29,0.76,9.71,-0.01,-0.08,0.01,78.69,-9.75,-20.19
2026-06-27 11:36:18.672,-0.23,0.80,9.75,-0.01,-0.07,0.01,79.75,-10.19,-21.75
2026-06-27 11:36:18.687,-0.29,0.80,9.68,-0.01,-0.07,0.01,79.75,-10.19,-21.75
2026-06-27 11:36:18.700,-0.19,0.89,9.65,-0.01,-0.07,0.01,79.75,-10.19,-21.75
2026-06-27 11:36:18.713,-0.23,0.87,9.68,-0.01,-0.07,0.01,79.75,-10.19,-21.75
2026-06-27 11:36:18.725,-0.27,0.93,9.74,-0.01,-0.06,0.01,77.88,-9.75,-21.00
2026-06-27 11:36:18.737,-0.03,0.87,9.58,-0.01,-0.06,-0.00,77.88,-9.75,-21.00
2026-06-27 11:36:18.750,-0.10,0.93,9.63,-0.01,-0.06,-0.00,77.88,-9.75,-21.00
2026-06-27 11:36:18.763,-0.20,1.01,9.70,-0.01,-0.06,-0.00,77.88,-9.75,-21.00
2026-06-27 11:36:18.775,-0.31,1.00,9.71,-0.01,-0.05,0.00,79.00,-10.56,-21.00
2026-06-27 11:36:18.787,-0.09,1.02,9.61,-0.01,-0.05,0.01,79.00,-10.56,-21.00
2026-06-27 11:36:18.802,-0.06,0.94,9.71,-0.01,-0.05,0.01,79.00,-10.56,-21.00
2026-06-27 11:36:18.815,-0.13,0.98,9.69,-0.01,-0.04,0.01,79.00,-10.56,-21.00
2026-06-27 11:36:18.828,-0.10,0.77,9.67,-0.00,-0.03,-0.01,77.88,-10.19,-22.56
2026-06-27 11:36:18.840,-0.06,0.69,9.69,-0.00,-0.04,-0.01,77.88,-10.19,-22.56
2026-06-27 11:36:18.856,-0.19,0.67,9.68,-0.00,-0.03,-0.01,77.88,-10.19,-22.56
2026-06-27 11:36:18.868,-0.28,0.69,9.68,-0.00,-0.03,0.01,78.69,-10.56,-23.00
2026-06-27 11:36:18.885,-0.34,0.77,9.69,-0.01,-0.03,0.02,78.69,-10.56,-23.00
2026-06-27 11:36:18.898,-0.13,0.75,9.71,-0.01,-0.03,0.02,78.69,-10.56,-23.00
2026-06-27 11:36:18.910,-0.20,0.73,9.69,-0.01,-0.03,0.02,78.69,-10.56,-23.00
2026-06-27 11:36:18.923,-0.34,0.76,9.68,-0.01,-0.04,0.01,77.88,-11.69,-23.00
2026-06-27 11:36:18.937,-0.28,0.78,9.72,-0.01,-0.02,-0.01,77.88,-11.69,-23.00
2026-06-27 11:36:18.950,-0.03,0.80,9.65,-0.00,-0.02,-0.02,77.88,-11.69,-23.00
2026-06-27 11:36:18.962,-0.12,0.89,9.67,-0.00,-0.02,-0.02,77.88,-11.69,-23.00
2026-06-27 11:36:18.974,-0.23,0.89,9.71,-0.00,-0.02,-0.02,78.25,-10.19,-22.56
2026-06-27 11:36:18.987,0.03,0.78,9.68,-0.00,-0.01,-0.01,78.25,-10.19,-22.56
2026-06-27 11:36:18.999,-0.04,0.76,9.66,-0.00,-0.01,0.01,78.25,-10.19,-22.56
2026-06-27 11:36:19.012,-0.05,0.75,9.66,0.00,-0.01,0.01,78.25,-10.19,-22.56
2026-06-27 11:36:19.027,-0.12,0.76,9.69,-0.00,0.01,0.01,77.19,-10.19,-23.38
2026-06-27 11:36:19.040,0.00,0.72,9.71,-0.00,0.01,0.01,77.19,-10.19,-23.38
2026-06-27 11:36:19.057,-0.06,0.77,9.68,0.00,0.02,0.00,77.19,-10.19,-23.38
2026-06-27 11:36:19.069,-0.07,0.82,9.68,0.00,0.02,-0.00,77.50,-10.56,-23.38
2026-06-27 11:36:19.087,-0.06,0.84,9.66,0.00,0.03,-0.00,77.50,-10.56,-23.38
2026-06-27 11:36:19.100,-0.24,1.02,9.68,0.00,0.03,0.00,77.50,-10.56,-23.38
2026-06-27 11:36:19.113,-0.32,1.05,9.71,0.00,0.03,0.01,77.50,-10.56,-23.38
2026-06-27 11:36:19.126,-0.22,1.05,9.71,0.00,0.04,0.01,77.19,-10.56,-23.00
2026-06-27 11:36:19.139,-0.20,0.99,9.66,0.00,0.03,0.02,77.19,-10.56,-23.00
2026-06-27 11:36:19.156,-0.32,0.95,9.66,0.00,0.03,0.01,77.19,-10.56,-23.00
2026-06-27 11:36:19.168,-0.28,0.85,9.69,0.00,0.03,-0.00,77.88,-11.25,-22.56
2026-06-27 11:36:19.181,-0.31,0.81,9.65,0.00,0.03,-0.00,77.88,-11.25,-22.56
2026-06-27 11:36:19.197,-0.37,0.77,9.65,0.00,0.02,-0.00,77.88,-11.25,-22.56
2026-06-27 11:36:19.209,-0.42,0.78,9.70,0.00,0.01,-0.00,77.88,-11.25,-22.56
2026-06-27 11:36:19.227,-0.35,0.77,9.70,0.00,0.01,0.00,77.88,-10.88,-21.38
2026-06-27 11:36:19.239,-0.36,0.78,9.67,-0.00,0.00,0.00,77.88,-10.88,-21.38
2026-06-27 11:36:19.256,-0.37,0.77,9.71,-0.00,-0.00,-0.00,77.88,-10.88,-21.38
2026-06-27 11:36:19.268,-0.33,0.71,9.69,-0.00,-0.01,-0.00,79.00,-10.88,-23.00
2026-06-27 11:36:19.281,-0.36,0.71,9.68,-0.00,-0.01,-0.00,79.00,-10.88,-23.00
2026-06-27 11:36:19.298,-0.35,0.71,9.68,-0.00,-0.02,-0.00,79.00,-10.88,-23.00
2026-06-27 11:36:19.311,-0.34,0.68,9.69,-0.00,-0.02,0.00,79.00,-10.88,-23.00
2026-06-27 11:36:19.327,-0.33,0.72,9.68,-0.00,-0.02,0.01,78.25,-11.25,-22.19
2026-06-27 11:36:19.339,-0.34,0.69,9.67,-0.00,-0.03,0.01,78.25,-11.25,-22.19
2026-06-27 11:36:19.355,-0.34,0.65,9.69,-0.00,-0.03,0.01,78.25,-11.25,-22.19
2026-06-27 11:36:19.368,-0.37,0.68,9.71,-0.00,-0.04,0.01,77.88,-11.69,-23.38
2026-06-27 11:36:19.380,-0.30,0.71,9.67,-0.00,-0.04,0.01,77.88,-11.69,-23.38
2026-06-27 11:36:19.397,-0.29,0.73,9.65,-0.01,-0.04,0.00,77.88,-11.69,-23.38
2026-06-27 11:36:19.410,-0.31,0.77,9.72,-0.01,-0.04,0.00,77.88,-11.69,-23.38
2026-06-27 11:36:19.422,-0.25,0.80,9.69,-0.01,-0.05,-0.00,78.25,-11.25,-21.38
2026-06-27 11:36:19.437,-0.23,0.78,9.70,-0.01,-0.05,-0.00,78.25,-11.25,-21.38
2026-06-27 11:36:19.450,-0.23,0.81,9.66,-0.01,-0.05,-0.00,78.25,-11.25,-21.38
2026-06-27 11:36:19.463,-0.24,0.79,9.69,-0.01,-0.05,0.00,78.25,-11.25,-21.38
2026-06-27 11:36:19.476,-0.18,0.79,9.73,-0.01,-0.05,0.00,77.88,-12.06,-23.38
2026-06-27 11:36:19.489,-0.11,0.79,9.68,-0.01,-0.05,0.01,77.88,-12.06,-23.38
2026-06-27 11:36:19.501,-0.11,0.81,9.68,-0.01,-0.05,0.00,77.88,-12.06,-23.38
2026-06-27 11:36:19.514,-0.14,0.83,9.68,-0.00,-0.05,0.00,77.88,-12.06,-23.38
2026-06-27 11:36:19.530,-0.11,0.85,9.70,-0.01,-0.05,0.00,77.50,-11.25,-23.00
2026-06-27 11:36:19.548,-0.11,0.86,9.63,-0.01,-0.04,0.00,77.50,-11.25,-23.00
2026-06-27 11:36:19.560,-0.09,0.86,9.70,-0.01,-0.04,0.00,77.50,-11.25,-23.00
2026-06-27 11:36:19.573,-0.10,0.88,9.71,-0.00,-0.04,0.01,77.50,-10.88,-23.38
2026-06-27 11:36:19.588,-0.10,0.86,9.68,-0.00,-0.04,0.00,77.50,-10.88,-23.38
2026-06-27 11:36:19.600,-0.08,0.84,9.68,-0.00,-0.03,0.00,77.50,-10.88,-23.38
2026-06-27 11:36:19.613,-0.09,0.85,9.68,-0.01,-0.03,0.00,77.50,-10.88,-23.38
2026-06-27 11:36:19.627,-0.10,0.87,9.68,-0.01,-0.03,0.01,77.50,-11.25,-23.00
2026-06-27 11:36:19.639,-0.07,0.88,9.67,-0.01,-0.03,0.00,77.50,-11.25,-23.00
2026-06-27 11:36:19.651,-0.07,0.87,9.67,-0.01,-0.03,0.01,77.50,-11.25,-23.00
2026-06-27 11:36:19.664,-0.08,0.87,9.70,-0.00,-0.03,0.00,77.50,-11.25,-23.00
2026-06-27 11:36:19.676,-0.07,0.89,9.68,-0.00,-0.03,0.00,76.75,-11.25,-23.75
2026-06-27 11:36:19.689,-0.06,0.89,9.67,-0.00,-0.03,0.00,76.75,-11.25,-23.75
2026-06-27 11:36:19.701,-0.07,0.82,9.67,-0.00,-0.02,0.00,76.75,-11.25,-23.75
2026-06-27 11:36:19.714,-0.05,0.81,9.71,-0.00,-0.02,0.00,76.75,-11.25,-23.75
2026-06-27 11:36:19.726,-0.07,0.79,9.68,-0.00,-0.02,0.00,77.50,-11.69,-23.75
2026-06-27 11:36:19.739,-0.06,0.70,9.67,-0.00,-0.02,0.00,77.50,-11.69,-23.75
2026-06-27 11:36:19.751,-0.04,0.67,9.67,-0.00,-0.01,0.00,77.50,-11.69,-23.75
2026-06-27 11:36:19.763,-0.06,0.66,9.70,-0.00,-0.01,0.00,77.50,-11.69,-23.75
2026-06-27 11:36:19.778,-0.10,0.64,9.72,-0.00,-0.01,0.00,76.38,-11.69,-24.19
2026-06-27 11:36:19.791,-0.13,0.63,9.67,0.00,-0.01,0.00,76.38,-11.69,-24.19
2026-06-27 11:36:19.809,-0.10,0.62,9.66,-0.00,-0.01,0.01,76.38,-11.69,-24.19
2026-06-27 11:36:19.821,-0.08,0.64,9.72,-0.00,-0.01,0.01,77.88,-11.69,-23.75
2026-06-27 11:36:19.838,-0.13,0.65,9.72,-0.00,-0.01,0.00,77.88,-11.69,-23.75
2026-06-27 11:36:19.850,-0.08,0.70,9.69,-0.00,-0.01,0.00,77.88,-11.69,-23.75
2026-06-27 11:36:19.863,-0.08,0.69,9.74,-0.00,-0.01,0.00,77.88,-11.69,-23.75
2026-06-27 11:36:19.879,-0.13,0.72,9.73,-0.00,-0.01,0.00,77.19,-11.69,-23.75
2026-06-27 11:36:19.891,-0.10,0.75,9.66,0.00,-0.01,0.00,77.19,-11.69,-23.75
2026-06-27 11:36:19.909,-0.08,0.72,9.67,-0.00,-0.01,0.01,77.19,-11.69,-23.75
2026-06-27 11:36:19.921,-0.06,0.75,9.72,-0.00,-0.01,0.00,76.38,-11.25,-23.75
2026-06-27 11:36:19.939,-0.05,0.77,9.68,0.00,-0.01,-0.00,76.38,-11.25,-23.75
2026-06-27 11:36:19.951,-0.04,0.80,9.70,-0.00,-0.01,-0.00,76.38,-11.25,-23.75
2026-06-27 11:36:19.963,-0.06,0.86,9.70,0.00,-0.00,-0.01,76.38,-11.25,-23.75
2026-06-27 11:36:19.981,-0.08,0.88,9.68,0.00,-0.00,0.00,76.75,-11.69,-23.38
2026-06-27 11:36:19.996,-0.03,0.88,9.68,0.00,-0.00,0.00,76.75,-11.69,-23.38
2026-06-27 11:36:20.009,-0.01,0.88,9.68,-0.00,0.00,0.00,76.75,-11.69,-23.38
2026-06-27 11:36:20.028,-0.04,0.91,9.67,-0.00,0.00,0.01,77.50,-10.88,-25.00
2026-06-27 11:36:20.040,-0.08,0.87,9.67,-0.00,0.01,-0.00,77.50,-10.88,-25.00
2026-06-27 11:36:20.056,-0.06,0.86,9.67,0.00,0.00,-0.00,77.50,-10.88,-25.00
2026-06-27 11:36:20.069,-0.08,0.83,9.68,0.00,0.01,-0.00,76.75,-12.06,-24.19
2026-06-27 11:36:20.082,-0.07,0.80,9.69,-0.00,0.01,0.00,76.75,-12.06,-24.19
2026-06-27 11:36:20.098,-0.04,0.78,9.68,-0.00,0.01,0.00,76.75,-12.06,-24.19
2026-06-27 11:36:20.111,-0.08,0.79,9.68,-0.00,0.00,0.00,76.75,-12.06,-24.19
2026-06-27 11:36:20.128,-0.11,0.78,9.66,0.00,0.01,0.00,76.50,-11.25,-24.19
2026-06-27 11:36:20.141,-0.10,0.74,9.67,-0.00,0.01,0.00,76.50,-11.25,-24.19
2026-06-27 11:36:20.156,-0.08,0.74,9.71,-0.00,0.00,0.01,76.50,-11.25,-24.19
2026-06-27 11:36:20.170,-0.11,0.72,9.70,0.00,0.01,0.00,76.38,-12.06,-23.38
2026-06-27 11:36:20.182,-0.13,0.72,9.70,0.00,0.01,0.00,76.38,-12.06,-23.38
2026-06-27 11:36:20.198,-0.10,0.73,9.68,0.00,0.00,-0.00,76.38,-12.06,-23.38
2026-06-27 11:36:20.213,-0.16,0.76,9.69,-0.00,0.00,0.00,76.38,-12.06,-23.38
2026-06-27 11:36:20.229,-0.15,0.76,9.69,0.00,0.00,0.00,76.06,-11.69,-23.38
2026-06-27 11:36:20.241,-0.13,0.78,9.68,-0.00,0.00,0.01,76.06,-11.69,-23.38
2026-06-27 11:36:20.259,-0.10,0.78,9.68,0.00,0.00,0.01,76.06,-11.69,-23.38
2026-06-27 11:36:20.272,-0.15,0.81,9.68,-0.00,-0.00,0.00,76.06,-11.69,-23.38
2026-06-27 11:36:20.289,-0.15,0.80,9.70,0.00,0.00,0.00,76.06,-11.69,-23.38
2026-06-27 11:36:20.302,-0.15,0.82,9.65,-0.00,-0.00,-0.00,76.06,-11.69,-23.38
2026-06-27 11:36:20.314,-0.17,0.81,9.66,-0.00,-0.01,0.00,76.06,-11.69,-23.38
2026-06-27 11:36:20.329,-0.16,0.83,9.67,0.00,-0.01,0.00,77.50,-12.38,-23.75
2026-06-27 11:36:20.342,-0.10,0.83,9.64,0.00,-0.01,0.00,77.50,-12.38,-23.75
2026-06-27 11:36:20.359,-0.09,0.84,9.68,-0.00,-0.01,0.00,77.50,-12.38,-23.75
2026-06-27 11:36:20.372,-0.09,0.83,9.69,-0.00,-0.02,0.00,76.06,-10.88,-25.00
2026-06-27 11:36:20.389,-0.12,0.82,9.69,-0.00,-0.01,-0.00,76.06,-10.88,-25.00
2026-06-27 11:36:20.402,-0.11,0.80,9.67,-0.00,-0.02,-0.00,76.06,-10.88,-25.00
2026-06-27 11:36:20.415,-0.08,0.79,9.71,-0.00,-0.01,0.00,76.06,-10.88,-25.00
2026-06-27 11:36:20.429,-0.07,0.79,9.72,-0.00,-0.02,0.00,77.50,-11.69,-23.38
2026-06-27 11:36:20.443,-0.06,0.80,9.67,-0.00,-0.02,0.00,77.50,-11.69,-23.38
2026-06-27 11:36:20.459,-0.05,0.78,9.68,0.00,-0.02,0.00,77.50,-11.69,-23.38
2026-06-27 11:36:20.472,-0.06,0.77,9.69,-0.00,-0.01,0.00,77.50,-12.06,-24.56
2026-06-27 11:36:20.489,-0.06,0.76,9.69,-0.00,-0.01,0.00,77.50,-12.06,-24.56
2026-06-27 11:36:20.502,-0.07,0.78,9.69,-0.00,-0.01,0.00,77.50,-12.06,-24.56
2026-06-27 11:36:20.515,-0.05,0.77,9.68,-0.00,-0.01,0.00,77.50,-12.06,-24.56
2026-06-27 11:36:20.530,-0.06,0.74,9.69,-0.00,-0.01,0.00,76.38,-12.06,-23.75
2026-06-27 11:36:20.543,-0.07,0.76,9.68,-0.00,-0.01,0.00,76.38,-12.06,-23.75
2026-06-27 11:36:20.560,-0.06,0.77,9.68,-0.00,-0.01,0.00,76.38,-12.06,-23.75
2026-06-27 11:36:20.572,-0.06,0.77,9.68,0.00,-0.00,0.00,76.75,-10.88,-23.75
2026-06-27 11:36:20.590,-0.06,0.77,9.70,-0.00,-0.00,0.00,76.75,-10.88,-23.75
2026-06-27 11:36:20.602,-0.06,0.79,9.69,0.00,-0.01,0.00,76.75,-10.88,-23.75
2026-06-27 11:36:20.615,-0.03,0.80,9.68,-0.00,-0.01,0.00,76.75,-10.88,-23.75
2026-06-27 11:36:20.630,-0.02,0.80,9.68,-0.00,-0.00,0.00,77.50,-11.25,-23.38
2026-06-27 11:36:20.643,-0.04,0.82,9.66,-0.00,-0.01,0.00,77.50,-11.25,-23.38
2026-06-27 11:36:20.660,-0.07,0.81,9.66,-0.00,-0.00,0.00,77.50,-11.25,-23.38
2026-06-27 11:36:20.673,-0.06,0.81,9.69,-0.00,-0.00,0.00,76.38,-11.69,-24.19
2026-06-27 11:36:20.690,-0.06,0.81,9.68,-0.00,0.00,0.00,76.38,-11.69,-24.19
2026-06-27 11:36:20.702,-0.05,0.78,9.69,-0.00,0.00,0.00,76.38,-11.69,-24.19
2026-06-27 11:36:20.716,-0.09,0.80,9.70,-0.00,0.00,0.00,76.38,-11.69,-24.19
2026-06-27 11:36:20.730,-0.07,0.77,9.68,-0.00,0.00,0.00,76.75,-12.38,-24.56
2026-06-27 11:36:20.743,-0.09,0.78,9.68,-0.00,0.00,-0.00,76.75,-12.38,-24.56
2026-06-27 11:36:20.760,-0.07,0.75,9.68,0.00,-0.00,0.00,76.75,-12.38,-24.56
2026-06-27 11:36:20.777,-0.07,0.76,9.68,0.00,-0.00,0.00,76.75,-11.69,-24.56
2026-06-27 11:36:20.791,-0.09,0.78,9.70,0.00,0.00,0.00,76.75,-11.69,-24.56
2026-06-27 11:36:20.803,-0.06,0.77,9.70,0.00,-0.00,-0.00,76.75,-11.69,-24.56
2026-06-27 11:36:20.816,-0.06,0.76,9.69,-0.00,-0.00,0.00,76.75,-11.69,-24.56
2026-06-27 11:36:20.831,-0.07,0.77,9.68,0.00,-0.00,0.00,76.75,-11.69,-25.38
2026-06-27 11:36:20.843,-0.07,0.77,9.67,-0.00,-0.00,0.00,76.75,-11.69,-25.38
2026-06-27 11:36:20.860,-0.07,0.74,9.68,-0.00,-0.00,0.00,76.75,-11.69,-25.38
2026-06-27 11:36:20.876,-0.07,0.74,9.72,-0.00,0.00,0.00,76.06,-12.06,-24.19
2026-06-27 11:36:20.890,-0.09,0.76,9.68,0.00,-0.01,0.00,76.06,-12.06,-24.19
2026-06-27 11:36:20.905,-0.08,0.74,9.67,0.00,-0.00,0.00,76.06,-12.06,-24.19
2026-06-27 11:36:20.920,-0.09,0.76,9.69,-0.00,-0.00,0.00,76.06,-12.06,-24.19
2026-06-27 11:36:20.933,-0.06,0.78,9.69,-0.00,-0.00,0.00,76.75,-11.25,-23.75
2026-06-27 11:36:20.950,-0.10,0.77,9.69,-0.00,0.00,0.00,76.75,-11.25,-23.75
2026-06-27 11:36:20.963,-0.06,0.78,9.69,-0.00,-0.00,0.00,76.75,-11.25,-23.75
2026-06-27 11:36:20.981,-0.06,0.80,9.70,0.00,-0.00,0.00,77.19,-12.06,-24.56
2026-06-27 11:36:20.993,-0.07,0.78,9.66,-0.00,-0.00,0.00,77.19,-12.06,-24.56
2026-06-27 11:36:21.011,-0.08,0.82,9.66,0.00,-0.00,-0.00,77.19,-12.06,-24.56
2026-06-27 11:36:21.023,-0.05,0.82,9.68,-0.00,0.00,0.00,76.75,-11.69,-25.00
2026-06-27 11:36:21.040,-0.03,0.84,9.69,-0.00,0.00,-0.00,76.75,-11.69,-25.00
2026-06-27 11:36:21.053,-0.03,0.81,9.68,0.00,-0.00,0.00,76.75,-11.69,-25.00
2026-06-27 11:36:21.065,-0.06,0.83,9.68,0.00,-0.00,0.00,76.75,-11.69,-25.00
2026-06-27 11:36:21.081,-0.05,0.82,9.68,0.00,0.00,0.00,77.50,-12.06,-24.56
2026-06-27 11:36:21.093,-0.07,0.80,9.68,-0.00,0.00,0.00,77.50,-12.06,-24.56
2026-06-27 11:36:21.111,-0.06,0.78,9.69,-0.00,0.00,0.00,77.50,-12.06,-24.56
2026-06-27 11:36:21.123,-0.06,0.80,9.68,-0.00,0.00,0.00,76.38,-11.25,-23.75
2026-06-27 11:36:21.140,-0.07,0.79,9.68,-0.00,-0.00,0.00,76.38,-11.25,-23.75
2026-06-27 11:36:21.152,-0.09,0.79,9.67,-0.00,0.00,0.00,76.38,-11.25,-23.75
2026-06-27 11:36:21.165,-0.06,0.79,9.69,-0.00,0.00,0.00,76.38,-11.25,-23.75
2026-06-27 11:36:21.181,-0.05,0.78,9.68,-0.00,0.00,0.00,76.75,-11.25,-23.75
2026-06-27 11:36:21.193,-0.06,0.80,9.66,0.00,0.00,0.00,76.75,-11.25,-23.75
2026-06-27 11:36:21.210,-0.04,0.80,9.68,-0.00,0.00,0.00,76.75,-11.25,-23.75
2026-06-27 11:36:21.223,-0.05,0.81,9.69,0.00,0.00,0.00,75.69,-11.69,-24.19
2026-06-27 11:36:21.241,-0.10,0.76,9.69,0.00,0.01,-0.00,75.69,-11.69,-24.19
2026-06-27 11:36:21.253,-0.07,0.78,9.69,0.00,0.00,0.00,75.69,-11.69,-24.19
2026-06-27 11:36:21.265,-0.09,0.75,9.68,0.00,0.00,0.00,75.69,-11.69,-24.19
2026-06-27 11:36:21.281,-0.08,0.77,9.68,0.00,0.01,0.00,76.75,-11.69,-23.38
2026-06-27 11:36:21.294,-0.07,0.77,9.66,-0.00,0.00,-0.00,76.75,-11.69,-23.38
2026-06-27 11:36:21.313,-0.06,0.76,9.69,0.00,0.00,-0.00,76.75,-11.69,-23.38
2026-06-27 11:36:21.327,-0.07,0.78,9.71,0.00,0.00,-0.00,77.19,-10.56,-24.19
2026-06-27 11:36:21.342,-0.06,0.77,9.70,0.00,0.01,0.00,77.19,-10.56,-24.19
2026-06-27 11:36:21.354,-0.09,0.82,9.69,0.00,0.01,-0.00,77.19,-10.56,-24.19
2026-06-27 11:36:21.366,-0.07,0.80,9.68,0.00,0.01,0.00,77.19,-10.56,-24.19
2026-06-27 11:36:21.382,-0.08,0.80,9.69,0.00,0.01,0.00,77.19,-11.69,-25.00
2026-06-27 11:36:21.395,-0.07,0.78,9.67,0.00,0.01,0.00,77.19,-11.69,-25.00
2026-06-27 11:36:21.412,-0.08,0.77,9.69,0.00,0.01,-0.00,77.19,-11.69,-25.00
2026-06-27 11:36:21.424,-0.10,0.76,9.68,0.00,0.00,-0.00,76.06,-11.69,-23.38
2026-06-27 11:36:21.441,-0.08,0.77,9.69,0.00,0.01,-0.00,76.06,-11.69,-23.38
2026-06-27 11:36:21.453,-0.09,0.77,9.68,0.00,0.00,0.00,76.06,-11.69,-23.38
2026-06-27 11:36:21.466,-0.09,0.76,9.70,0.00,0.00,-0.00,76.06,-11.69,-23.38
2026-06-27 11:36:21.482,-0.08,0.78,9.67,0.00,0.01,-0.00,77.19,-11.69,-23.75
2026-06-27 11:36:21.495,-0.08,0.78,9.68,0.00,0.01,0.00,77.19,-11.69,-23.75
2026-06-27 11:36:21.512,-0.08,0.79,9.70,0.00,0.01,0.00,77.19,-11.69,-23.75
2026-06-27 11:36:21.524,-0.09,0.80,9.70,0.00,0.01,0.00,76.75,-11.25,-24.56
2026-06-27 11:36:21.541,-0.09,0.80,9.68,0.00,0.01,-0.00,76.75,-11.25,-24.56
2026-06-27 11:36:21.553,-0.10,0.80,9.67,0.00,0.01,0.00,76.75,-11.25,-24.56
2026-06-27 11:36:21.566,-0.09,0.82,9.69,0.00,0.01,-0.00,76.75,-11.25,-24.56
2026-06-27 11:36:21.582,-0.11,0.81,9.70,0.00,0.01,0.00,77.19,-11.25,-23.75
2026-06-27 11:36:21.594,-0.09,0.79,9.68,0.00,0.01,-0.00,77.19,-11.25,-23.75
2026-06-27 11:36:21.612,-0.10,0.81,9.67,0.00,0.01,0.00,77.19,-11.25,-23.75
2026-06-27 11:36:21.625,-0.11,0.79,9.69,0.00,0.01,-0.00,77.50,-11.25,-23.38
2026-06-27 11:36:21.642,-0.11,0.77,9.68,0.00,0.00,-0.00,77.50,-11.25,-23.38
2026-06-27 11:36:21.655,-0.12,0.78,9.68,0.00,0.01,-0.00,77.50,-11.25,-23.38
2026-06-27 11:36:21.667,-0.11,0.78,9.68,0.00,0.00,-0.00,77.50,-11.25,-23.38
2026-06-27 11:36:21.682,-0.10,0.79,9.69,0.00,0.01,-0.00,77.50,-11.69,-24.19
2026-06-27 11:36:21.695,-0.13,0.79,9.68,0.00,0.01,0.00,77.50,-11.69,-24.19
2026-06-27 11:36:21.712,-0.10,0.77,9.68,0.00,0.01,0.00,77.50,-11.69,-24.19
2026-06-27 11:36:21.725,-0.13,0.79,9.71,0.00,0.01,-0.00,77.19,-11.25,-23.38
2026-06-27 11:36:21.742,-0.11,0.79,9.70,-0.00,0.00,0.00,77.19,-11.25,-23.38
2026-06-27 11:36:21.755,-0.13,0.79,9.67,-0.00,0.01,0.00,77.19,-11.25,-23.38
2026-06-27 11:36:21.767,-0.16,0.78,9.70,-0.00,0.01,0.00,77.19,-11.25,-23.38
2026-06-27 11:36:21.782,-0.17,0.77,9.69,0.00,0.01,0.01,77.50,-12.38,-24.19
2026-06-27 11:36:21.795,-0.13,0.77,9.69,-0.00,0.00,0.00,77.50,-12.38,-24.19
2026-06-27 11:36:21.813,-0.15,0.76,9.72,-0.00,0.00,0.00,77.50,-12.38,-24.19
2026-06-27 11:36:21.826,-0.13,0.78,9.68,-0.00,0.01,0.00,77.19,-11.25,-22.50
2026-06-27 11:36:21.843,-0.15,0.81,9.68,-0.00,-0.00,0.00,77.19,-11.25,-22.50
2026-06-27 11:36:21.855,-0.16,0.79,9.70,-0.00,0.00,0.00,77.19,-11.25,-22.50
2026-06-27 11:36:21.867,-0.16,0.81,9.69,-0.00,0.00,0.00,77.19,-11.25,-22.50
2026-06-27 11:36:21.883,-0.15,0.80,9.68,-0.00,0.00,0.00,76.75,-12.38,-23.38
2026-06-27 11:36:21.895,-0.17,0.79,9.66,-0.00,0.00,0.00,76.75,-12.38,-23.38
2026-06-27 11:36:21.913,-0.17,0.78,9.68,-0.00,-0.00,0.00,76.75,-12.38,-23.38
2026-06-27 11:36:21.925,-0.13,0.80,9.69,0.00,-0.00,0.00,76.75,-12.06,-23.75
2026-06-27 11:36:21.942,-0.17,0.79,9.68,0.00,-0.00,-0.00,76.75,-12.06,-23.75
2026-06-27 11:36:21.955,-0.17,0.81,9.70,-0.00,0.00,0.00,76.75,-12.06,-23.75
2026-06-27 11:36:21.967,-0.16,0.80,9.72,-0.00,-0.00,0.00,76.75,-12.06,-23.75
2026-06-27 11:36:21.983,-0.16,0.81,9.69,-0.00,-0.01,0.00,76.06,-12.06,-24.19
2026-06-27 11:36:21.995,-0.12,0.82,9.67,0.00,-0.00,0.00,76.06,-12.06,-24.19
2026-06-27 11:36:22.013,-0.14,0.82,9.71,0.00,-0.00,0.00,76.06,-12.06,-24.19
2026-06-27 11:36:22.025,-0.18,0.78,9.69,-0.00,-0.01,0.00,77.50,-11.69,-24.19
2026-06-27 11:36:22.042,-0.19,0.78,9.69,-0.00,-0.01,-0.00,77.50,-11.69,-24.19
2026-06-27 11:36:22.055,-0.16,0.78,9.68,0.00,-0.01,0.00,77.50,-11.69,-24.19
2026-06-27 11:36:22.067,-0.18,0.78,9.67,-0.00,-0.01,0.00,77.50,-11.69,-24.19
2026-06-27 11:36:22.083,-0.17,0.77,9.69,-0.00,-0.01,0.00,77.50,-12.06,-24.19
2026-06-27 11:36:22.096,-0.14,0.77,9.66,-0.00,-0.01,0.00,77.50,-12.06,-24.19
2026-06-27 11:36:22.113,-0.16,0.77,9.67,-0.00,-0.01,0.00,77.50,-12.06,-24.19
2026-06-27 11:36:22.126,-0.15,0.77,9.68,-0.00,-0.01,-0.00,77.19,-11.25,-23.75
2026-06-27 11:36:22.143,-0.17,0.77,9.68,-0.00,-0.01,-0.00,77.19,-11.25,-23.75
2026-06-27 11:36:22.156,-0.16,0.79,9.70,-0.00,-0.01,0.00,77.19,-11.25,-23.75
2026-06-27 11:36:22.169,-0.13,0.76,9.70,-0.00,-0.01,0.00,77.19,-11.25,-23.75
2026-06-27 11:36:22.183,-0.11,0.81,9.70,-0.00,-0.01,0.00,76.75,-10.88,-24.19
2026-06-27 11:36:22.196,-0.12,0.77,9.65,-0.00,-0.01,0.00,76.75,-10.88,-24.19
2026-06-27 11:36:22.213,-0.12,0.82,9.68,0.00,-0.01,0.00,76.75,-10.88,-24.19
2026-06-27 11:36:22.225,-0.13,0.79,9.71,-0.00,-0.01,0.00,76.75,-10.56,-23.00
2026-06-27 11:36:22.243,-0.12,0.80,9.70,0.00,-0.01,0.00,76.75,-10.56,-23.00
2026-06-27 11:36:22.256,-0.13,0.79,9.66,0.00,-0.01,0.00,76.75,-10.56,-23.00
2026-06-27 11:36:22.268,-0.12,0.79,9.68,0.00,-0.00,0.00,76.75,-10.56,-23.00
2026-06-27 11:36:22.283,-0.12,0.77,9.68,0.00,-0.00,0.00,76.38,-12.06,-23.38
2026-06-27 11:36:22.297,-0.12,0.78,9.65,-0.00,-0.00,0.00,76.38,-12.06,-23.38
2026-06-27 11:36:22.313,-0.12,0.78,9.67,-0.00,-0.00,0.00,76.38,-12.06,-23.38
2026-06-27 11:36:22.326,-0.13,0.76,9.69,0.00,-0.00,-0.00,76.38,-11.69,-24.56
2026-06-27 11:36:22.343,-0.13,0.79,9.71,0.00,0.00,0.00,76.38,-11.69,-24.56
2026-06-27 11:36:22.356,-0.11,0.82,9.70,0.00,0.00,0.00,76.38,-11.69,-24.56
2026-06-27 11:36:22.368,-0.11,0.82,9.69,0.00,-0.00,0.00,76.38,-11.69,-24.56
2026-06-27 11:36:22.383,-0.11,0.83,9.68,0.00,0.00,-0.00,77.19,-11.25,-23.00
2026-06-27 11:36:22.396,-0.13,0.80,9.66,-0.00,0.00,0.00,77.19,-11.25,-23.00
2026-06-27 11:36:22.414,-0.16,0.79,9.68,0.00,0.01,0.00,77.19,-11.25,-23.00
2026-06-27 11:36:22.428,-0.15,0.77,9.68,0.00,0.01,0.00,76.75,-10.56,-23.38
2026-06-27 11:36:22.444,-0.15,0.77,9.68,0.00,0.01,-0.00,76.75,-10.56,-23.38
2026-06-27 11:36:22.456,-0.13,0.77,9.67,0.00,0.00,-0.00,76.75,-10.56,-23.38
2026-06-27 11:36:22.470,-0.14,0.77,9.69,0.00,0.01,-0.00,76.75,-10.56,-23.38
2026-06-27 11:36:22.484,-0.16,0.79,9.69,0.00,0.01,-0.00,76.75,-11.25,-23.75
2026-06-27 11:36:22.496,-0.16,0.79,9.67,0.00,0.01,-0.00,76.75,-11.25,-23.75
2026-06-27 11:36:22.513,-0.16,0.80,9.68,0.00,0.00,0.00,76.75,-11.25,-23.75
2026-06-27 11:36:22.527,-0.16,0.81,9.72,0.00,0.01,-0.00,76.75,-10.88,-23.75
2026-06-27 11:36:22.543,-0.14,0.81,9.70,0.00,0.01,0.00,76.75,-10.88,-23.75
2026-06-27 11:36:22.556,-0.15,0.83,9.68,0.00,0.01,0.00,76.75,-10.88,-23.75
2026-06-27 11:36:22.569,-0.18,0.80,9.68,0.00,0.01,0.00,76.75,-10.88,-23.75
2026-06-27 11:36:22.584,-0.17,0.81,9.68,0.00,0.00,0.00,77.19,-12.06,-24.19
2026-06-27 11:36:22.597,-0.17,0.78,9.67,0.00,0.00,-0.00,77.19,-12.06,-24.19
2026-06-27 11:36:22.614,-0.17,0.78,9.67,0.00,0.01,-0.00,77.19,-12.06,-24.19
2026-06-27 11:36:22.627,-0.17,0.79,9.70,0.00,0.01,-0.00,77.19,-11.25,-23.00
2026-06-27 11:36:22.644,-0.17,0.77,9.69,0.00,0.00,-0.00,77.19,-11.25,-23.00
2026-06-27 11:36:22.656,-0.18,0.77,9.69,0.00,0.01,0.00,77.19,-11.25,-23.00
2026-06-27 11:36:22.669,-0.18,0.78,9.73,0.00,0.01,-0.00,77.19,-11.25,-23.00
2026-06-27 11:36:22.685,-0.18,0.75,9.68,0.00,0.00,0.00,77.88,-11.25,-22.19
2026-06-27 11:36:22.697,-0.18,0.77,9.68,0.00,0.01,0.00,77.88,-11.25,-22.19
2026-06-27 11:36:22.714,-0.18,0.79,9.71,0.00,0.00,0.00,77.88,-11.25,-22.19
2026-06-27 11:36:22.726,-0.19,0.78,9.70,0.00,0.01,-0.00,77.19,-12.06,-23.00
2026-06-27 11:36:22.744,-0.18,0.79,9.68,0.00,0.00,-0.00,77.19,-12.06,-23.00
2026-06-27 11:36:22.756,-0.20,0.78,9.68,0.00,-0.00,-0.00,77.19,-12.06,-23.00
2026-06-27 11:36:22.769,-0.18,0.78,9.69,0.00,-0.00,0.00,77.19,-12.06,-23.00
2026-06-27 11:36:22.785,-0.19,0.80,9.69,-0.00,-0.00,0.00,77.50,-12.06,-23.75
2026-06-27 11:36:22.798,-0.20,0.80,9.66,-0.00,0.00,-0.00,77.50,-12.06,-23.75
2026-06-27 11:36:22.814,-0.19,0.80,9.69,0.00,0.00,-0.00,77.50,-12.06,-23.75
2026-06-27 11:36:22.827,-0.17,0.81,9.68,0.00,0.00,-0.00,78.00,-11.69,-23.00
2026-06-27 11:36:22.844,-0.20,0.81,9.66,0.00,0.00,-0.00,78.00,-11.69,-23.00
2026-06-27 11:36:22.857,-0.17,0.79,9.71,-0.00,0.00,0.00,78.00,-11.69,-23.00
2026-06-27 11:36:22.870,-0.20,0.81,9.67,0.00,-0.00,0.00,78.00,-11.69,-23.00
2026-06-27 11:36:22.885,-0.20,0.79,9.69,0.00,-0.01,0.00,77.50,-11.69,-23.00
2026-06-27 11:36:22.898,-0.17,0.79,9.67,0.00,-0.00,-0.00,77.50,-11.69,-23.00
2026-06-27 11:36:22.915,-0.18,0.78,9.68,-0.00,-0.01,-0.00,77.50,-11.69,-23.00
2026-06-27 11:36:22.927,-0.19,0.82,9.68,0.00,-0.00,-0.00,78.25,-10.88,-22.56
2026-06-27 11:36:22.944,-0.20,0.79,9.69,0.00,-0.00,-0.00,78.25,-10.88,-22.56
2026-06-27 11:36:22.957,-0.19,0.81,9.70,-0.00,-0.00,0.00,78.25,-10.88,-22.56
2026-06-27 11:36:22.970,-0.17,0.80,9.71,0.00,-0.00,0.00,78.25,-10.88,-22.56
2026-06-27 11:36:22.985,-0.17,0.80,9.72,0.00,-0.00,-0.00,77.50,-11.69,-23.00
2026-06-27 11:36:22.998,-0.18,0.81,9.70,0.00,-0.01,0.00,77.50,-11.69,-23.00
2026-06-27 11:36:23.015,-0.15,0.83,9.68,0.00,-0.00,-0.00,77.50,-11.69,-23.00
2026-06-27 11:36:23.028,-0.19,0.84,9.67,0.00,0.00,0.00,78.25,-11.25,-23.75
2026-06-27 11:36:23.045,-0.22,0.85,9.67,-0.00,0.00,0.00,78.25,-11.25,-23.75
2026-06-27 11:36:23.061,-0.21,0.84,9.67,0.00,-0.00,0.00,78.25,-11.25,-23.75
2026-06-27 11:36:23.075,-0.22,0.82,9.69,-0.00,-0.01,0.00,78.25,-10.88,-23.75
2026-06-27 11:36:23.088,-0.20,0.80,9.72,-0.00,-0.01,0.00,78.25,-10.88,-23.75
2026-06-27 11:36:23.105,-0.22,0.80,9.67,-0.00,-0.01,0.00,78.25,-10.88,-23.75
2026-06-27 11:36:23.117,-0.21,0.83,9.68,-0.00,-0.00,-0.00,78.25,-10.88,-23.75
2026-06-27 11:36:23.135,-0.22,0.81,9.68,0.00,-0.01,-0.00,77.88,-10.88,-23.00
2026-06-27 11:36:23.148,-0.21,0.82,9.67,-0.00,-0.01,-0.00,77.88,-10.88,-23.00
2026-06-27 11:36:23.165,-0.20,0.80,9.68,-0.00,-0.01,-0.00,77.88,-10.88,-23.00
2026-06-27 11:36:23.178,-0.19,0.76,9.70,-0.00,-0.01,-0.00,77.88,-10.88,-23.00
2026-06-27 11:36:23.195,-0.19,0.77,9.70,-0.00,-0.01,-0.00,77.88,-10.88,-23.00
2026-06-27 11:36:23.207,-0.17,0.78,9.68,-0.00,-0.01,0.00,77.88,-10.88,-23.00
2026-06-27 11:36:23.219,-0.19,0.77,9.71,-0.00,-0.01,-0.00,77.88,-10.88,-23.00
2026-06-27 11:36:23.236,-0.19,0.77,9.69,0.00,-0.01,0.00,77.88,-11.69,-23.00
2026-06-27 11:36:23.249,-0.19,0.77,9.66,-0.00,-0.01,0.00,77.88,-11.69,-23.00
2026-06-27 11:36:23.265,-0.21,0.80,9.69,-0.00,-0.00,0.00,77.88,-11.69,-23.00
2026-06-27 11:36:23.278,-0.20,0.78,9.70,0.00,-0.01,0.00,78.69,-10.88,-23.75
2026-06-27 11:36:23.295,-0.20,0.77,9.66,0.00,-0.01,0.00,78.69,-10.88,-23.75
2026-06-27 11:36:23.307,-0.21,0.76,9.66,0.00,-0.01,0.00,78.69,-10.88,-23.75
2026-06-27 11:36:23.320,-0.21,0.77,9.69,0.00,-0.01,-0.00,78.69,-10.88,-23.75
2026-06-27 11:36:23.336,-0.22,0.77,9.70,0.00,-0.01,0.00,77.88,-11.69,-23.38
2026-06-27 11:36:23.348,-0.18,0.79,9.68,-0.00,-0.01,-0.00,77.88,-11.69,-23.38
2026-06-27 11:36:23.366,-0.17,0.80,9.68,0.00,-0.01,-0.00,77.88,-11.69,-23.38
2026-06-27 11:36:23.378,-0.17,0.81,9.68,0.00,-0.01,-0.00,77.19,-10.88,-24.19
2026-06-27 11:36:23.396,-0.16,0.80,9.68,0.00,-0.01,-0.00,77.19,-10.88,-24.19
2026-06-27 11:36:23.408,-0.14,0.82,9.70,-0.00,-0.01,0.00,77.19,-10.88,-24.19
2026-06-27 11:36:23.421,-0.15,0.82,9.69,0.00,-0.01,0.00,77.19,-10.88,-24.19
2026-06-27 11:36:23.436,-0.17,0.83,9.68,0.00,-0.00,0.00,77.50,-11.25,-22.56
2026-06-27 11:36:23.449,-0.21,0.83,9.66,0.00,-0.01,0.00,77.50,-11.25,-22.56
2026-06-27 11:36:23.466,-0.20,0.82,9.68,0.00,-0.00,0.01,77.50,-11.25,-22.56
2026-06-27 11:36:23.479,-0.23,0.80,9.69,0.00,-0.01,0.01,77.19,-11.25,-23.00
2026-06-27 11:36:23.496,-0.23,0.80,9.67,0.00,-0.01,0.00,77.19,-11.25,-23.00
2026-06-27 11:36:23.508,-0.24,0.80,9.68,-0.00,-0.01,0.00,77.19,-11.25,-23.00
2026-06-27 11:36:23.521,-0.24,0.80,9.66,-0.00,-0.01,0.00,77.19,-11.25,-23.00
2026-06-27 11:36:23.536,-0.23,0.82,9.69,-0.00,-0.01,-0.00,77.50,-10.88,-23.38
2026-06-27 11:36:23.549,-0.20,0.78,9.67,0.00,-0.02,-0.01,77.50,-10.88,-23.38
2026-06-27 11:36:23.567,-0.20,0.79,9.68,-0.00,-0.02,-0.00,77.50,-10.88,-23.38
2026-06-27 11:36:23.580,-0.18,0.78,9.68,0.00,-0.02,-0.00,77.50,-11.25,-23.38
2026-06-27 11:36:23.596,-0.17,0.78,9.68,-0.00,-0.01,-0.00,77.50,-11.25,-23.38
2026-06-27 11:36:23.608,-0.17,0.80,9.70,-0.00,-0.02,0.00,77.50,-11.25,-23.38
2026-06-27 11:36:23.621,-0.17,0.78,9.69,-0.00,-0.01,0.01,77.50,-11.25,-23.38
2026-06-27 11:36:23.636,-0.15,0.78,9.68,-0.00,-0.01,0.01,77.19,-11.69,-24.19
2026-06-27 11:36:23.649,-0.11,0.76,9.67,0.00,-0.02,0.00,77.19,-11.69,-24.19
2026-06-27 11:36:23.666,-0.13,0.77,9.68,-0.00,-0.01,0.00,77.19,-11.69,-24.19
2026-06-27 11:36:23.679,-0.16,0.79,9.71,0.00,-0.01,0.00,77.88,-12.06,-23.00
2026-06-27 11:36:23.696,-0.17,0.82,9.69,0.00,-0.01,-0.00,77.88,-12.06,-23.00
2026-06-27 11:36:23.709,-0.18,0.77,9.71,0.00,-0.01,-0.00,77.88,-12.06,-23.00
2026-06-27 11:36:23.721,-0.18,0.80,9.71,0.00,-0.01,0.00,77.88,-12.06,-23.00
2026-06-27 11:36:23.736,-0.17,0.77,9.68,0.00,-0.01,0.00,77.50,-12.06,-23.38
2026-06-27 11:36:23.749,-0.14,0.77,9.65,0.00,-0.01,0.00,77.50,-12.06,-23.38
2026-06-27 11:36:23.766,-0.14,0.77,9.68,0.00,-0.01,0.00,77.50,-12.06,-23.38
2026-06-27 11:36:23.779,-0.14,0.80,9.68,0.00,-0.01,-0.00,78.25,-11.69,-23.38
2026-06-27 11:36:23.796,-0.15,0.82,9.68,0.00,-0.01,-0.00,78.25,-11.69,-23.38
2026-06-27 11:36:23.808,-0.14,0.82,9.68,0.00,-0.00,-0.00,78.25,-11.69,-23.38
2026-06-27 11:36:23.821,-0.10,0.81,9.69,0.00,-0.00,-0.00,78.25,-11.69,-23.38
2026-06-27 11:36:23.836,-0.11,0.80,9.68,0.00,-0.00,0.00,76.75,-11.69,-23.00
2026-06-27 11:36:23.851,-0.11,0.80,9.67,0.00,0.00,0.00,76.75,-11.69,-23.00
2026-06-27 11:36:23.867,-0.12,0.80,9.67,0.00,0.00,0.00,76.75,-11.69,-23.00
2026-06-27 11:36:23.879,-0.11,0.75,9.67,0.00,0.00,0.00,77.50,-11.25,-23.00
2026-06-27 11:36:23.897,-0.15,0.75,9.67,0.00,0.00,0.00,77.50,-11.25,-23.00
2026-06-27 11:36:23.909,-0.12,0.78,9.68,0.00,0.00,0.00,77.50,-11.25,-23.00
2026-06-27 11:36:23.922,-0.13,0.79,9.68,-0.00,0.01,-0.00,77.50,-11.25,-23.00
2026-06-27 11:36:23.937,-0.11,0.78,9.68,0.00,0.00,-0.00,76.75,-11.25,-23.00
2026-06-27 11:36:23.950,-0.12,0.79,9.68,0.00,0.00,-0.00,76.75,-11.25,-23.00
2026-06-27 11:36:23.967,-0.13,0.79,9.69,0.00,0.01,-0.00,76.75,-11.25,-23.00
2026-06-27 11:36:23.979,-0.14,0.80,9.69,0.00,0.01,0.00,76.38,-12.06,-23.38
2026-06-27 11:36:23.996,-0.13,0.80,9.69,0.00,0.01,0.00,76.38,-12.06,-23.38
2026-06-27 11:36:24.009,-0.14,0.81,9.70,0.00,0.01,0.00,76.38,-12.06,-23.38
2026-06-27 11:36:24.021,-0.13,0.81,9.68,0.00,0.01,0.00,76.38,-12.06,-23.38
2026-06-27 11:36:24.037,-0.12,0.77,9.71,0.00,0.02,0.00,77.19,-11.25,-23.75
2026-06-27 11:36:24.050,-0.16,0.77,9.64,0.00,0.01,-0.00,77.19,-11.25,-23.75
2026-06-27 11:36:24.067,-0.17,0.81,9.69,0.00,0.01,-0.00,77.19,-11.25,-23.75
2026-06-27 11:36:24.080,-0.17,0.80,9.69,0.00,0.02,-0.00,77.88,-11.69,-23.75
2026-06-27 11:36:24.097,-0.17,0.80,9.68,0.00,0.02,0.00,77.88,-11.69,-23.75
2026-06-27 11:36:24.110,-0.17,0.78,9.68,0.00,0.02,0.00,77.88,-11.69,-23.75
2026-06-27 11:36:24.122,-0.16,0.80,9.68,0.00,0.02,-0.00,77.88,-11.69,-23.75
2026-06-27 11:36:24.137,-0.18,0.77,9.68,0.00,0.01,-0.00,77.50,-11.25,-23.00
2026-06-27 11:36:24.149,-0.19,0.77,9.67,0.00,0.01,-0.00,77.50,-11.25,-23.00
2026-06-27 11:36:24.167,-0.21,0.80,9.67,0.00,0.02,-0.00,77.50,-11.25,-23.00
2026-06-27 11:36:24.180,-0.18,0.80,9.68,0.00,0.02,-0.00,77.88,-11.69,-22.56
2026-06-27 11:36:24.195,-0.19,0.80,9.71,0.00,0.01,0.00,77.88,-11.69,-22.56
2026-06-27 11:36:24.208,-0.19,0.82,9.70,0.00,0.01,-0.00,77.88,-11.69,-22.56
2026-06-27 11:36:24.221,-0.19,0.78,9.68,0.00,0.01,-0.00,77.88,-11.69,-22.56
2026-06-27 11:36:24.237,-0.17,0.82,9.68,0.00,0.01,0.00,77.50,-10.88,-23.00
2026-06-27 11:36:24.250,-0.17,0.81,9.68,0.00,0.01,-0.00,77.50,-10.88,-23.00
2026-06-27 11:36:24.266,-0.19,0.79,9.68,0.00,0.02,-0.00,77.50,-10.88,-23.00
2026-06-27 11:36:24.279,-0.19,0.80,9.69,0.00,0.02,-0.00,78.69,-11.69,-22.56
2026-06-27 11:36:24.297,-0.19,0.80,9.68,0.00,0.02,0.00,78.69,-11.69,-22.56
2026-06-27 11:36:24.309,-0.22,0.83,9.67,0.00,0.01,0.00,78.69,-11.69,-22.56
2026-06-27 11:36:24.322,-0.17,0.80,9.70,0.00,0.02,0.00,78.69,-11.69,-22.56
2026-06-27 11:36:24.338,-0.18,0.85,9.68,0.00,0.02,-0.00,77.88,-11.69,-23.38
2026-06-27 11:36:24.350,-0.21,0.81,9.66,0.00,0.02,0.00,77.88,-11.69,-23.38
2026-06-27 11:36:24.366,-0.25,0.78,9.69,0.01,0.02,-0.00,77.88,-11.69,-23.38
2026-06-27 11:36:24.380,-0.22,0.76,9.67,0.00,0.02,0.00,78.69,-11.25,-23.38
2026-06-27 11:36:24.395,-0.19,0.76,9.69,0.00,0.01,0.00,78.69,-11.25,-23.38
2026-06-27 11:36:24.408,-0.20,0.78,9.70,0.00,0.02,-0.00,78.69,-11.25,-23.38
2026-06-27 11:36:24.421,-0.21,0.77,9.69,0.00,0.01,-0.00,78.69,-11.25,-23.38
2026-06-27 11:36:24.438,-0.22,0.80,9.70,0.00,0.01,-0.00,77.88,-11.69,-22.56
2026-06-27 11:36:24.451,-0.24,0.80,9.68,0.00,0.02,-0.00,77.88,-11.69,-22.56
2026-06-27 11:36:24.468,-0.24,0.77,9.70,0.00,0.02,0.00,77.88,-11.69,-22.56
2026-06-27 11:36:24.481,-0.20,0.77,9.66,0.00,0.01,0.00,77.88,-10.88,-22.56
2026-06-27 11:36:24.497,-0.21,0.78,9.68,0.00,0.01,0.00,77.88,-10.88,-22.56
2026-06-27 11:36:24.510,-0.26,0.81,9.67,0.00,0.01,0.00,77.88,-10.88,-22.56
2026-06-27 11:36:24.523,-0.26,0.83,9.68,0.00,0.02,-0.00,77.88,-10.88,-22.56
2026-06-27 11:36:24.538,-0.24,0.83,9.70,0.00,0.01,-0.00,78.69,-11.69,-22.56
2026-06-27 11:36:24.551,-0.23,0.82,9.68,0.00,0.01,-0.00,78.69,-11.69,-22.56
2026-06-27 11:36:24.568,-0.25,0.83,9.68,0.00,0.01,-0.00,78.69,-11.69,-22.56
2026-06-27 11:36:24.581,-0.21,0.83,9.68,0.00,0.01,0.00,78.25,-11.69,-22.56
2026-06-27 11:36:24.598,-0.22,0.83,9.67,-0.00,0.01,-0.00,78.25,-11.69,-22.56
2026-06-27 11:36:24.610,-0.24,0.87,9.69,0.00,0.00,-0.00,78.25,-11.69,-22.56
2026-06-27 11:36:24.623,-0.22,0.88,9.68,-0.00,0.00,0.00,78.25,-11.69,-22.56
2026-06-27 11:36:24.638,-0.24,0.86,9.69,-0.00,0.00,0.00,78.25,-10.88,-23.00
2026-06-27 11:36:24.651,-0.25,0.84,9.65,-0.00,0.01,0.00,78.25,-10.88,-23.00
2026-06-27 11:36:24.668,-0.23,0.81,9.65,-0.00,0.00,0.00,78.25,-10.88,-23.00
2026-06-27 11:36:24.681,-0.25,0.80,9.69,-0.00,0.01,0.00,77.88,-10.88,-22.19
2026-06-27 11:36:24.698,-0.25,0.77,9.68,-0.00,0.01,0.00,77.88,-10.88,-22.19
2026-06-27 11:36:24.711,-0.26,0.78,9.68,-0.00,0.00,0.00,77.88,-10.88,-22.19
2026-06-27 11:36:24.723,-0.28,0.78,9.67,-0.00,0.00,0.00,77.88,-10.88,-22.19
2026-06-27 11:36:24.739,-0.26,0.77,9.68,-0.00,0.00,-0.00,78.69,-11.25,-23.00
2026-06-27 11:36:24.751,-0.28,0.75,9.68,0.00,0.00,0.00,78.69,-11.25,-23.00
2026-06-27 11:36:24.768,-0.27,0.76,9.68,-0.00,0.00,0.00,78.69,-11.25,-23.00
2026-06-27 11:36:24.781,-0.25,0.74,9.69,0.00,-0.00,0.00,77.88,-11.25,-22.19
2026-06-27 11:36:24.799,-0.26,0.77,9.68,-0.00,-0.00,0.00,77.88,-11.25,-22.19
2026-06-27 11:36:24.812,-0.25,0.79,9.68,-0.00,-0.00,0.00,77.88,-11.25,-22.19
2026-06-27 11:36:24.825,-0.26,0.82,9.68,-0.00,0.00,-0.00,77.88,-11.25,-22.19
2026-06-27 11:36:24.839,-0.26,0.84,9.69,-0.00,0.00,0.00,78.25,-11.25,-22.19
2026-06-27 11:36:24.851,-0.25,0.80,9.69,-0.00,-0.00,0.00,78.25,-11.25,-22.19
2026-06-27 11:36:24.868,-0.24,0.82,9.68,-0.00,0.00,0.00,78.25,-11.25,-22.19
2026-06-27 11:36:24.881,-0.26,0.81,9.69,-0.00,-0.01,0.00,77.88,-11.69,-22.19
2026-06-27 11:36:24.898,-0.25,0.81,9.69,-0.00,-0.01,0.00,77.88,-11.69,-22.19
2026-06-27 11:36:24.911,-0.24,0.82,9.67,-0.00,-0.00,0.00,77.88,-11.69,-22.19
2026-06-27 11:36:24.924,-0.22,0.84,9.65,-0.00,-0.00,-0.00,77.88,-11.69,-22.19
2026-06-27 11:36:24.939,-0.23,0.87,9.68,-0.00,-0.00,-0.00,78.69,-11.69,-21.38
2026-06-27 11:36:24.952,-0.24,0.86,9.70,-0.00,-0.00,0.00,78.69,-11.69,-21.38
2026-06-27 11:36:24.969,-0.25,0.85,9.70,-0.00,-0.00,0.00,78.69,-11.69,-21.38
2026-06-27 11:36:24.985,-0.24,0.86,9.67,-0.00,0.00,0.00,78.69,-10.88,-22.19
2026-06-27 11:36:24.999,-0.22,0.84,9.68,-0.00,-0.00,0.00,78.69,-10.88,-22.19
2026-06-27 11:36:25.012,-0.24,0.83,9.70,0.00,-0.01,0.00,78.69,-10.88,-22.19
2026-06-27 11:36:25.025,-0.26,0.82,9.69,-0.00,-0.01,0.00,78.69,-10.88,-22.19
2026-06-27 11:36:25.040,-0.23,0.78,9.70,-0.00,-0.00,-0.00,79.00,-11.69,-21.75
2026-06-27 11:36:25.053,-0.27,0.77,9.67,-0.00,-0.01,0.00,79.00,-11.69,-21.75
2026-06-27 11:36:25.069,-0.28,0.76,9.65,0.00,-0.01,0.00,79.00,-11.69,-21.75
2026-06-27 11:36:25.082,-0.23,0.73,9.70,0.00,-0.01,0.00,79.00,-10.88,-22.19
2026-06-27 11:36:25.099,-0.23,0.74,9.68,-0.00,0.00,0.00,79.00,-10.88,-22.19
2026-06-27 11:36:25.112,-0.23,0.75,9.69,0.00,-0.00,-0.00,79.00,-10.88,-22.19
2026-06-27 11:36:25.125,-0.25,0.75,9.69,0.00,-0.00,-0.01,79.00,-10.88,-22.19
2026-06-27 11:36:25.140,-0.25,0.76,9.69,0.00,-0.01,-0.00,77.50,-12.38,-22.56
2026-06-27 11:36:25.152,-0.26,0.77,9.69,-0.00,0.00,0.00,77.50,-12.38,-22.56
2026-06-27 11:36:25.169,-0.24,0.78,9.68,-0.00,0.00,0.00,77.50,-12.38,-22.56
2026-06-27 11:36:25.182,-0.23,0.77,9.70,0.00,-0.00,0.00,79.00,-10.88,-21.75
2026-06-27 11:36:25.199,-0.22,0.76,9.68,-0.00,0.00,0.00,79.00,-10.88,-21.75
2026-06-27 11:36:25.212,-0.23,0.77,9.66,0.00,0.00,-0.00,79.00,-10.88,-21.75
2026-06-27 11:36:25.224,-0.23,0.79,9.68,0.00,0.00,-0.00,79.00,-10.88,-21.75
2026-06-27 11:36:25.240,-0.24,0.80,9.67,0.00,0.00,-0.00,79.38,-11.69,-21.75
2026-06-27 11:36:25.253,-0.23,0.81,9.68,0.00,-0.00,0.00,79.38,-11.69,-21.75
2026-06-27 11:36:25.270,-0.22,0.84,9.66,0.00,0.00,0.00,79.38,-11.69,-21.75
2026-06-27 11:36:25.282,-0.23,0.84,9.70,0.00,0.00,0.00,78.25,-11.25,-22.50
2026-06-27 11:36:25.299,-0.19,0.83,9.69,-0.00,0.00,0.00,78.25,-11.25,-22.50
2026-06-27 11:36:25.313,-0.25,0.84,9.65,0.00,0.00,0.00,78.25,-11.25,-22.50
2026-06-27 11:36:25.326,-0.25,0.83,9.67,0.00,0.00,-0.00,78.25,-11.25,-22.50
2026-06-27 11:36:25.340,-0.24,0.83,9.67,-0.00,0.00,-0.00,77.50,-12.38,-22.56
2026-06-27 11:36:25.354,-0.25,0.85,9.67,0.00,0.00,-0.00,77.50,-12.38,-22.56
2026-06-27 11:36:25.370,-0.22,0.85,9.68,-0.00,0.00,0.00,77.50,-12.38,-22.56
2026-06-27 11:36:25.382,-0.19,0.85,9.69,-0.00,0.00,0.00,78.69,-12.06,-22.56
2026-06-27 11:36:25.399,-0.21,0.81,9.68,0.00,0.00,-0.00,78.69,-12.06,-22.56
2026-06-27 11:36:25.413,-0.24,0.78,9.67,0.00,0.00,0.00,78.69,-12.06,-22.56
2026-06-27 11:36:25.425,-0.21,0.77,9.73,0.00,0.00,0.00,78.69,-12.06,-22.56
2026-06-27 11:36:25.441,-0.23,0.78,9.68,0.00,0.00,0.00,77.88,-11.69,-22.19
2026-06-27 11:36:25.455,-0.22,0.75,9.67,0.00,0.00,0.00,77.88,-11.69,-22.19
2026-06-27 11:36:25.470,-0.23,0.75,9.69,0.00,0.01,-0.00,77.88,-11.69,-22.19
2026-06-27 11:36:25.483,-0.24,0.76,9.69,0.00,0.01,-0.00,78.25,-11.69,-23.38
2026-06-27 11:36:25.500,-0.23,0.77,9.68,0.00,0.01,-0.00,78.25,-11.69,-23.38
2026-06-27 11:36:25.516,-0.23,0.82,9.70,0.00,0.01,0.00,78.25,-11.69,-23.38
2026-06-27 11:36:25.530,-0.25,0.81,9.68,0.00,0.01,0.00,77.50,-11.69,-23.00
2026-06-27 11:36:25.543,-0.20,0.84,9.70,-0.00,0.01,0.00,77.50,-11.69,-23.00
2026-06-27 11:36:25.560,-0.25,0.81,9.67,0.00,0.01,0.00,77.50,-11.69,-23.00
2026-06-27 11:36:25.573,-0.24,0.83,9.70,0.00,0.01,0.00,77.50,-11.69,-23.00
2026-06-27 11:36:25.590,-0.25,0.83,9.68,0.00,0.01,0.00,78.25,-11.25,-21.38
2026-06-27 11:36:25.603,-0.26,0.82,9.66,-0.00,0.00,0.00,78.25,-11.25,-21.38
2026-06-27 11:36:25.621,-0.28,0.82,9.68,0.00,0.01,0.00,78.25,-11.25,-21.38
2026-06-27 11:36:25.633,-0.26,0.83,9.70,0.00,0.01,0.00,78.25,-10.88,-21.00
2026-06-27 11:36:25.650,-0.24,0.81,9.70,0.00,0.00,0.00,78.25,-10.88,-21.00
2026-06-27 11:36:25.662,-0.26,0.82,9.66,0.00,0.00,0.00,78.25,-10.88,-21.00
2026-06-27 11:36:25.675,-0.28,0.85,9.67,-0.00,0.00,0.00,78.25,-10.88,-21.00
2026-06-27 11:36:25.691,-0.26,0.81,9.71,0.00,0.00,0.00,78.25,-12.06,-21.75
2026-06-27 11:36:25.704,-0.25,0.85,9.67,-0.00,0.00,0.00,78.25,-12.06,-21.75
2026-06-27 11:36:25.721,-0.27,0.82,9.70,0.00,0.00,0.00,78.25,-12.06,-21.75
2026-06-27 11:36:25.733,-0.29,0.82,9.67,-0.00,0.00,0.00,78.25,-11.69,-22.56
2026-06-27 11:36:25.750,-0.29,0.78,9.68,0.00,0.00,0.00,78.25,-11.69,-22.56
2026-06-27 11:36:25.762,-0.29,0.81,9.67,0.00,0.00,0.00,78.25,-11.69,-22.56
2026-06-27 11:36:25.775,-0.31,0.80,9.68,0.00,-0.00,0.00,78.25,-11.69,-22.56
2026-06-27 11:36:25.791,-0.29,0.80,9.71,0.00,-0.00,0.00,79.38,-11.69,-22.19
2026-06-27 11:36:25.803,-0.31,0.78,9.66,-0.00,-0.01,0.00,79.38,-11.69,-22.19
2026-06-27 11:36:25.821,-0.32,0.78,9.68,-0.00,-0.00,0.00,79.38,-11.69,-22.19
2026-06-27 11:36:25.833,-0.29,0.79,9.68,-0.00,-0.01,0.00,78.25,-11.69,-22.50
2026-06-27 11:36:25.851,-0.29,0.78,9.71,-0.00,-0.01,0.00,78.25,-11.69,-22.50
2026-06-27 11:36:25.863,-0.28,0.77,9.68,-0.00,-0.01,-0.00,78.25,-11.69,-22.50
2026-06-27 11:36:25.876,-0.29,0.77,9.69,-0.00,-0.02,0.00,78.25,-11.69,-22.50
2026-06-27 11:36:25.891,-0.29,0.77,9.67,-0.00,-0.01,-0.00,78.25,-11.25,-22.56
2026-06-27 11:36:25.904,-0.26,0.77,9.66,-0.00,-0.01,0.00,78.25,-11.25,-22.56
2026-06-27 11:36:25.921,-0.28,0.77,9.67,-0.00,-0.01,0.00,78.25,-11.25,-22.56
2026-06-27 11:36:25.934,-0.26,0.79,9.68,-0.00,-0.01,0.00,77.88,-10.88,-21.75
2026-06-27 11:36:25.952,-0.26,0.79,9.68,-0.00,-0.02,0.00,77.88,-10.88,-21.75
2026-06-27 11:36:25.964,-0.25,0.82,9.70,-0.00,-0.02,0.00,77.88,-10.88,-21.75
2026-06-27 11:36:25.977,-0.26,0.79,9.70,-0.00,-0.01,0.00,77.88,-10.88,-21.75
2026-06-27 11:36:25.991,-0.26,0.81,9.70,0.00,-0.02,0.00,78.69,-11.69,-21.38
2026-06-27 11:36:26.004,-0.23,0.79,9.68,-0.00,-0.02,0.00,78.69,-11.69,-21.38
2026-06-27 11:36:26.021,-0.23,0.81,9.68,-0.00,-0.01,0.00,78.69,-11.69,-21.38
2026-06-27 11:36:26.034,-0.22,0.79,9.70,-0.00,-0.02,0.00,78.25,-11.25,-23.38
2026-06-27 11:36:26.052,-0.22,0.80,9.70,-0.00,-0.02,0.00,78.25,-11.25,-23.38
2026-06-27 11:36:26.064,-0.22,0.82,9.68,-0.00,-0.02,0.00,78.25,-11.25,-23.38
2026-06-27 11:36:26.076,-0.20,0.82,9.68,-0.00,-0.02,0.00,78.25,-11.25,-23.38
2026-06-27 11:36:26.091,-0.22,0.83,9.73,0.00,-0.01,0.00,77.19,-12.38,-21.00
2026-06-27 11:36:26.104,-0.22,0.81,9.68,-0.00,-0.01,0.00,77.19,-12.38,-21.00
2026-06-27 11:36:26.121,-0.21,0.82,9.69,-0.00,-0.01,0.00,77.19,-12.38,-21.00
2026-06-27 11:36:26.134,-0.21,0.79,9.68,-0.00,-0.02,0.01,79.00,-11.25,-23.00
2026-06-27 11:36:26.151,-0.23,0.79,9.67,-0.00,-0.01,0.00,79.00,-11.25,-23.00
2026-06-27 11:36:26.163,-0.23,0.78,9.67,-0.00,-0.01,0.00,79.00,-11.25,-23.00
2026-06-27 11:36:26.176,-0.23,0.79,9.68,-0.00,-0.01,-0.00,79.00,-11.25,-23.00
2026-06-27 11:36:26.191,-0.22,0.79,9.68,-0.00,-0.01,-0.00,77.88,-12.06,-23.38
2026-06-27 11:36:26.204,-0.21,0.79,9.68,-0.00,-0.01,0.00,77.88,-12.06,-23.38
2026-06-27 11:36:26.221,-0.19,0.78,9.69,0.00,-0.01,0.00,77.88,-12.06,-23.38
2026-06-27 11:36:26.234,-0.20,0.81,9.68,-0.00,-0.01,0.00,77.50,-11.25,-23.00
2026-06-27 11:36:26.251,-0.19,0.80,9.69,-0.00,-0.01,0.00,77.50,-11.25,-23.00
2026-06-27 11:36:26.264,-0.16,0.79,9.67,-0.00,-0.01,0.00,77.50,-11.25,-23.00
2026-06-27 11:36:26.276,-0.17,0.80,9.69,-0.00,-0.01,0.00,77.50,-11.25,-23.00
2026-06-27 11:36:26.292,-0.16,0.81,9.69,-0.00,-0.01,0.00,78.69,-11.69,-23.00
2026-06-27 11:36:26.304,-0.16,0.84,9.68,0.00,-0.01,0.00,78.69,-11.69,-23.00
2026-06-27 11:36:26.322,-0.13,0.82,9.68,0.00,-0.01,0.00,78.69,-11.69,-23.00
2026-06-27 11:36:26.334,-0.15,0.82,9.71,-0.00,-0.00,0.00,77.88,-11.25,-23.38
2026-06-27 11:36:26.352,-0.18,0.85,9.68,0.00,-0.00,-0.00,77.88,-11.25,-23.38
2026-06-27 11:36:26.365,-0.19,0.85,9.66,0.00,0.00,0.00,77.88,-11.25,-23.38
2026-06-27 11:36:26.377,-0.18,0.82,9.68,0.00,0.00,0.00,77.88,-11.25,-23.38
2026-06-27 11:36:26.392,-0.19,0.79,9.68,-0.00,0.00,0.01,77.88,-11.69,-22.50
2026-06-27 11:36:26.405,-0.19,0.77,9.68,0.00,0.01,0.00,77.88,-11.69,-22.50
2026-06-27 11:36:26.422,-0.22,0.76,9.68,-0.00,0.01,0.00,77.88,-11.69,-22.50
2026-06-27 11:36:26.434,-0.20,0.77,9.69,-0.00,0.00,-0.00,76.75,-10.56,-22.50
2026-06-27 11:36:26.452,-0.24,0.78,9.68,-0.00,0.00,-0.00,76.75,-10.56,-22.50
2026-06-27 11:36:26.465,-0.22,0.78,9.68,-0.00,0.01,-0.00,76.75,-10.56,-22.50
2026-06-27 11:36:26.477,-0.20,0.78,9.69,-0.00,0.00,-0.00,76.75,-10.56,-22.50
2026-06-27 11:36:26.492,-0.23,0.78,9.68,-0.00,0.00,0.00,77.19,-11.69,-22.56
2026-06-27 11:36:26.506,-0.21,0.77,9.68,0.00,0.00,0.00,77.19,-11.69,-22.56
2026-06-27 11:36:26.522,-0.23,0.75,9.67,-0.00,0.00,0.00,77.19,-11.69,-22.56
2026-06-27 11:36:26.535,-0.22,0.75,9.67,0.00,0.00,0.00,78.69,-11.25,-22.56
2026-06-27 11:36:26.552,-0.23,0.79,9.69,-0.00,0.00,0.00,78.69,-11.25,-22.56
2026-06-27 11:36:26.565,-0.23,0.81,9.65,0.00,0.00,-0.00,78.69,-11.25,-22.56
2026-06-27 11:36:26.580,-0.22,0.82,9.68,0.00,0.00,-0.00,78.69,-11.25,-22.56
2026-06-27 11:36:26.593,-0.23,0.83,9.69,-0.00,0.01,0.00,77.88,-11.69,-23.00
2026-06-27 11:36:26.606,-0.21,0.83,9.67,0.00,0.00,0.00,77.88,-11.69,-23.00
2026-06-27 11:36:26.622,-0.24,0.85,9.66,-0.00,0.00,0.00,77.88,-11.69,-23.00
2026-06-27 11:36:26.635,-0.22,0.81,9.71,-0.00,0.01,0.00,77.88,-12.38,-21.75
2026-06-27 11:36:26.652,-0.21,0.82,9.66,0.00,0.00,0.00,77.88,-12.38,-21.75
2026-06-27 11:36:26.665,-0.25,0.83,9.70,0.00,0.00,-0.00,77.88,-12.38,-21.75
2026-06-27 11:36:26.677,-0.23,0.82,9.68,0.00,0.01,0.00,77.88,-12.38,-21.75
2026-06-27 11:36:26.692,-0.24,0.85,9.71,0.00,0.01,0.00,77.50,-11.69,-22.56
2026-06-27 11:36:26.705,-0.24,0.80,9.66,0.00,0.00,0.00,77.50,-11.69,-22.56
2026-06-27 11:36:26.722,-0.24,0.82,9.68,0.00,0.00,0.00,77.50,-11.69,-22.56
2026-06-27 11:36:26.736,-0.25,0.83,9.68,-0.00,-0.00,0.00,77.50,-11.25,-22.19
2026-06-27 11:36:26.752,-0.26,0.82,9.65,-0.00,0.00,0.00,77.50,-11.25,-22.19
2026-06-27 11:36:26.765,-0.24,0.85,9.70,-0.00,0.00,0.00,77.50,-11.25,-22.19
2026-06-27 11:36:26.779,-0.25,0.84,9.71,-0.00,-0.00,0.00,77.50,-11.25,-22.19
2026-06-27 11:36:26.793,-0.23,0.83,9.71,-0.00,-0.00,0.00,77.19,-12.38,-22.50
2026-06-27 11:36:26.805,-0.23,0.84,9.69,-0.00,-0.00,-0.00,77.19,-12.38,-22.50
2026-06-27 11:36:26.822,-0.17,0.79,9.69,-0.00,0.00,-0.00,77.19,-12.38,-22.50
2026-06-27 11:36:26.837,-0.22,0.76,9.71,0.00,0.00,-0.00,77.88,-11.69,-22.56
2026-06-27 11:36:26.853,-0.25,0.73,9.68,-0.00,0.00,0.00,77.88,-11.69,-22.56
2026-06-27 11:36:26.865,-0.28,0.72,9.68,0.00,0.00,0.01,77.88,-11.69,-22.56
2026-06-27 11:36:26.879,-0.27,0.72,9.68,-0.00,-0.00,0.01,77.88,-11.69,-22.56
2026-06-27 11:36:26.893,-0.28,0.73,9.70,-0.00,-0.00,0.01,78.69,-12.06,-23.00
2026-06-27 11:36:26.906,-0.29,0.77,9.68,-0.00,-0.00,0.01,78.69,-12.06,-23.00
2026-06-27 11:36:26.923,-0.27,0.77,9.69,0.00,0.00,0.00,78.69,-12.06,-23.00
2026-06-27 11:36:26.936,-0.28,0.83,9.68,0.00,-0.01,-0.00,77.19,-11.69,-22.56
2026-06-27 11:36:26.953,-0.30,0.82,9.70,-0.00,-0.01,-0.00,77.19,-11.69,-22.56
2026-06-27 11:36:26.965,-0.26,0.83,9.69,-0.00,-0.01,-0.00,77.19,-11.69,-22.56
2026-06-27 11:36:26.978,-0.26,0.82,9.70,-0.00,-0.01,-0.00,77.19,-11.69,-22.56
2026-06-27 11:36:26.994,-0.25,0.83,9.69,-0.00,-0.01,0.00,77.88,-12.38,-21.75
2026-06-27 11:36:27.006,-0.22,0.79,9.67,-0.00,-0.01,0.00,77.88,-12.38,-21.75
2026-06-27 11:36:27.023,-0.23,0.79,9.67,-0.00,-0.01,0.00,77.88,-12.38,-21.75
2026-06-27 11:36:27.035,-0.26,0.81,9.68,-0.00,-0.01,0.00,78.69,-11.25,-22.19
2026-06-27 11:36:27.052,-0.24,0.80,9.68,-0.00,-0.01,0.00,78.69,-11.25,-22.19
2026-06-27 11:36:27.065,-0.23,0.81,9.68,-0.00,-0.01,0.00,78.69,-11.25,-22.19
2026-06-27 11:36:27.078,-0.21,0.79,9.68,-0.00,-0.01,0.00,78.69,-11.25,-22.19
2026-06-27 11:36:27.094,-0.18,0.81,9.68,0.00,-0.01,0.00,77.50,-11.69,-22.50
2026-06-27 11:36:27.106,-0.20,0.85,9.67,0.00,-0.01,0.00,77.50,-11.69,-22.50
2026-06-27 11:36:27.123,-0.18,0.83,9.67,0.00,-0.01,-0.00,77.50,-11.69,-22.50
2026-06-27 11:36:27.135,-0.17,0.85,9.70,0.00,-0.01,-0.00,78.69,-11.25,-22.19
2026-06-27 11:36:27.151,-0.22,0.86,9.67,-0.00,-0.00,0.00,78.69,-11.25,-22.19
2026-06-27 11:36:27.165,-0.18,0.83,9.66,0.00,-0.01,0.01,78.69,-11.25,-22.19
2026-06-27 11:36:27.177,-0.20,0.82,9.69,-0.00,-0.00,0.01,78.69,-11.25,-22.19
2026-06-27 11:36:27.193,-0.20,0.79,9.70,0.00,-0.00,0.00,77.88,-12.06,-21.38
2026-06-27 11:36:27.206,-0.18,0.76,9.65,0.00,-0.00,-0.00,77.88,-12.06,-21.38
2026-06-27 11:36:27.223,-0.20,0.76,9.72,0.00,-0.00,-0.00,77.88,-12.06,-21.38
2026-06-27 11:36:27.236,-0.19,0.78,9.69,0.00,0.00,-0.00,77.88,-12.06,-22.19
2026-06-27 11:36:27.252,-0.23,0.80,9.70,0.00,0.00,-0.00,77.88,-12.06,-22.19
2026-06-27 11:36:27.266,-0.18,0.79,9.68,0.00,0.00,0.00,77.88,-12.06,-22.19
2026-06-27 11:36:27.281,-0.20,0.81,9.68,0.00,0.01,0.00,77.88,-12.06,-22.19
2026-06-27 11:36:27.294,-0.19,0.79,9.69,0.00,0.00,0.00,77.19,-10.88,-23.38
2026-06-27 11:36:27.307,-0.20,0.78,9.67,0.00,0.01,0.00,77.19,-10.88,-23.38
2026-06-27 11:36:27.324,-0.21,0.78,9.68,0.00,0.00,0.00,77.19,-10.88,-23.38
2026-06-27 11:36:27.337,-0.25,0.83,9.65,0.00,0.01,0.00,78.25,-11.25,-23.38
2026-06-27 11:36:27.353,-0.25,0.81,9.69,0.00,0.01,0.00,78.25,-11.25,-23.38
2026-06-27 11:36:27.366,-0.22,0.81,9.69,-0.00,0.01,0.00,78.25,-11.25,-23.38
2026-06-27 11:36:27.378,-0.23,0.81,9.67,0.00,0.01,0.00,78.25,-11.25,-23.38
2026-06-27 11:36:27.394,-0.21,0.80,9.67,0.00,0.01,-0.00,78.25,-12.06,-22.56
2026-06-27 11:36:27.407,-0.24,0.77,9.68,0.00,0.01,-0.00,78.25,-12.06,-22.56
2026-06-27 11:36:27.424,-0.26,0.80,9.65,0.00,0.01,0.00,78.25,-12.06,-22.56
2026-06-27 11:36:27.437,-0.23,0.80,9.67,0.00,0.00,0.00,78.69,-12.38,-22.56
2026-06-27 11:36:27.454,-0.25,0.79,9.68,0.00,0.00,0.00,78.69,-12.38,-22.56
2026-06-27 11:36:27.466,-0.23,0.81,9.66,0.00,0.01,0.00,78.69,-12.38,-22.56
2026-06-27 11:36:27.479,-0.24,0.81,9.68,0.00,0.01,0.00,78.69,-12.38,-22.56
2026-06-27 11:36:27.494,-0.24,0.81,9.68,0.00,0.00,-0.00,78.25,-11.25,-21.75
2026-06-27 11:36:27.507,-0.24,0.81,9.65,-0.00,0.00,-0.00,78.25,-11.25,-21.75
2026-06-27 11:36:27.525,-0.24,0.83,9.64,0.00,0.00,0.00,78.25,-11.25,-21.75
2026-06-27 11:36:27.537,-0.22,0.85,9.72,0.00,-0.00,0.00,77.88,-10.88,-22.56
2026-06-27 11:36:27.554,-0.21,0.84,9.70,-0.00,-0.00,0.00,77.88,-10.88,-22.56
2026-06-27 11:36:27.566,-0.22,0.85,9.66,-0.00,0.00,0.00,77.88,-10.88,-22.56
2026-06-27 11:36:27.579,-0.27,0.84,9.68,0.00,0.00,-0.00,77.88,-10.88,-22.56
2026-06-27 11:36:27.595,-0.27,0.82,9.68,-0.00,0.00,0.00,77.50,-11.69,-22.19
2026-06-27 11:36:27.607,-0.25,0.85,9.68,-0.00,0.00,0.00,77.50,-11.69,-22.19
2026-06-27 11:36:27.625,-0.26,0.78,9.67,-0.00,0.00,0.00,77.50,-11.69,-22.19
2026-06-27 11:36:27.637,-0.26,0.80,9.69,0.00,0.00,0.00,78.69,-12.38,-23.00
2026-06-27 11:36:27.655,-0.26,0.76,9.68,-0.00,0.00,-0.00,78.69,-12.38,-23.00
2026-06-27 11:36:27.667,-0.26,0.77,9.68,-0.00,-0.00,-0.00,78.69,-12.38,-23.00
2026-06-27 11:36:27.679,-0.24,0.77,9.68,-0.00,-0.00,-0.00,78.69,-12.38,-23.00
2026-06-27 11:36:27.695,-0.29,0.78,9.68,-0.00,-0.00,-0.00,78.25,-11.69,-22.19
2026-06-27 11:36:27.708,-0.26,0.79,9.67,-0.00,-0.00,0.00,78.25,-11.69,-22.19
2026-06-27 11:36:27.725,-0.27,0.76,9.71,-0.00,-0.00,0.00,78.25,-11.69,-22.19
2026-06-27 11:36:27.738,-0.25,0.78,9.67,0.00,-0.00,0.00,78.69,-11.69,-21.75
2026-06-27 11:36:27.755,-0.26,0.79,9.70,-0.00,0.00,0.00,78.69,-11.69,-21.75
2026-06-27 11:36:27.767,-0.24,0.81,9.68,0.00,-0.00,-0.00,78.69,-11.69,-21.75
2026-06-27 11:36:27.780,-0.24,0.82,9.69,0.00,-0.00,-0.00,78.69,-11.69,-21.75
2026-06-27 11:36:27.797,-0.26,0.82,9.67,-0.00,-0.00,0.00,79.00,-11.25,-22.19
2026-06-27 11:36:27.814,-0.24,0.82,9.68,0.00,-0.01,0.00,79.00,-11.25,-22.19
2026-06-27 11:36:27.826,-0.25,0.82,9.71,-0.00,-0.00,0.00,79.00,-11.25,-22.19
2026-06-27 11:36:27.844,-0.24,0.81,9.70,0.00,-0.00,-0.00,78.25,-12.06,-22.50
2026-06-27 11:36:27.857,-0.22,0.81,9.68,0.00,-0.00,-0.00,78.25,-12.06,-22.50
2026-06-27 11:36:27.872,-0.25,0.80,9.68,0.00,-0.00,-0.00,78.25,-12.06,-22.50
2026-06-27 11:36:27.885,-0.23,0.78,9.69,0.00,-0.00,0.00,77.88,-12.06,-21.75
2026-06-27 11:36:27.899,-0.21,0.78,9.68,0.00,0.00,-0.00,77.88,-12.06,-21.75
2026-06-27 11:36:27.915,-0.24,0.82,9.66,0.00,0.00,0.00,77.88,-12.06,-21.75
2026-06-27 11:36:27.928,-0.24,0.87,9.67,0.00,-0.00,0.00,77.88,-12.06,-21.75
2026-06-27 11:36:27.946,-0.25,0.89,9.69,-0.00,0.00,0.00,78.25,-12.06,-22.19
2026-06-27 11:36:27.962,-0.23,0.89,9.68,0.00,0.00,0.00,78.25,-12.06,-22.19
2026-06-27 11:36:27.976,-0.27,0.84,9.69,0.00,-0.00,0.00,78.25,-12.06,-22.19
2026-06-27 11:36:27.993,-0.28,0.83,9.67,0.00,0.00,0.00,78.69,-12.06,-22.19
2026-06-27 11:36:28.006,-0.27,0.77,9.66,0.00,0.00,0.00,78.69,-12.06,-22.19
2026-06-27 11:36:28.018,-0.27,0.76,9.67,0.00,0.00,-0.00,78.69,-12.06,-22.19
2026-06-27 11:36:28.030,-0.29,0.75,9.67,0.00,0.00,-0.00,78.69,-12.06,-22.19
2026-06-27 11:36:28.045,-0.29,0.76,9.69,0.00,0.00,-0.00,78.25,-12.06,-22.19
2026-06-27 11:36:28.058,-0.24,0.78,9.66,0.00,0.00,-0.00,78.25,-12.06,-22.19
2026-06-27 11:36:28.076,-0.26,0.77,9.68,-0.00,0.00,-0.00,78.25,-12.06,-22.19
2026-06-27 11:36:28.088,-0.22,0.81,9.69,-0.00,0.01,-0.00,77.88,-11.69,-21.38
2026-06-27 11:36:28.105,-0.24,0.81,9.68,0.00,0.00,0.00,77.88,-11.69,-21.38
2026-06-27 11:36:28.117,-0.28,0.79,9.67,0.00,0.00,0.00,77.88,-11.69,-21.38
2026-06-27 11:36:28.130,-0.26,0.78,9.68,0.00,0.00,0.00,77.88,-11.69,-21.38
2026-06-27 11:36:28.145,-0.28,0.77,9.69,-0.00,0.01,0.00,78.69,-12.06,-22.19
2026-06-27 11:36:28.158,-0.25,0.75,9.67,-0.00,0.01,0.00,78.69,-12.06,-22.19
2026-06-27 11:36:28.176,-0.24,0.73,9.69,0.00,0.01,0.00,78.69,-12.06,-22.19
2026-06-27 11:36:28.188,-0.29,0.77,9.70,0.00,0.01,-0.01,78.69,-11.69,-22.19
2026-06-27 11:36:28.205,-0.29,0.77,9.68,0.00,0.01,-0.00,78.69,-11.69,-22.19
2026-06-27 11:36:28.218,-0.30,0.81,9.67,0.00,0.01,0.00,78.69,-11.69,-22.19
2026-06-27 11:36:28.230,-0.29,0.82,9.68,0.00,0.01,0.00,78.69,-11.69,-22.19
2026-06-27 11:36:28.246,-0.28,0.86,9.71,0.00,0.01,0.00,78.25,-10.88,-23.00
2026-06-27 11:36:28.258,-0.31,0.83,9.65,-0.00,0.01,0.00,78.25,-10.88,-23.00
2026-06-27 11:36:28.276,-0.30,0.81,9.68,0.00,0.01,-0.00,78.25,-10.88,-23.00
2026-06-27 11:36:28.288,-0.29,0.82,9.68,0.00,0.01,-0.00,77.88,-11.25,-21.75
2026-06-27 11:36:28.306,-0.31,0.86,9.67,0.00,0.01,-0.01,77.88,-11.25,-21.75
2026-06-27 11:36:28.319,-0.30,0.92,9.66,0.00,0.01,-0.00,77.88,-11.25,-21.75
2026-06-27 11:36:28.332,-0.31,0.94,9.70,0.00,0.01,0.00,77.88,-11.25,-21.75
2026-06-27 11:36:28.346,-0.31,0.92,9.70,0.00,0.01,0.00,78.69,-12.38,-21.75
2026-06-27 11:36:28.359,-0.30,0.92,9.67,0.00,0.00,0.00,78.69,-12.38,-21.75
2026-06-27 11:36:28.376,-0.30,0.88,9.66,-0.00,0.00,0.00,78.69,-12.38,-21.75
2026-06-27 11:36:28.388,-0.34,0.80,9.68,-0.00,0.01,0.00,79.00,-11.69,-22.50
2026-06-27 11:36:28.406,-0.34,0.77,9.68,0.00,0.00,-0.00,79.00,-11.69,-22.50
2026-06-27 11:36:28.418,-0.36,0.74,9.68,0.00,-0.00,0.00,79.00,-11.69,-22.50
2026-06-27 11:36:28.431,-0.36,0.73,9.70,0.00,-0.01,-0.00,79.00,-11.69,-22.50
2026-06-27 11:36:28.446,-0.32,0.73,9.66,0.00,-0.01,-0.00,79.75,-12.06,-22.56
2026-06-27 11:36:28.461,-0.31,0.75,9.64,0.00,-0.00,-0.00,79.75,-12.06,-22.56
2026-06-27 11:36:28.476,-0.32,0.76,9.67,0.00,-0.01,-0.00,79.75,-12.06,-22.56
2026-06-27 11:36:28.489,-0.32,0.77,9.70,-0.00,-0.00,-0.00,79.00,-11.69,-20.50
2026-06-27 11:36:28.506,-0.31,0.76,9.70,0.00,-0.01,0.00,79.00,-11.69,-20.50
2026-06-27 11:36:28.519,-0.29,0.76,9.71,0.00,-0.01,0.00,79.00,-11.69,-20.50
2026-06-27 11:36:28.535,-0.30,0.79,9.68,-0.00,-0.01,0.00,79.00,-11.69,-20.50
2026-06-27 11:36:28.547,-0.30,0.78,9.68,0.00,-0.01,0.00,78.69,-12.38,-22.19
2026-06-27 11:36:28.564,-0.31,0.80,9.68,-0.00,-0.01,0.00,78.69,-12.38,-22.19
2026-06-27 11:36:28.577,-0.30,0.81,9.68,-0.00,-0.01,0.00,78.69,-12.38,-22.19
2026-06-27 11:36:28.590,-0.29,0.83,9.68,-0.00,-0.01,0.00,78.25,-11.25,-22.19
2026-06-27 11:36:28.606,-0.30,0.81,9.67,-0.00,-0.01,-0.00,78.25,-11.25,-22.19
2026-06-27 11:36:28.619,-0.31,0.80,9.68,-0.00,-0.01,-0.01,78.25,-11.25,-22.19
2026-06-27 11:36:28.633,-0.32,0.79,9.69,0.00,-0.01,-0.00,78.25,-11.25,-22.19
2026-06-27 11:36:28.647,-0.30,0.80,9.69,0.00,-0.01,0.00,78.25,-12.06,-22.19
2026-06-27 11:36:28.660,-0.29,0.83,9.67,-0.00,-0.02,0.00,78.25,-12.06,-22.19
2026-06-27 11:36:28.676,-0.29,0.83,9.66,0.00,-0.01,0.00,78.25,-12.06,-22.19
2026-06-27 11:36:28.693,-0.29,0.85,9.69,-0.00,-0.01,0.00,78.25,-11.69,-21.38
2026-06-27 11:36:28.707,-0.27,0.83,9.69,-0.00,-0.01,0.00,78.25,-11.69,-21.38
2026-06-27 11:36:28.720,-0.26,0.81,9.67,-0.00,-0.02,-0.00,78.25,-11.69,-21.38
2026-06-27 11:36:28.733,-0.26,0.83,9.65,-0.00,-0.02,-0.00,78.25,-11.69,-21.38
2026-06-27 11:36:28.747,-0.27,0.81,9.68,0.00,-0.01,-0.00,77.88,-11.69,-21.38
2026-06-27 11:36:28.759,-0.24,0.83,9.65,-0.00,-0.01,-0.00,77.88,-11.69,-21.38
2026-06-27 11:36:28.777,-0.27,0.84,9.67,-0.00,-0.01,0.00,77.88,-11.69,-21.38
2026-06-27 11:36:28.790,-0.27,0.84,9.71,-0.00,-0.01,0.00,79.00,-11.25,-22.56
2026-06-27 11:36:28.806,-0.25,0.80,9.69,-0.00,-0.01,0.01,79.00,-11.25,-22.56
2026-06-27 11:36:28.819,-0.25,0.80,9.67,-0.00,-0.01,0.00,79.00,-11.25,-22.56
2026-06-27 11:36:28.832,-0.26,0.78,9.67,-0.00,-0.01,0.00,79.00,-11.25,-22.56
2026-06-27 11:36:28.847,-0.29,0.80,9.69,-0.00,-0.01,-0.00,78.25,-11.69,-22.56
2026-06-27 11:36:28.860,-0.26,0.83,9.66,-0.00,-0.01,-0.00,78.25,-11.69,-22.56
2026-06-27 11:36:28.877,-0.28,0.84,9.69,0.00,-0.01,-0.00,78.25,-11.69,-22.56
2026-06-27 11:36:28.890,-0.25,0.81,9.71,-0.00,-0.01,-0.00,79.38,-12.38,-22.56
2026-06-27 11:36:28.907,-0.24,0.81,9.66,-0.00,-0.00,-0.00,79.38,-12.38,-22.56
2026-06-27 11:36:28.919,-0.28,0.80,9.68,-0.00,-0.00,0.00,79.38,-12.38,-22.56
2026-06-27 11:36:28.932,-0.28,0.81,9.69,-0.00,-0.00,0.00,79.38,-12.38,-22.56
2026-06-27 11:36:28.948,-0.27,0.77,9.67,-0.00,-0.00,0.00,79.00,-11.25,-23.38
2026-06-27 11:36:28.960,-0.26,0.76,9.69,-0.00,-0.00,0.00,79.00,-11.25,-23.38
2026-06-27 11:36:28.977,-0.25,0.73,9.67,0.00,-0.01,0.01,79.00,-11.25,-23.38
2026-06-27 11:36:28.990,-0.27,0.75,9.68,-0.00,-0.00,0.00,77.88,-11.69,-21.38
2026-06-27 11:36:29.007,-0.27,0.76,9.68,0.00,-0.00,-0.00,77.88,-11.69,-21.38
2026-06-27 11:36:29.020,-0.29,0.80,9.65,0.00,-0.00,-0.00,77.88,-11.69,-21.38
2026-06-27 11:36:29.032,-0.30,0.79,9.69,0.00,-0.01,-0.01,77.88,-11.69,-21.38
2026-06-27 11:36:29.048,-0.29,0.79,9.69,0.00,-0.00,0.00,77.88,-12.06,-22.56
2026-06-27 11:36:29.060,-0.27,0.79,9.66,0.00,-0.01,0.00,77.88,-12.06,-22.56
2026-06-27 11:36:29.077,-0.26,0.81,9.66,-0.00,-0.00,0.00,77.88,-12.06,-22.56
2026-06-27 11:36:29.089,-0.25,0.83,9.69,0.00,-0.01,0.00,78.69,-11.69,-23.00
2026-06-27 11:36:29.107,-0.28,0.81,9.69,0.00,-0.00,-0.00,78.69,-11.69,-23.00
2026-06-27 11:36:29.120,-0.29,0.84,9.67,0.00,0.00,-0.00,78.69,-11.69,-23.00
2026-06-27 11:36:29.132,-0.29,0.86,9.68,0.00,-0.00,0.00,78.69,-11.69,-23.00
2026-06-27 11:36:29.148,-0.27,0.87,9.69,0.00,0.00,-0.00,78.25,-12.75,-21.00
2026-06-27 11:36:29.160,-0.24,0.84,9.66,-0.00,0.00,0.00,78.25,-12.75,-21.00
2026-06-27 11:36:29.177,-0.24,0.86,9.66,-0.00,0.00,0.00,78.25,-12.75,-21.00
2026-06-27 11:36:29.189,-0.29,0.85,9.68,0.00,-0.00,-0.00,78.25,-12.06,-21.75
2026-06-27 11:36:29.201,-0.26,0.82,9.67,0.00,-0.00,0.00,78.25,-12.06,-21.75
2026-06-27 11:36:29.218,-0.27,0.84,9.66,0.00,-0.00,0.00,78.25,-12.06,-21.75
2026-06-27 11:36:29.231,-0.25,0.79,9.68,0.00,0.00,0.00,78.25,-12.06,-21.75
2026-06-27 11:36:29.248,-0.28,0.79,9.69,0.00,0.00,0.00,78.25,-11.25,-22.19
2026-06-27 11:36:29.260,-0.26,0.79,9.67,0.00,0.00,0.00,78.25,-11.25,-22.19
2026-06-27 11:36:29.278,-0.25,0.81,9.71,-0.00,0.00,-0.00,78.25,-11.25,-22.19
2026-06-27 11:36:29.290,-0.28,0.78,9.72,0.00,0.00,-0.00,77.50,-12.06,-21.75
2026-06-27 11:36:29.307,-0.27,0.80,9.66,0.00,0.00,-0.00,77.50,-12.06,-21.75
2026-06-27 11:36:29.321,-0.27,0.78,9.67,-0.00,0.01,0.00,77.50,-12.06,-21.75
2026-06-27 11:36:29.333,-0.29,0.80,9.70,0.00,0.00,0.00,77.50,-12.06,-21.75
2026-06-27 11:36:29.348,-0.28,0.78,9.72,-0.00,0.00,0.00,78.69,-11.69,-22.19
2026-06-27 11:36:29.361,-0.28,0.79,9.66,0.00,0.00,-0.00,78.69,-11.69,-22.19
2026-06-27 11:36:29.378,-0.29,0.82,9.68,0.00,0.00,0.00,78.69,-11.69,-22.19
2026-06-27 11:36:29.391,-0.29,0.80,9.69,0.00,0.00,0.00,78.69,-12.06,-22.19
2026-06-27 11:36:29.408,-0.27,0.81,9.68,-0.00,0.00,-0.00,78.69,-12.06,-22.19
2026-06-27 11:36:29.421,-0.28,0.79,9.68,-0.00,0.00,0.00,78.69,-12.06,-22.19
2026-06-27 11:36:29.434,-0.29,0.80,9.67,-0.00,0.00,0.00,78.69,-12.06,-22.19
2026-06-27 11:36:29.449,-0.28,0.79,9.69,0.00,-0.00,0.00,78.69,-12.38,-21.00
2026-06-27 11:36:29.463,-0.29,0.82,9.69,0.00,-0.00,-0.00,78.69,-12.38,-21.00
2026-06-27 11:36:29.479,-0.28,0.81,9.69,0.00,0.00,0.00,78.69,-12.38,-21.00
2026-06-27 11:36:29.491,-0.28,0.84,9.70,-0.00,-0.00,0.00,78.69,-11.69,-22.19
2026-06-27 11:36:29.508,-0.28,0.81,9.69,-0.00,0.00,0.00,78.69,-11.69,-22.19
2026-06-27 11:36:29.520,-0.29,0.82,9.66,0.00,-0.00,0.00,78.69,-11.69,-22.19
2026-06-27 11:36:29.533,-0.30,0.83,9.68,0.00,-0.01,0.00,78.69,-11.69,-22.19
2026-06-27 11:36:29.549,-0.29,0.83,9.70,-0.00,-0.00,-0.00,78.69,-12.06,-22.19
2026-06-27 11:36:29.562,-0.28,0.82,9.65,-0.00,-0.00,0.00,78.69,-12.06,-22.19
2026-06-27 11:36:29.579,-0.28,0.79,9.68,0.00,-0.00,-0.00,78.69,-12.06,-22.19
2026-06-27 11:36:29.591,-0.27,0.82,9.70,0.00,-0.01,-0.00,79.00,-11.25,-21.00
2026-06-27 11:36:29.609,-0.29,0.80,9.68,0.00,-0.01,-0.00,79.00,-11.25,-21.00
2026-06-27 11:36:29.621,-0.28,0.79,9.69,-0.00,-0.01,0.00,79.00,-11.25,-21.00
2026-06-27 11:36:29.633,-0.28,0.81,9.70,-0.00,-0.00,0.00,79.00,-11.25,-21.00
2026-06-27 11:36:29.649,-0.27,0.79,9.69,0.00,-0.00,0.00,79.00,-12.38,-22.56
2026-06-27 11:36:29.662,-0.24,0.78,9.65,-0.00,-0.00,0.00,79.00,-12.38,-22.56
2026-06-27 11:36:29.678,-0.26,0.79,9.65,0.00,-0.01,-0.00,79.00,-12.38,-22.56
2026-06-27 11:36:29.691,-0.25,0.78,9.68,0.00,-0.00,-0.00,79.75,-11.25,-22.56
2026-06-27 11:36:29.709,-0.27,0.79,9.68,0.00,-0.00,-0.00,79.75,-11.25,-22.56
2026-06-27 11:36:29.721,-0.28,0.82,9.70,-0.00,-0.00,0.00,79.75,-11.25,-22.56
2026-06-27 11:36:29.733,-0.24,0.84,9.68,0.00,-0.00,0.00,79.75,-11.25,-22.56
2026-06-27 11:36:29.750,-0.25,0.81,9.69,0.00,0.00,0.00,77.88,-12.38,-21.75
2026-06-27 11:36:29.768,-0.25,0.81,9.65,0.00,0.00,0.00,77.88,-12.38,-21.75
2026-06-27 11:36:29.781,-0.22,0.81,9.68,-0.00,0.00,-0.00,77.88,-12.38,-21.75
2026-06-27 11:36:29.798,-0.24,0.78,9.68,0.00,0.00,-0.00,78.25,-12.06,-21.75
2026-06-27 11:36:29.811,-0.25,0.81,9.69,0.00,0.00,-0.00,78.25,-12.06,-21.75
2026-06-27 11:36:29.828,-0.25,0.81,9.68,0.00,0.00,-0.00,78.25,-12.06,-21.75
2026-06-27 11:36:29.841,-0.27,0.84,9.68,0.00,0.00,0.00,79.00,-11.69,-21.38
2026-06-27 11:36:29.858,-0.25,0.81,9.68,0.00,0.00,0.00,79.00,-11.69,-21.38
2026-06-27 11:36:29.871,-0.27,0.80,9.66,0.00,0.01,0.00,79.00,-11.69,-21.38
2026-06-27 11:36:29.883,-0.27,0.78,9.68,0.00,0.01,-0.00,79.00,-11.69,-21.38
2026-06-27 11:36:29.899,-0.28,0.80,9.70,0.00,0.01,-0.00,78.69,-12.06,-22.50
2026-06-27 11:36:29.911,-0.29,0.82,9.68,0.00,0.01,-0.00,78.69,-12.06,-22.50
2026-06-27 11:36:29.929,-0.30,0.79,9.68,0.00,0.01,-0.00,78.69,-12.06,-22.50
2026-06-27 11:36:29.942,-0.25,0.79,9.69,0.00,0.01,-0.00,78.69,-12.06,-22.56
2026-06-27 11:36:29.959,-0.26,0.81,9.70,0.00,0.01,-0.00,78.69,-12.06,-22.56
2026-06-27 11:36:29.971,-0.30,0.78,9.65,0.00,0.01,0.00,78.69,-12.06,-22.56
2026-06-27 11:36:29.983,-0.30,0.77,9.68,0.00,0.01,0.00,78.69,-12.06,-22.56
2026-06-27 11:36:29.999,-0.32,0.78,9.72,0.00,0.01,0.00,78.25,-12.06,-22.19
2026-06-27 11:36:30.012,-0.30,0.81,9.70,0.00,0.01,0.00,78.25,-12.06,-22.19
2026-06-27 11:36:30.029,-0.31,0.79,9.68,-0.00,0.00,0.01,78.25,-12.06,-22.19
2026-06-27 11:36:30.042,-0.30,0.81,9.69,0.00,0.01,0.00,78.69,-11.69,-21.38
2026-06-27 11:36:30.059,-0.32,0.81,9.68,0.00,0.00,-0.00,78.69,-11.69,-21.38
2026-06-27 11:36:30.071,-0.34,0.80,9.68,-0.00,0.00,-0.00,78.69,-11.69,-21.38
2026-06-27 11:36:30.084,-0.33,0.83,9.71,0.00,0.00,-0.00,78.69,-11.69,-21.38
2026-06-27 11:36:30.099,-0.29,0.84,9.68,-0.00,-0.01,0.00,78.25,-12.06,-22.56
2026-06-27 11:36:30.112,-0.30,0.86,9.66,-0.00,-0.01,0.00,78.25,-12.06,-22.56
2026-06-27 11:36:30.129,-0.29,0.85,9.67,-0.00,-0.01,0.00,78.25,-12.06,-22.56
2026-06-27 11:36:30.142,-0.31,0.84,9.69,-0.00,-0.01,0.00,79.00,-11.69,-22.56
2026-06-27 11:36:30.160,-0.31,0.80,9.66,-0.00,-0.01,0.00,79.00,-11.69,-22.56
2026-06-27 11:36:30.173,-0.29,0.80,9.67,0.00,-0.01,-0.00,79.00,-11.69,-22.56
2026-06-27 11:36:30.185,-0.30,0.76,9.69,-0.00,-0.02,-0.00,79.00,-11.69,-22.56
2026-06-27 11:36:30.200,-0.31,0.77,9.70,-0.00,-0.01,0.00,78.25,-11.69,-21.75
2026-06-27 11:36:30.213,-0.29,0.76,9.67,-0.00,-0.02,0.00,78.25,-11.69,-21.75
2026-06-27 11:36:30.229,-0.28,0.79,9.66,-0.00,-0.02,0.00,78.25,-11.69,-21.75
2026-06-27 11:36:30.242,-0.27,0.78,9.70,-0.00,-0.02,0.00,78.25,-12.06,-22.19
2026-06-27 11:36:30.259,-0.28,0.80,9.69,0.00,-0.02,0.00,78.25,-12.06,-22.19
2026-06-27 11:36:30.272,-0.27,0.81,9.68,-0.00,-0.02,0.00,78.25,-12.06,-22.19
2026-06-27 11:36:30.285,-0.27,0.80,9.68,-0.00,-0.02,0.00,78.25,-12.06,-22.19
2026-06-27 11:36:30.300,-0.27,0.82,9.69,-0.00,-0.02,0.00,78.25,-12.06,-21.00
2026-06-27 11:36:30.313,-0.28,0.81,9.65,-0.00,-0.02,0.00,78.25,-12.06,-21.00
2026-06-27 11:36:30.330,-0.25,0.82,9.69,-0.00,-0.02,0.00,78.25,-12.06,-21.00
2026-06-27 11:36:30.342,-0.27,0.83,9.69,-0.00,-0.02,0.00,78.25,-11.69,-22.56
2026-06-27 11:36:30.360,-0.27,0.80,9.69,-0.00,-0.02,-0.00,78.25,-11.69,-22.56
2026-06-27 11:36:30.372,-0.27,0.82,9.69,-0.00,-0.02,0.00,78.25,-11.69,-22.56
2026-06-27 11:36:30.385,-0.27,0.79,9.68,-0.00,-0.02,-0.00,78.25,-11.69,-22.56
2026-06-27 11:36:30.400,-0.25,0.80,9.68,-0.00,-0.01,0.00,79.38,-12.38,-22.56
2026-06-27 11:36:30.412,-0.27,0.81,9.65,0.00,-0.02,0.00,79.38,-12.38,-22.56
2026-06-27 11:36:30.429,-0.24,0.80,9.70,-0.00,-0.01,0.00,79.38,-12.38,-22.56
2026-06-27 11:36:30.441,-0.24,0.82,9.68,0.00,-0.01,-0.00,78.25,-12.06,-22.19
2026-06-27 11:36:30.458,-0.25,0.83,9.70,-0.00,-0.01,0.00,78.25,-12.06,-22.19
2026-06-27 11:36:30.471,-0.28,0.78,9.68,-0.00,-0.01,0.00,78.25,-12.06,-22.19
2026-06-27 11:36:30.483,-0.24,0.78,9.69,-0.00,-0.01,0.00,78.25,-12.06,-22.19
2026-06-27 11:36:30.500,-0.25,0.77,9.69,-0.00,-0.01,0.00,77.88,-12.38,-22.56
2026-06-27 11:36:30.512,-0.24,0.79,9.64,-0.00,-0.01,0.00,77.88,-12.38,-22.56
2026-06-27 11:36:30.530,-0.24,0.81,9.65,-0.00,-0.01,0.00,77.88,-12.38,-22.56
2026-06-27 11:36:30.542,-0.24,0.81,9.69,-0.00,-0.01,-0.00,77.88,-11.25,-22.19
2026-06-27 11:36:30.560,-0.26,0.84,9.69,-0.00,-0.01,0.00,77.88,-11.25,-22.19
2026-06-27 11:36:30.572,-0.23,0.83,9.68,0.00,-0.01,0.00,77.88,-11.25,-22.19
2026-06-27 11:36:30.585,-0.23,0.82,9.68,-0.00,-0.01,0.00,77.88,-11.25,-22.19
2026-06-27 11:36:30.601,-0.22,0.81,9.69,0.00,-0.01,0.00,78.25,-11.69,-21.75
2026-06-27 11:36:30.613,-0.23,0.79,9.69,0.00,-0.01,0.00,78.25,-11.69,-21.75
2026-06-27 11:36:30.630,-0.24,0.79,9.70,-0.00,-0.00,-0.00,78.25,-11.69,-21.75
2026-06-27 11:36:30.642,-0.23,0.81,9.70,0.00,-0.01,-0.00,79.38,-11.25,-23.00
2026-06-27 11:36:30.659,-0.22,0.82,9.68,-0.00,-0.01,-0.00,79.38,-11.25,-23.00
2026-06-27 11:36:30.672,-0.23,0.82,9.66,-0.00,-0.00,0.00,79.38,-11.25,-23.00
2026-06-27 11:36:30.685,-0.24,0.82,9.68,0.00,-0.01,0.00,79.38,-11.25,-23.00
2026-06-27 11:36:30.701,-0.20,0.82,9.67,-0.00,0.00,-0.00,78.25,-12.06,-21.38
2026-06-27 11:36:30.713,-0.20,0.81,9.69,-0.00,-0.00,0.00,78.25,-12.06,-21.38
2026-06-27 11:36:30.730,-0.20,0.82,9.71,0.00,0.00,-0.00,78.25,-12.06,-21.38
2026-06-27 11:36:30.742,-0.22,0.81,9.67,0.00,0.00,0.00,78.25,-12.06,-24.19
2026-06-27 11:36:30.760,-0.22,0.82,9.71,-0.00,0.00,-0.00,78.25,-12.06,-24.19
2026-06-27 11:36:30.773,-0.22,0.81,9.68,-0.00,0.00,0.00,78.25,-12.06,-24.19
2026-06-27 11:36:30.786,-0.22,0.83,9.69,-0.00,0.00,0.00,78.25,-12.06,-24.19
2026-06-27 11:36:30.801,-0.22,0.81,9.68,0.00,0.01,0.00,78.69,-12.38,-23.00
2026-06-27 11:36:30.813,-0.25,0.81,9.65,0.00,0.01,-0.00,78.69,-12.38,-23.00
2026-06-27 11:36:30.831,-0.23,0.79,9.66,0.00,0.01,-0.00,78.69,-12.38,-23.00
2026-06-27 11:36:30.843,-0.26,0.77,9.68,0.00,0.01,-0.00,78.69,-12.06,-21.75
2026-06-27 11:36:30.860,-0.27,0.79,9.69,0.00,0.01,0.00,78.69,-12.06,-21.75
2026-06-27 11:36:30.873,-0.26,0.78,9.71,0.00,0.01,0.00,78.69,-12.06,-21.75
2026-06-27 11:36:30.885,-0.26,0.77,9.70,0.00,0.01,0.00,78.69,-12.06,-21.75
2026-06-27 11:36:30.901,-0.28,0.76,9.68,0.00,0.01,0.00,77.88,-12.38,-22.56
2026-06-27 11:36:30.914,-0.27,0.78,9.71,0.00,0.01,0.00,77.88,-12.38,-22.56
2026-06-27 11:36:30.931,-0.27,0.77,9.68,0.00,0.01,0.00,77.88,-12.38,-22.56
2026-06-27 11:36:30.943,-0.28,0.79,9.68,0.00,0.01,-0.00,78.69,-12.06,-21.75
2026-06-27 11:36:30.960,-0.30,0.79,9.68,0.00,0.01,-0.00,78.69,-12.06,-21.75
2026-06-27 11:36:30.973,-0.28,0.82,9.68,0.00,0.01,0.00,78.69,-12.06,-21.75
2026-06-27 11:36:30.985,-0.26,0.83,9.67,0.00,0.01,0.00,78.69,-12.06,-21.75
2026-06-27 11:36:31.003,-0.26,0.83,9.68,0.00,0.00,0.00,79.00,-12.75,-21.75
2026-06-27 11:36:31.016,-0.25,0.83,9.66,0.00,0.00,0.00,79.00,-12.75,-21.75
2026-06-27 11:36:31.032,-0.27,0.83,9.69,0.00,0.01,-0.00,79.00,-12.75,-21.75
2026-06-27 11:36:31.044,-0.29,0.85,9.68,0.00,0.01,-0.00,77.88,-12.38,-22.56
2026-06-27 11:36:31.061,-0.29,0.85,9.66,-0.00,0.01,-0.00,77.88,-12.38,-22.56
2026-06-27 11:36:31.073,-0.28,0.88,9.67,0.00,0.00,0.00,77.88,-12.38,-22.56
2026-06-27 11:36:31.085,-0.27,0.85,9.69,0.00,0.01,0.00,77.88,-12.38,-22.56
2026-06-27 11:36:31.101,-0.25,0.84,9.68,0.00,0.00,0.00,79.00,-12.06,-21.75
2026-06-27 11:36:31.114,-0.28,0.82,9.69,0.00,0.01,0.00,79.00,-12.06,-21.75
2026-06-27 11:36:31.132,-0.27,0.80,9.68,0.00,0.01,0.00,79.00,-12.06,-21.75
2026-06-27 11:36:31.144,-0.29,0.77,9.69,0.00,0.01,-0.00,79.75,-11.69,-21.75
2026-06-27 11:36:31.162,-0.30,0.77,9.70,0.00,0.01,-0.00,79.75,-11.69,-21.75
2026-06-27 11:36:31.174,-0.30,0.78,9.70,0.00,0.00,0.00,79.75,-11.69,-21.75
2026-06-27 11:36:31.186,-0.29,0.78,9.69,0.00,0.01,0.00,79.75,-11.69,-21.75
2026-06-27 11:36:31.202,-0.29,0.78,9.67,0.00,0.01,0.00,79.00,-11.69,-20.50
2026-06-27 11:36:31.214,-0.29,0.78,9.66,0.00,0.01,0.00,79.00,-11.69,-20.50
2026-06-27 11:36:31.231,-0.30,0.77,9.69,0.00,0.00,0.00,79.00,-11.69,-20.50
2026-06-27 11:36:31.244,-0.30,0.75,9.70,0.00,0.01,-0.00,79.00,-12.06,-22.56
2026-06-27 11:36:31.261,-0.28,0.76,9.70,0.00,0.00,-0.00,79.00,-12.06,-22.56
2026-06-27 11:36:31.274,-0.31,0.79,9.66,0.00,0.01,-0.00,79.00,-12.06,-22.56
2026-06-27 11:36:31.286,-0.31,0.78,9.67,0.00,0.00,0.00,79.00,-12.06,-22.56
2026-06-27 11:36:31.302,-0.34,0.82,9.68,0.00,-0.00,0.00,78.69,-11.69,-23.00
2026-06-27 11:36:31.314,-0.33,0.82,9.66,0.00,-0.00,0.00,78.69,-11.69,-23.00
2026-06-27 11:36:31.331,-0.31,0.82,9.68,-0.00,-0.00,0.00,78.69,-11.69,-23.00
2026-06-27 11:36:31.344,-0.28,0.84,9.68,-0.00,-0.00,0.00,78.25,-12.06,-21.75
2026-06-27 11:36:31.358,-0.29,0.85,9.68,0.00,-0.01,-0.00,78.25,-12.06,-21.75
2026-06-27 11:36:31.372,-0.28,0.84,9.68,0.00,-0.01,-0.00,78.25,-12.06,-21.75
2026-06-27 11:36:31.384,-0.30,0.87,9.66,0.00,-0.01,-0.00,78.25,-12.06,-21.75
2026-06-27 11:36:31.401,-0.30,0.88,9.69,-0.00,-0.00,-0.00,79.00,-11.69,-21.75
2026-06-27 11:36:31.414,-0.28,0.87,9.67,-0.00,-0.00,0.00,79.00,-11.69,-21.75
2026-06-27 11:36:31.431,-0.28,0.84,9.69,-0.00,-0.01,0.00,79.00,-11.69,-21.75
2026-06-27 11:36:31.444,-0.28,0.85,9.67,-0.00,-0.01,0.00,78.69,-12.06,-22.56
2026-06-27 11:36:31.459,-0.28,0.84,9.69,0.00,-0.01,0.00,78.69,-12.06,-22.56
2026-06-27 11:36:31.472,-0.29,0.84,9.68,0.00,-0.01,0.00,78.69,-12.06,-22.56
2026-06-27 11:36:31.484,-0.32,0.84,9.68,-0.00,-0.01,-0.00,78.69,-12.06,-22.56
2026-06-27 11:36:31.501,-0.27,0.81,9.69,-0.00,-0.01,0.00,79.75,-11.69,-21.38
2026-06-27 11:36:31.514,-0.29,0.80,9.66,-0.00,-0.01,-0.00,79.75,-11.69,-21.38
2026-06-27 11:36:31.530,-0.29,0.77,9.70,-0.00,-0.01,-0.00,79.75,-11.69,-21.38
2026-06-27 11:36:31.546,-0.29,0.74,9.69,-0.00,-0.00,-0.00,79.00,-12.38,-21.75
2026-06-27 11:36:31.563,-0.31,0.72,9.68,-0.00,-0.01,0.00,79.00,-12.38,-21.75
2026-06-27 11:36:31.576,-0.33,0.71,9.68,-0.00,-0.01,0.00,79.00,-12.38,-21.75
2026-06-27 11:36:31.588,-0.29,0.71,9.67,-0.00,-0.01,0.00,79.00,-12.38,-21.75
2026-06-27 11:36:31.602,-0.29,0.70,9.68,-0.00,-0.00,0.00,78.69,-12.38,-21.75
2026-06-27 11:36:31.614,-0.29,0.76,9.67,-0.00,-0.00,0.00,78.69,-12.38,-21.75
2026-06-27 11:36:31.632,-0.30,0.78,9.69,-0.00,-0.00,-0.00,78.69,-12.38,-21.75
2026-06-27 11:36:31.644,-0.29,0.82,9.68,0.00,-0.00,-0.00,78.25,-12.38,-21.38
2026-06-27 11:36:31.657,-0.30,0.83,9.69,-0.00,-0.01,-0.00,78.25,-12.38,-21.38
2026-06-27 11:36:31.673,-0.29,0.85,9.68,-0.00,-0.00,0.00,78.25,-12.38,-21.38
2026-06-27 11:36:31.685,-0.29,0.86,9.66,0.00,-0.00,0.00,78.25,-12.38,-21.38
2026-06-27 11:36:31.702,-0.30,0.84,9.69,0.00,-0.00,0.00,79.38,-11.69,-21.38
2026-06-27 11:36:31.714,-0.29,0.86,9.66,-0.00,-0.01,0.00,79.38,-11.69,-21.38
2026-06-27 11:36:31.726,-0.29,0.85,9.67,0.00,-0.01,0.00,79.38,-11.69,-21.38
2026-06-27 11:36:31.739,-0.29,0.88,9.70,0.00,-0.01,-0.00,79.38,-11.69,-21.38
2026-06-27 11:36:31.753,-0.29,0.89,9.67,0.00,-0.01,0.00,78.69,-11.69,-21.75
2026-06-27 11:36:31.765,-0.27,0.87,9.67,0.00,-0.01,-0.00,78.69,-11.69,-21.75
2026-06-27 11:36:31.782,-0.28,0.86,9.69,0.00,-0.01,0.00,78.69,-11.69,-21.75
2026-06-27 11:36:31.795,-0.28,0.85,9.68,-0.00,-0.01,0.00,79.38,-11.69,-21.00
2026-06-27 11:36:31.812,-0.28,0.78,9.68,0.00,-0.00,-0.00,79.38,-11.69,-21.00
2026-06-27 11:36:31.825,-0.30,0.73,9.67,0.00,-0.01,0.00,79.38,-11.69,-21.00
2026-06-27 11:36:31.837,-0.34,0.76,9.71,0.00,-0.00,0.00,79.38,-11.69,-21.00
2026-06-27 11:36:31.853,-0.33,0.77,9.68,0.00,-0.00,0.00,77.88,-12.06,-21.75
2026-06-27 11:36:31.865,-0.32,0.77,9.68,0.00,-0.01,0.00,77.88,-12.06,-21.75
2026-06-27 11:36:31.881,-0.30,0.75,9.69,-0.00,-0.01,0.00,77.88,-12.06,-21.75
2026-06-27 11:36:31.894,-0.28,0.76,9.74,0.00,-0.00,-0.00,78.69,-10.88,-22.19
2026-06-27 11:36:31.906,-0.32,0.78,9.70,-0.00,-0.00,-0.00,78.69,-10.88,-22.19
2026-06-27 11:36:31.923,-0.33,0.80,9.67,-0.00,-0.01,-0.00,78.69,-10.88,-22.19
2026-06-27 11:36:31.936,-0.29,0.84,9.67,0.00,-0.01,-0.00,78.69,-10.88,-22.19
2026-06-27 11:36:31.951,-0.32,0.85,9.69,-0.00,-0.01,0.00,79.38,-11.25,-21.00
2026-06-27 11:36:31.964,-0.30,0.87,9.68,0.00,-0.01,0.00,79.38,-11.25,-21.00
2026-06-27 11:36:31.976,-0.29,0.86,9.65,0.00,-0.01,0.00,79.38,-11.25,-21.00
2026-06-27 11:36:31.989,-0.30,0.82,9.67,-0.00,-0.01,0.00,79.38,-11.25,-21.00
2026-06-27 11:36:32.004,-0.31,0.84,9.68,-0.00,-0.02,0.00,79.00,-11.69,-23.00
2026-06-27 11:36:32.016,-0.28,0.80,9.66,0.00,-0.02,-0.00,79.00,-11.69,-23.00
2026-06-27 11:36:32.033,-0.30,0.80,9.70,0.00,-0.02,0.00,79.00,-11.69,-23.00
2026-06-27 11:36:32.045,-0.30,0.79,9.69,0.00,-0.02,-0.00,78.69,-11.25,-21.38
2026-06-27 11:36:32.060,-0.29,0.79,9.68,-0.00,-0.02,-0.00,78.69,-11.25,-21.38
2026-06-27 11:36:32.074,-0.31,0.81,9.68,-0.00,-0.02,0.00,78.69,-11.25,-21.38
2026-06-27 11:36:32.087,-0.23,0.80,9.69,-0.00,-0.02,0.00,78.69,-11.25,-21.38
2026-06-27 11:36:32.099,-0.26,0.79,9.70,-0.00,-0.02,0.00,79.00,-10.88,-22.19
2026-06-27 11:36:32.113,-0.27,0.79,9.68,-0.00,-0.02,0.00,79.00,-10.88,-22.19
2026-06-27 11:36:32.126,-0.26,0.78,9.68,-0.00,-0.02,0.00,79.00,-10.88,-22.19
2026-06-27 11:36:32.139,-0.26,0.78,9.67,-0.00,-0.02,0.00,79.00,-10.88,-22.19
2026-06-27 11:36:32.154,-0.26,0.78,9.66,-0.00,-0.02,0.00,78.25,-11.25,-21.38
2026-06-27 11:36:32.166,-0.22,0.79,9.64,-0.00,-0.02,0.00,78.25,-11.25,-21.38
2026-06-27 11:36:32.183,-0.24,0.79,9.66,-0.00,-0.02,0.00,78.25,-11.25,-21.38
2026-06-27 11:36:32.195,-0.19,0.76,9.68,0.00,-0.02,-0.00,78.69,-11.25,-21.75
2026-06-27 11:36:32.207,-0.21,0.77,9.69,-0.00,-0.02,0.00,78.69,-11.25,-21.75
2026-06-27 11:36:32.224,-0.21,0.77,9.64,-0.00,-0.02,0.00,78.69,-11.25,-21.75
2026-06-27 11:36:32.237,-0.21,0.80,9.67,-0.00,-0.01,0.00,78.69,-11.25,-21.75
2026-06-27 11:36:32.254,-0.20,0.79,9.72,-0.00,-0.01,0.00,77.88,-11.69,-22.56
2026-06-27 11:36:32.266,-0.21,0.82,9.66,-0.00,-0.01,0.00,77.88,-11.69,-22.56
2026-06-27 11:36:32.282,-0.21,0.83,9.67,-0.00,-0.01,0.00,77.88,-11.69,-22.56
2026-06-27 11:36:32.294,-0.20,0.83,9.70,-0.00,-0.01,0.00,77.50,-11.69,-22.19
2026-06-27 11:36:32.307,-0.22,0.80,9.67,0.00,-0.01,0.00,77.50,-11.69,-22.19
2026-06-27 11:36:32.324,-0.21,0.83,9.65,-0.00,-0.01,0.00,77.50,-11.69,-22.19
2026-06-27 11:36:32.336,-0.22,0.84,9.69,0.00,-0.01,-0.00,77.50,-11.69,-22.19
2026-06-27 11:36:32.353,-0.23,0.83,9.70,0.00,-0.00,-0.00,77.88,-12.06,-22.56
2026-06-27 11:36:32.366,-0.23,0.82,9.67,0.00,-0.00,0.00,77.88,-12.06,-22.56
2026-06-27 11:36:32.383,-0.22,0.82,9.69,0.00,-0.01,0.00,77.88,-12.06,-22.56
2026-06-27 11:36:32.396,-0.19,0.83,9.69,0.00,-0.00,0.00,78.69,-12.06,-21.75
2026-06-27 11:36:32.412,-0.18,0.81,9.68,0.00,-0.00,-0.00,78.69,-12.06,-21.75
2026-06-27 11:36:32.425,-0.20,0.83,9.67,0.00,-0.00,-0.00,78.69,-12.06,-21.75
2026-06-27 11:36:32.438,-0.20,0.82,9.69,0.00,-0.00,0.00,78.69,-12.06,-21.75
2026-06-27 11:36:32.454,-0.20,0.82,9.70,0.00,0.00,0.00,78.25,-11.69,-22.56
2026-06-27 11:36:32.467,-0.21,0.85,9.68,0.00,0.00,-0.00,78.25,-11.69,-22.56
2026-06-27 11:36:32.484,-0.23,0.82,9.67,0.00,0.00,0.00,78.25,-11.69,-22.56
2026-06-27 11:36:32.497,-0.21,0.86,9.69,0.00,0.00,0.00,79.38,-11.69,-23.00
2026-06-27 11:36:32.514,-0.23,0.83,9.69,0.00,0.00,0.00,79.38,-11.69,-23.00
2026-06-27 11:36:32.526,-0.25,0.77,9.69,0.00,0.00,0.00,79.38,-11.69,-23.00
2026-06-27 11:36:32.538,-0.22,0.77,9.70,0.00,0.00,0.00,79.38,-11.69,-23.00
2026-06-27 11:36:32.554,-0.23,0.74,9.69,0.00,0.01,0.00,79.00,-11.69,-22.56
2026-06-27 11:36:32.567,-0.22,0.74,9.68,0.00,0.01,-0.00,79.00,-11.69,-22.56
2026-06-27 11:36:32.584,-0.24,0.73,9.69,0.00,0.00,-0.00,79.00,-11.69,-22.56
2026-06-27 11:36:32.597,-0.23,0.74,9.70,0.00,0.01,-0.00,79.00,-11.69,-22.56
2026-06-27 11:36:32.614,-0.23,0.76,9.66,-0.00,0.01,-0.00,79.00,-11.69,-22.56
2026-06-27 11:36:32.627,-0.26,0.79,9.70,0.00,0.01,0.00,79.00,-11.69,-22.56
2026-06-27 11:36:32.639,-0.23,0.80,9.68,0.00,0.01,0.00,79.00,-11.69,-22.56
2026-06-27 11:36:32.654,-0.24,0.82,9.68,0.00,0.01,0.00,77.50,-12.38,-23.38
2026-06-27 11:36:32.667,-0.24,0.81,9.68,-0.00,0.01,0.00,77.50,-12.38,-23.38
2026-06-27 11:36:32.684,-0.25,0.81,9.68,0.00,0.01,0.00,77.50,-12.38,-23.38
2026-06-27 11:36:32.697,-0.27,0.83,9.70,0.00,0.00,-0.00,78.69,-11.69,-21.75
2026-06-27 11:36:32.714,-0.27,0.82,9.69,0.00,0.00,-0.00,78.69,-11.69,-21.75
2026-06-27 11:36:32.727,-0.29,0.81,9.66,0.00,0.01,0.00,78.69,-11.69,-21.75
2026-06-27 11:36:32.739,-0.26,0.82,9.68,0.00,0.01,-0.00,78.69,-11.69,-21.75
2026-06-27 11:36:32.754,-0.25,0.85,9.69,0.00,0.00,0.00,77.88,-12.06,-21.38
2026-06-27 11:36:32.767,-0.27,0.85,9.69,0.00,0.01,-0.00,77.88,-12.06,-21.38
2026-06-27 11:36:32.785,-0.24,0.83,9.70,0.00,-0.00,0.00,77.88,-12.06,-21.38
2026-06-27 11:36:32.798,-0.26,0.85,9.68,0.00,0.00,-0.00,78.69,-12.06,-22.56
2026-06-27 11:36:32.815,-0.27,0.84,9.70,0.00,0.00,-0.00,78.69,-12.06,-22.56
2026-06-27 11:36:32.827,-0.31,0.83,9.68,-0.00,0.00,-0.00,78.69,-12.06,-22.56
2026-06-27 11:36:32.840,-0.28,0.82,9.70,0.00,-0.00,0.00,78.69,-12.06,-22.56
2026-06-27 11:36:32.855,-0.29,0.80,9.70,-0.00,0.00,0.00,78.69,-12.06,-23.00
2026-06-27 11:36:32.867,-0.30,0.79,9.66,0.00,-0.00,0.00,78.69,-12.06,-23.00
2026-06-27 11:36:32.885,-0.30,0.78,9.69,-0.00,0.00,-0.00,78.69,-12.06,-23.00
2026-06-27 11:36:32.897,-0.29,0.76,9.68,0.00,-0.00,-0.00,79.00,-11.69,-22.19
2026-06-27 11:36:32.915,-0.29,0.76,9.70,0.00,-0.00,0.00,79.00,-11.69,-22.19
2026-06-27 11:36:32.927,-0.28,0.76,9.67,-0.00,-0.01,-0.00,79.00,-11.69,-22.19
2026-06-27 11:36:32.939,-0.27,0.77,9.67,-0.00,-0.01,-0.00,79.00,-11.69,-22.19
2026-06-27 11:36:32.955,-0.27,0.80,9.71,-0.00,-0.01,0.00,79.00,-11.69,-22.56
2026-06-27 11:36:32.967,-0.26,0.81,9.68,0.00,-0.00,0.00,79.00,-11.69,-22.56
2026-06-27 11:36:32.985,-0.28,0.82,9.68,-0.00,-0.01,0.00,79.00,-11.69,-22.56
2026-06-27 11:36:32.997,-0.27,0.80,9.71,0.00,-0.01,0.00,78.69,-11.69,-22.56
2026-06-27 11:36:33.015,-0.25,0.80,9.68,-0.00,-0.01,0.00,78.69,-11.69,-22.56
2026-06-27 11:36:33.028,-0.26,0.80,9.68,-0.00,-0.01,0.00,78.69,-11.69,-22.56
2026-06-27 11:36:33.040,-0.26,0.79,9.68,-0.00,-0.01,-0.00,78.69,-11.69,-22.56
2026-06-27 11:36:33.056,-0.26,0.80,9.70,-0.00,-0.01,0.00,78.69,-12.06,-22.19
2026-06-27 11:36:33.069,-0.23,0.82,9.65,-0.00,-0.01,-0.00,78.69,-12.06,-22.19
2026-06-27 11:36:33.086,-0.23,0.80,9.68,-0.00,-0.01,0.00,78.69,-12.06,-22.19
2026-06-27 11:36:33.098,-0.21,0.79,9.68,-0.00,-0.01,-0.00,77.88,-12.06,-22.19
2026-06-27 11:36:33.115,-0.24,0.82,9.67,0.00,-0.00,-0.00,77.88,-12.06,-22.19
2026-06-27 11:36:33.128,-0.24,0.83,9.69,0.00,0.00,-0.00,77.88,-12.06,-22.19
2026-06-27 11:36:33.141,-0.23,0.82,9.69,0.00,-0.00,0.00,77.88,-12.06,-22.19
2026-06-27 11:36:33.155,-0.22,0.82,9.71,-0.00,0.00,0.00,78.25,-12.06,-22.19
2026-06-27 11:36:33.168,-0.22,0.81,9.65,0.00,0.00,0.00,78.25,-12.06,-22.19
2026-06-27 11:36:33.186,-0.24,0.79,9.67,-0.00,-0.00,0.00,78.25,-12.06,-22.19
2026-06-27 11:36:33.198,-0.26,0.81,9.71,0.00,0.00,0.00,77.88,-11.69,-22.19
2026-06-27 11:36:33.216,-0.24,0.79,9.68,0.00,-0.00,0.00,77.88,-11.69,-22.19
2026-06-27 11:36:33.228,-0.24,0.82,9.67,0.00,0.00,0.00,77.88,-11.69,-22.19
2026-06-27 11:36:33.241,-0.22,0.80,9.70,0.00,0.00,-0.00,77.88,-11.69,-22.19
2026-06-27 11:36:33.256,-0.22,0.78,9.68,-0.00,0.00,0.00,78.25,-11.69,-22.56
2026-06-27 11:36:33.268,-0.24,0.76,9.67,0.00,0.00,0.00,78.25,-11.69,-22.56
2026-06-27 11:36:33.286,-0.24,0.78,9.68,-0.00,0.00,0.00,78.25,-11.69,-22.56
2026-06-27 11:36:33.298,-0.23,0.78,9.70,0.00,0.01,0.00,78.25,-11.69,-23.00
2026-06-27 11:36:33.316,-0.25,0.77,9.69,0.00,0.01,-0.00,78.25,-11.69,-23.00
2026-06-27 11:36:33.328,-0.27,0.76,9.68,-0.00,0.01,0.00,78.25,-11.69,-23.00
2026-06-27 11:36:33.341,-0.27,0.78,9.69,0.00,0.00,-0.00,78.25,-11.69,-23.00
2026-06-27 11:36:33.356,-0.26,0.80,9.68,-0.00,0.00,0.00,77.19,-11.25,-23.38
2026-06-27 11:36:33.368,-0.29,0.80,9.68,0.00,0.01,0.00,77.19,-11.25,-23.38
2026-06-27 11:36:33.386,-0.25,0.82,9.68,0.00,0.00,0.00,77.19,-11.25,-23.38
2026-06-27 11:36:33.399,-0.27,0.81,9.68,0.00,0.01,0.00,78.69,-11.25,-22.56
2026-06-27 11:36:33.416,-0.27,0.80,9.67,0.00,0.01,-0.00,78.69,-11.25,-22.56
2026-06-27 11:36:33.429,-0.27,0.83,9.67,-0.00,0.00,0.00,78.69,-11.25,-22.56
2026-06-27 11:36:33.441,-0.27,0.83,9.70,0.00,0.00,-0.00,78.69,-11.25,-22.56
2026-06-27 11:36:33.458,-0.26,0.81,9.68,0.00,0.00,0.00,78.25,-11.69,-22.19
2026-06-27 11:36:33.476,-0.24,0.82,9.69,0.00,0.00,-0.00,78.25,-11.69,-22.19
2026-06-27 11:36:33.489,-0.28,0.83,9.69,0.00,0.00,-0.00,78.25,-11.69,-22.19
2026-06-27 11:36:33.506,-0.26,0.82,9.67,0.00,0.00,0.00,78.25,-11.69,-22.19
2026-06-27 11:36:33.518,-0.26,0.80,9.68,0.00,0.00,0.00,78.25,-11.69,-22.19
2026-06-27 11:36:33.536,-0.27,0.80,9.68,0.00,0.01,0.00,78.25,-11.69,-22.19
2026-06-27 11:36:33.549,-0.25,0.78,9.70,0.00,0.00,-0.00,79.00,-12.06,-22.56
2026-06-27 11:36:33.566,-0.27,0.79,9.68,0.00,0.00,0.00,79.00,-12.06,-22.56
2026-06-27 11:36:33.579,-0.28,0.79,9.68,0.00,0.00,-0.00,79.00,-12.06,-22.56
2026-06-27 11:36:33.592,-0.27,0.77,9.68,0.00,0.00,-0.00,79.00,-12.06,-22.56
2026-06-27 11:36:33.607,-0.27,0.79,9.67,0.00,0.00,0.00,78.25,-12.38,-21.75
2026-06-27 11:36:33.619,-0.27,0.81,9.66,-0.00,0.00,0.00,78.25,-12.38,-21.75
2026-06-27 11:36:33.636,-0.26,0.81,9.69,0.00,0.00,0.00,78.25,-12.38,-21.75
2026-06-27 11:36:33.649,-0.28,0.78,9.69,0.00,-0.00,0.00,78.69,-11.25,-21.75
2026-06-27 11:36:33.666,-0.26,0.78,9.67,-0.00,-0.00,0.00,78.69,-11.25,-21.75
2026-06-27 11:36:33.679,-0.27,0.82,9.69,-0.00,-0.00,0.00,78.69,-11.25,-21.75
2026-06-27 11:36:33.692,-0.26,0.79,9.69,-0.00,0.00,-0.00,78.69,-11.25,-21.75
2026-06-27 11:36:33.707,-0.27,0.79,9.70,-0.00,-0.01,0.00,78.69,-12.38,-22.19
2026-06-27 11:36:33.719,-0.30,0.78,9.67,-0.00,0.00,-0.00,78.69,-12.38,-22.19
2026-06-27 11:36:33.737,-0.28,0.79,9.67,-0.00,0.00,0.00,78.69,-12.38,-22.19
2026-06-27 11:36:33.750,-0.26,0.79,9.69,0.00,-0.00,0.00,77.88,-12.06,-22.56
2026-06-27 11:36:33.767,-0.29,0.80,9.67,-0.00,-0.00,0.00,77.88,-12.06,-22.56
2026-06-27 11:36:33.779,-0.28,0.83,9.68,-0.00,-0.01,0.00,77.88,-12.06,-22.56
2026-06-27 11:36:33.792,-0.27,0.81,9.67,-0.00,-0.00,0.00,77.88,-12.06,-22.56
2026-06-27 11:36:33.807,-0.26,0.81,9.71,0.00,-0.00,0.00,78.25,-12.06,-22.56
2026-06-27 11:36:33.820,-0.27,0.83,9.66,0.00,-0.00,-0.00,78.25,-12.06,-22.56
2026-06-27 11:36:33.837,-0.27,0.84,9.67,-0.00,-0.00,0.00,78.25,-12.06,-22.56
2026-06-27 11:36:33.850,-0.23,0.85,9.69,0.00,0.00,-0.00,77.88,-11.69,-21.75
2026-06-27 11:36:33.867,-0.25,0.83,9.68,0.00,-0.00,-0.00,77.88,-11.69,-21.75
2026-06-27 11:36:33.879,-0.24,0.84,9.68,-0.00,-0.00,-0.00,77.88,-11.69,-21.75
2026-06-27 11:36:33.892,-0.24,0.83,9.72,-0.00,-0.00,0.00,77.88,-11.69,-21.75
2026-06-27 11:36:33.908,-0.24,0.81,9.70,0.00,-0.00,0.00,78.69,-12.06,-21.38
2026-06-27 11:36:33.920,-0.28,0.83,9.66,-0.00,-0.00,0.00,78.69,-12.06,-21.38
2026-06-27 11:36:33.937,-0.25,0.81,9.66,0.00,-0.00,0.00,78.69,-12.06,-21.38
2026-06-27 11:36:33.950,-0.26,0.84,9.68,-0.00,-0.00,0.00,78.69,-11.69,-21.75
2026-06-27 11:36:33.967,-0.26,0.83,9.67,0.00,-0.00,0.00,78.69,-11.69,-21.75
2026-06-27 11:36:33.980,-0.26,0.81,9.68,-0.00,0.00,0.00,78.69,-11.69,-21.75
2026-06-27 11:36:33.993,-0.24,0.81,9.68,-0.00,-0.00,-0.00,78.69,-11.69,-21.75
2026-06-27 11:36:34.008,-0.27,0.80,9.69,-0.00,-0.01,0.00,78.69,-11.69,-22.19
2026-06-27 11:36:34.020,-0.26,0.77,9.66,0.00,-0.01,-0.00,78.69,-11.69,-22.19
2026-06-27 11:36:34.037,-0.25,0.78,9.71,-0.00,-0.01,0.00,78.69,-11.69,-22.19
2026-06-27 11:36:34.050,-0.25,0.78,9.70,-0.00,-0.01,0.00,77.88,-11.69,-22.19
2026-06-27 11:36:34.067,-0.25,0.78,9.71,0.00,-0.01,-0.00,77.88,-11.69,-22.19
2026-06-27 11:36:34.080,-0.26,0.80,9.66,-0.00,-0.00,-0.00,77.88,-11.69,-22.19
2026-06-27 11:36:34.093,-0.26,0.81,9.69,-0.00,-0.00,0.00,77.88,-11.69,-22.19
2026-06-27 11:36:34.108,-0.26,0.80,9.68,0.00,-0.00,0.00,79.38,-12.06,-23.00
2026-06-27 11:36:34.121,-0.26,0.82,9.68,0.00,0.00,0.00,79.38,-12.06,-23.00
2026-06-27 11:36:34.137,-0.26,0.81,9.70,0.00,-0.00,0.00,79.38,-12.06,-23.00
2026-06-27 11:36:34.150,-0.27,0.80,9.68,-0.00,-0.00,0.00,77.88,-11.25,-21.75
2026-06-27 11:36:34.167,-0.28,0.78,9.68,0.00,-0.00,0.00,77.88,-11.25,-21.75
2026-06-27 11:36:34.180,-0.27,0.78,9.70,0.00,-0.00,0.00,77.88,-11.25,-21.75
2026-06-27 11:36:34.192,-0.25,0.81,9.65,0.00,-0.00,-0.00,77.88,-11.25,-21.75
2026-06-27 11:36:34.208,-0.25,0.81,9.68,-0.00,-0.00,-0.00,77.88,-12.75,-22.19
2026-06-27 11:36:34.221,-0.25,0.83,9.68,0.00,-0.01,-0.00,77.88,-12.75,-22.19
2026-06-27 11:36:34.238,-0.26,0.83,9.68,-0.00,0.00,0.00,77.88,-12.75,-22.19
2026-06-27 11:36:34.250,-0.24,0.82,9.69,0.00,-0.00,0.00,78.69,-12.06,-23.00
2026-06-27 11:36:34.267,-0.25,0.81,9.71,0.00,-0.00,0.00,78.69,-12.06,-23.00
2026-06-27 11:36:34.280,-0.24,0.83,9.68,0.00,-0.00,0.00,78.69,-12.06,-23.00
2026-06-27 11:36:34.293,-0.23,0.82,9.67,-0.00,-0.00,0.00,78.69,-12.06,-23.00
2026-06-27 11:36:34.308,-0.24,0.79,9.67,0.00,-0.00,0.00,78.69,-11.69,-22.19
2026-06-27 11:36:34.321,-0.23,0.78,9.64,0.00,-0.00,0.00,78.69,-11.69,-22.19
2026-06-27 11:36:34.338,-0.23,0.77,9.67,0.00,0.00,0.00,78.69,-11.69,-22.19
2026-06-27 11:36:34.350,-0.25,0.75,9.69,0.00,-0.00,0.00,77.88,-11.25,-21.75
2026-06-27 11:36:34.368,-0.24,0.76,9.68,0.00,0.00,-0.00,77.88,-11.25,-21.75
2026-06-27 11:36:34.381,-0.26,0.77,9.70,-0.00,0.00,0.00,77.88,-11.25,-21.75
2026-06-27 11:36:34.393,-0.26,0.78,9.71,0.00,0.00,0.00,77.88,-11.25,-21.75
2026-06-27 11:36:34.408,-0.25,0.77,9.67,0.00,0.00,0.00,79.38,-11.25,-23.00
2026-06-27 11:36:34.421,-0.25,0.78,9.68,0.00,-0.00,0.00,79.38,-11.25,-23.00
2026-06-27 11:36:34.438,-0.26,0.77,9.69,0.00,0.00,0.00,79.38,-11.25,-23.00
2026-06-27 11:36:34.451,-0.25,0.79,9.69,0.00,0.00,0.00,78.69,-12.06,-22.19
2026-06-27 11:36:34.468,-0.27,0.80,9.66,-0.00,-0.00,-0.00,78.69,-12.06,-22.19
2026-06-27 11:36:34.481,-0.27,0.80,9.66,-0.00,0.00,0.00,78.69,-12.06,-22.19
2026-06-27 11:36:34.494,-0.24,0.78,9.70,0.00,0.00,0.00,78.69,-12.06,-22.19
2026-06-27 11:36:34.509,-0.27,0.79,9.69,0.00,-0.00,0.00,78.25,-12.75,-22.19
2026-06-27 11:36:34.522,-0.24,0.81,9.70,0.00,-0.00,0.00,78.25,-12.75,-22.19
2026-06-27 11:36:34.539,-0.27,0.81,9.67,0.00,-0.00,0.00,78.25,-12.75,-22.19
2026-06-27 11:36:34.551,-0.26,0.84,9.67,0.00,-0.00,-0.00,78.69,-12.06,-22.56
2026-06-27 11:36:34.568,-0.21,0.84,9.67,0.00,0.00,-0.00,78.69,-12.06,-22.56
2026-06-27 11:36:34.581,-0.24,0.88,9.69,-0.00,-0.00,-0.00,78.69,-12.06,-22.56
2026-06-27 11:36:34.594,-0.22,0.88,9.69,0.00,-0.00,-0.00,78.69,-12.06,-22.56
2026-06-27 11:36:34.614,-0.20,0.88,9.70,0.00,-0.00,-0.00,77.50,-12.38,-23.00
2026-06-27 11:36:34.657,-0.20,0.82,9.70,0.00,0.00,0.00,78.25,-11.69,-22.50
2026-06-27 11:36:34.691,-0.22,0.80,9.68,0.00,0.00,0.00,78.25,-11.69,-22.50
2026-06-27 11:36:34.710,-0.23,0.78,9.69,0.00,0.00,-0.00,78.69,-12.06,-21.38
2026-06-27 11:36:34.735,-0.24,0.77,9.69,0.00,0.00,-0.00,78.69,-12.06,-21.38
2026-06-27 11:36:34.759,-0.23,0.76,9.69,0.00,0.00,0.00,77.88,-12.06,-21.75
2026-06-27 11:36:34.779,-0.23,0.77,9.67,0.00,0.00,-0.00,77.88,-12.06,-21.75
2026-06-27 11:36:34.801,-0.25,0.77,9.68,0.00,0.00,0.00,78.69,-12.06,-22.56
2026-06-27 11:36:34.821,-0.26,0.78,9.68,0.00,0.01,0.00,78.69,-12.06,-22.56
2026-06-27 11:36:34.843,-0.26,0.77,9.66,0.00,0.00,0.00,78.69,-12.06,-22.56
2026-06-27 11:36:34.862,-0.25,0.81,9.71,0.00,0.01,-0.00,78.25,-11.69,-21.38
2026-06-27 11:36:34.885,-0.27,0.81,9.68,0.00,0.00,0.00,78.25,-11.69,-21.38
2026-06-27 11:36:34.901,-0.24,0.82,9.70,0.00,0.00,0.00,78.69,-12.06,-21.75
2026-06-27 11:36:34.922,-0.28,0.81,9.69,0.00,0.00,-0.00,78.69,-12.06,-21.75
2026-06-27 11:36:34.940,-0.23,0.84,9.69,0.00,0.00,0.00,78.69,-12.06,-21.75
2026-06-27 11:36:34.955,-0.27,0.85,9.71,0.00,0.00,0.00,78.25,-11.69,-23.00
2026-06-27 11:36:34.970,-0.24,0.81,9.67,-0.00,0.00,0.00,78.25,-11.69,-23.00
2026-06-27 11:36:34.990,-0.24,0.81,9.66,0.00,0.00,-0.00,78.25,-11.69,-23.00
2026-06-27 11:36:35.009,-0.23,0.81,9.68,-0.00,0.01,-0.00,79.00,-12.06,-23.00
2026-06-27 11:36:35.026,-0.22,0.81,9.68,-0.00,0.00,-0.00,79.00,-12.06,-23.00
2026-06-27 11:36:35.040,-0.22,0.79,9.68,0.00,0.00,-0.00,79.00,-12.06,-23.00
2026-06-27 11:36:35.052,-0.22,0.78,9.70,0.00,0.01,-0.00,78.69,-12.06,-21.38
2026-06-27 11:36:35.069,-0.21,0.80,9.70,0.00,0.01,0.00,78.69,-12.06,-21.38
2026-06-27 11:36:35.082,-0.21,0.78,9.68,0.00,0.01,0.00,78.69,-12.06,-21.38
2026-06-27 11:36:35.094,-0.24,0.78,9.71,0.00,0.01,0.00,78.69,-12.06,-21.38
2026-06-27 11:36:35.110,-0.23,0.80,9.70,-0.00,0.00,0.00,79.00,-12.06,-22.19
2026-06-27 11:36:35.122,-0.24,0.78,9.68,-0.00,0.00,-0.00,79.00,-12.06,-22.19
2026-06-27 11:36:35.139,-0.26,0.79,9.66,0.00,0.01,-0.00,79.00,-12.06,-22.19
2026-06-27 11:36:35.151,-0.25,0.76,9.68,-0.00,0.01,-0.00,77.88,-12.06,-21.75
2026-06-27 11:36:35.169,-0.25,0.77,9.68,0.00,0.01,-0.00,77.88,-12.06,-21.75
2026-06-27 11:36:35.181,-0.23,0.79,9.68,0.00,0.01,0.00,77.88,-12.06,-21.75
2026-06-27 11:36:35.193,-0.23,0.80,9.70,-0.00,0.01,0.00,77.88,-12.06,-21.75
2026-06-27 11:36:35.210,-0.26,0.82,9.69,0.00,0.01,0.00,77.88,-11.69,-22.19
2026-06-27 11:36:35.222,-0.25,0.83,9.67,0.00,0.01,0.00,77.88,-11.69,-22.19
2026-06-27 11:36:35.238,-0.26,0.82,9.68,0.00,0.00,0.00,77.88,-11.69,-22.19
2026-06-27 11:36:35.250,-0.27,0.77,9.68,-0.00,0.00,0.00,77.88,-12.06,-22.19
2026-06-27 11:36:35.263,-0.28,0.78,9.69,0.00,0.00,-0.00,77.88,-12.06,-22.19
2026-06-27 11:36:35.280,-0.26,0.80,9.67,0.00,0.00,-0.00,77.88,-12.06,-22.19
2026-06-27 11:36:35.293,-0.27,0.82,9.66,0.00,0.01,0.00,77.88,-12.06,-22.19
2026-06-27 11:36:35.310,-0.28,0.80,9.70,0.00,0.01,-0.00,77.50,-12.38,-21.75
2026-06-27 11:36:35.322,-0.28,0.82,9.67,-0.00,0.00,0.00,77.50,-12.38,-21.75
2026-06-27 11:36:35.340,-0.29,0.83,9.68,0.00,0.01,-0.00,77.50,-12.38,-21.75
2026-06-27 11:36:35.352,-0.27,0.81,9.69,-0.00,0.00,0.00,77.88,-12.06,-21.75
2026-06-27 11:36:35.368,-0.29,0.79,9.68,0.00,0.00,-0.00,77.88,-12.06,-21.75
2026-06-27 11:36:35.381,-0.29,0.80,9.68,-0.00,0.00,0.00,77.88,-12.06,-21.75
2026-06-27 11:36:35.393,-0.29,0.80,9.71,0.00,0.00,-0.00,77.88,-12.06,-21.75
2026-06-27 11:36:35.410,-0.29,0.80,9.71,0.00,0.00,-0.00,79.38,-12.38,-22.19
2026-06-27 11:36:35.423,-0.27,0.81,9.68,-0.00,-0.00,-0.00,79.38,-12.38,-22.19
2026-06-27 11:36:35.440,-0.27,0.83,9.68,0.00,0.00,-0.00,79.38,-12.38,-22.19
2026-06-27 11:36:35.452,-0.29,0.82,9.68,0.00,-0.00,0.00,78.25,-12.38,-22.19
2026-06-27 11:36:35.469,-0.30,0.82,9.68,-0.00,-0.01,0.00,78.25,-12.38,-22.19
2026-06-27 11:36:35.481,-0.27,0.79,9.67,-0.00,-0.00,0.00,78.25,-12.38,-22.19
2026-06-27 11:36:35.494,-0.27,0.80,9.71,0.00,-0.01,0.00,78.25,-12.38,-22.19
2026-06-27 11:36:35.510,-0.26,0.78,9.70,-0.00,-0.00,-0.00,78.69,-12.06,-21.75
2026-06-27 11:36:35.523,-0.26,0.77,9.69,0.00,-0.00,-0.00,78.69,-12.06,-21.75
2026-06-27 11:36:35.540,-0.26,0.78,9.69,0.00,-0.00,-0.00,78.69,-12.06,-21.75
2026-06-27 11:36:35.553,-0.26,0.77,9.70,0.00,-0.00,-0.00,77.88,-12.06,-22.19
2026-06-27 11:36:35.570,-0.26,0.80,9.70,-0.00,-0.00,0.00,77.88,-12.06,-22.19
2026-06-27 11:36:35.582,-0.24,0.82,9.66,0.00,-0.00,0.00,77.88,-12.06,-22.19
2026-06-27 11:36:35.595,-0.26,0.85,9.66,0.00,-0.00,0.00,77.88,-12.06,-22.19
2026-06-27 11:36:35.610,-0.27,0.85,9.69,0.00,-0.00,0.00,78.25,-12.38,-22.56
2026-06-27 11:36:35.623,-0.25,0.90,9.68,-0.00,0.00,0.00,78.25,-12.38,-22.56
2026-06-27 11:36:35.641,-0.28,0.85,9.68,0.00,0.00,0.00,78.25,-12.38,-22.56
2026-06-27 11:36:35.657,-0.29,0.84,9.68,-0.00,0.00,0.00,78.25,-12.06,-22.56
2026-06-27 11:36:35.672,-0.27,0.79,9.67,0.00,0.01,-0.00,78.25,-12.06,-22.56
2026-06-27 11:36:35.691,-0.25,0.80,9.68,-0.00,0.00,-0.00,78.25,-12.06,-22.56
2026-06-27 11:36:35.704,-0.28,0.80,9.70,0.00,0.00,-0.00,77.88,-11.25,-21.75
2026-06-27 11:36:35.722,-0.29,0.81,9.70,-0.00,0.00,0.00,77.88,-11.25,-21.75
2026-06-27 11:36:35.734,-0.23,0.79,9.69,-0.00,-0.00,0.00,77.88,-11.25,-21.75
2026-06-27 11:36:35.746,-0.27,0.77,9.69,0.00,-0.00,0.00,77.88,-11.25,-21.75
2026-06-27 11:36:35.761,-0.28,0.77,9.70,-0.00,0.00,0.00,78.25,-11.25,-21.38
2026-06-27 11:36:35.774,-0.27,0.77,9.68,-0.00,0.00,-0.00,78.25,-11.25,-21.38
2026-06-27 11:36:35.796,-0.27,0.77,9.68,0.00,0.00,-0.00,78.25,-11.25,-21.38
2026-06-27 11:36:35.812,-0.28,0.77,9.67,-0.00,-0.00,-0.00,78.69,-11.69,-22.56
2026-06-27 11:36:35.830,-0.28,0.80,9.68,-0.00,0.00,0.00,78.69,-11.69,-22.56
2026-06-27 11:36:35.846,-0.28,0.82,9.68,-0.00,0.00,0.00,78.69,-11.69,-22.56
2026-06-27 11:36:35.862,-0.27,0.82,9.69,0.00,0.00,0.00,79.00,-11.69,-22.19
2026-06-27 11:36:35.884,-0.26,0.82,9.68,-0.00,-0.00,0.00,79.00,-11.69,-22.19
2026-06-27 11:36:35.901,-0.27,0.84,9.69,0.00,-0.00,0.00,79.00,-11.69,-22.19
2026-06-27 11:36:35.914,-0.28,0.82,9.67,0.00,-0.01,-0.00,77.88,-12.75,-22.19
2026-06-27 11:36:35.931,-0.29,0.81,9.64,-0.00,-0.00,0.00,77.88,-12.75,-22.19
2026-06-27 11:36:35.945,-0.25,0.82,9.68,-0.00,-0.00,0.00,77.88,-12.75,-22.19
2026-06-27 11:36:35.962,-0.25,0.83,9.69,-0.00,-0.00,-0.00,78.69,-12.06,-21.75
2026-06-27 11:36:35.979,-0.25,0.81,9.68,-0.00,-0.00,-0.00,78.69,-12.06,-21.75
2026-06-27 11:36:36.006,-0.27,0.81,9.68,-0.00,-0.00,-0.00,78.69,-12.75,-21.75
2026-06-27 11:36:36.022,-0.27,0.78,9.69,0.00,-0.00,0.00,78.69,-12.75,-21.75
2026-06-27 11:36:36.047,-0.25,0.77,9.70,0.00,-0.00,0.00,78.69,-12.75,-21.75
2026-06-27 11:36:36.063,-0.25,0.81,9.68,0.00,-0.00,0.00,78.69,-12.75,-22.19
2026-06-27 11:36:36.082,-0.25,0.80,9.68,-0.00,-0.00,-0.00,78.69,-12.75,-22.19
2026-06-27 11:36:36.098,-0.24,0.79,9.68,-0.00,-0.00,-0.00,78.69,-12.75,-22.19
2026-06-27 11:36:36.121,-0.26,0.79,9.69,0.00,-0.00,0.00,78.69,-12.38,-21.75
2026-06-27 11:36:36.141,-0.24,0.80,9.68,-0.00,0.00,-0.00,78.69,-12.38,-21.75
2026-06-27 11:36:36.159,-0.24,0.82,9.70,-0.00,0.00,0.00,79.38,-12.38,-23.00
2026-06-27 11:36:36.188,-0.26,0.83,9.66,0.00,0.00,0.00,79.38,-12.38,-23.00
2026-06-27 11:36:36.212,-0.26,0.78,9.68,0.00,0.00,0.00,78.25,-11.25,-22.19
2026-06-27 11:36:36.229,-0.26,0.81,9.64,0.00,0.00,0.00,78.25,-11.25,-22.19
2026-06-27 11:36:36.245,-0.25,0.86,9.68,0.00,0.00,-0.00,78.25,-11.25,-22.19
2026-06-27 11:36:36.262,-0.26,0.84,9.72,0.00,0.01,-0.00,77.88,-12.38,-21.38
2026-06-27 11:36:36.277,-0.28,0.83,9.67,-0.00,0.01,0.00,77.88,-12.38,-21.38
