timestamp,accel_x,accel_y,accel_z,gyro_x,gyro_y,gyro_z,mag_x,mag_y,mag_z
2026-06-27 11:38:12.611,0.00,0.00,0.00,0.00,0.00,0.00,0.00,0.00,0.00
2026-06-27 11:38:12.629,0.51,0.82,8.43,-0.00,-0.00,0.00,69.50,-13.19,-31.38
2026-06-27 11:38:12.642,0.76,0.73,9.51,-0.00,0.00,0.00,69.50,-13.19,-31.38
2026-06-27 11:38:12.661,0.70,0.72,9.63,-0.00,-0.00,0.00,69.50,-13.19,-31.38
2026-06-27 11:38:12.677,0.69,0.64,9.67,-0.00,-0.00,-0.00,69.50,-13.19,-31.38
2026-06-27 11:38:12.694,0.73,0.59,9.56,-0.00,-0.00,0.00,69.50,-13.19,-31.38
2026-06-27 11:38:12.710,0.61,0.65,9.72,-0.00,0.00,0.00,69.50,-13.19,-31.38
2026-06-27 11:38:12.723,0.63,0.64,9.62,-0.00,0.00,-0.00,70.56,-12.06,-31.75
2026-06-27 11:38:12.736,0.68,0.66,9.60,-0.00,0.00,-0.00,70.56,-12.06,-31.75
2026-06-27 11:38:12.752,0.62,0.66,9.71,-0.00,-0.00,0.00,70.56,-12.06,-31.75
2026-06-27 11:38:12.765,0.68,0.72,9.64,-0.00,0.00,0.00,69.75,-10.88,-32.56
2026-06-27 11:38:12.781,0.64,0.73,9.63,-0.00,-0.00,0.00,69.75,-10.88,-32.56
2026-06-27 11:38:12.794,0.68,0.72,9.65,-0.00,-0.00,0.00,69.75,-10.88,-32.56
2026-06-27 11:38:12.807,0.66,0.71,9.68,-0.00,0.00,0.00,69.75,-10.88,-32.56
2026-06-27 11:38:12.822,0.64,0.74,9.61,0.00,-0.00,0.00,69.75,-12.06,-32.19
2026-06-27 11:38:12.835,0.68,0.64,9.63,-0.00,-0.00,0.00,69.75,-12.06,-32.19
2026-06-27 11:38:12.852,0.67,0.64,9.64,-0.00,-0.00,0.00,69.75,-12.06,-32.19
2026-06-27 11:38:12.865,0.66,0.63,9.63,-0.00,-0.00,0.00,69.75,-12.38,-32.19
2026-06-27 11:38:12.882,0.72,0.63,9.67,-0.00,0.00,-0.00,69.75,-12.38,-32.19
2026-06-27 11:38:12.895,0.59,0.67,9.67,-0.00,-0.00,0.00,69.75,-12.38,-32.19
2026-06-27 11:38:12.907,0.61,0.65,9.67,-0.00,-0.00,0.00,69.75,-12.38,-32.19
2026-06-27 11:38:12.922,0.61,0.65,9.68,-0.00,0.00,0.00,70.56,-12.38,-31.75
2026-06-27 11:38:12.935,0.66,0.65,9.59,-0.00,-0.00,0.00,70.56,-12.38,-31.75
2026-06-27 11:38:12.953,0.69,0.69,9.64,-0.01,-0.00,0.00,70.56,-12.38,-31.75
2026-06-27 11:38:12.965,0.68,0.76,9.66,-0.00,-0.00,0.00,69.50,-11.69,-33.38
2026-06-27 11:38:12.982,0.70,0.78,9.61,-0.01,-0.00,0.00,69.50,-11.69,-33.38
2026-06-27 11:38:12.994,0.63,0.87,9.67,-0.00,-0.00,0.00,69.50,-11.69,-33.38
2026-06-27 11:38:13.007,0.64,0.89,9.68,-0.00,0.00,0.00,69.50,-11.69,-33.38
2026-06-27 11:38:13.023,0.66,0.87,9.62,-0.00,-0.00,0.00,69.00,-12.06,-31.38
2026-06-27 11:38:13.036,0.70,0.84,9.63,-0.00,-0.01,0.00,69.00,-12.06,-31.38
2026-06-27 11:38:13.053,0.68,0.77,9.66,-0.00,-0.01,0.00,69.00,-12.06,-31.38
2026-06-27 11:38:13.066,0.62,0.56,9.60,-0.00,-0.00,0.00,69.38,-11.69,-31.38
2026-06-27 11:38:13.082,0.61,0.55,9.54,-0.00,-0.00,0.00,69.38,-11.69,-31.38
2026-06-27 11:38:13.095,0.74,0.39,10.00,-0.00,0.00,-0.00,69.38,-11.69,-31.38
2026-06-27 11:38:13.107,0.74,0.44,9.59,0.00,0.00,-0.01,69.38,-11.69,-31.38
2026-06-27 11:38:13.125,0.76,0.38,9.53,-0.01,-0.00,-0.01,68.19,-12.06,-31.00
2026-06-27 11:38:13.142,0.64,0.49,9.86,0.00,0.01,-0.01,68.19,-12.06,-31.00
2026-06-27 11:38:13.155,0.72,0.74,9.68,-0.00,0.01,-0.01,68.19,-12.06,-31.00
2026-06-27 11:38:13.172,0.55,0.88,9.50,-0.00,0.01,-0.01,69.69,-11.69,-31.75
2026-06-27 11:38:13.185,0.57,0.79,9.72,-0.00,0.01,-0.00,69.69,-11.69,-31.75
2026-06-27 11:38:13.202,0.70,0.85,9.68,-0.00,0.00,-0.00,69.69,-11.69,-31.75
2026-06-27 11:38:13.214,0.37,0.89,9.70,-0.00,-0.00,-0.00,70.06,-12.06,-31.75
2026-06-27 11:38:13.229,0.61,0.86,9.72,-0.00,-0.00,-0.00,70.06,-12.06,-31.75
2026-06-27 11:38:13.243,0.74,0.77,9.65,-0.00,-0.00,0.01,70.06,-12.06,-31.75
2026-06-27 11:38:13.256,0.66,0.65,9.64,-0.00,-0.00,0.00,70.06,-12.06,-31.75
2026-06-27 11:38:13.273,0.68,0.58,9.65,-0.00,-0.00,0.00,69.00,-11.69,-31.38
2026-06-27 11:38:13.285,0.72,0.59,9.64,-0.00,0.00,-0.00,69.00,-11.69,-31.38
2026-06-27 11:38:13.303,0.69,0.61,9.66,-0.00,0.01,-0.00,69.00,-11.69,-31.38
2026-06-27 11:38:13.316,0.57,0.73,9.65,-0.00,0.00,0.00,69.38,-11.69,-31.00
2026-06-27 11:38:13.333,0.48,0.71,9.61,0.00,-0.00,0.01,69.38,-11.69,-31.00
2026-06-27 11:38:13.345,0.71,0.80,9.67,-0.00,-0.00,0.00,69.38,-11.69,-31.00
2026-06-27 11:38:13.357,0.74,0.71,9.66,0.00,-0.01,0.00,69.38,-11.69,-31.00
2026-06-27 11:38:13.373,0.66,0.78,9.68,0.00,-0.01,0.00,69.69,-11.25,-31.00
2026-06-27 11:38:13.386,0.75,0.73,9.62,-0.00,-0.00,0.00,69.69,-11.25,-31.00
2026-06-27 11:38:13.403,0.76,0.76,9.71,0.00,-0.00,0.00,69.69,-11.25,-31.00
2026-06-27 11:38:13.416,0.59,0.65,9.66,0.00,-0.00,0.00,69.69,-11.69,-30.19
2026-06-27 11:38:13.433,0.73,0.61,9.66,0.00,0.00,-0.01,69.69,-11.69,-30.19
2026-06-27 11:38:13.445,0.72,0.52,9.68,0.00,0.01,-0.00,69.69,-11.69,-30.19
2026-06-27 11:38:13.458,0.70,0.76,9.69,0.00,0.01,-0.01,69.69,-11.69,-30.19
2026-06-27 11:38:13.473,0.60,0.68,9.67,0.00,0.00,0.00,69.69,-11.69,-31.75
2026-06-27 11:38:13.486,0.27,0.68,9.68,0.00,0.00,0.01,69.69,-11.69,-31.75
2026-06-27 11:38:13.503,0.78,0.67,9.63,0.00,0.00,0.01,69.69,-11.69,-31.75
2026-06-27 11:38:13.516,0.66,0.74,9.68,-0.00,-0.01,0.01,69.38,-11.69,-30.56
2026-06-27 11:38:13.533,0.30,0.75,9.62,0.00,-0.01,0.01,69.38,-11.69,-30.56
2026-06-27 11:38:13.546,0.56,0.85,9.70,-0.00,-0.01,0.00,69.38,-11.69,-30.56
2026-06-27 11:38:13.558,0.75,0.81,9.65,-0.00,-0.01,0.00,69.38,-11.69,-30.56
2026-06-27 11:38:13.573,0.89,0.71,9.66,0.00,-0.01,0.01,69.69,-10.56,-31.75
2026-06-27 11:38:13.587,0.80,0.77,9.63,0.00,-0.00,0.01,69.69,-10.56,-31.75
2026-06-27 11:38:13.617,0.63,0.75,9.65,-0.00,-0.00,0.01,69.69,-10.88,-30.56
2026-06-27 11:38:13.633,0.73,0.72,9.67,0.00,-0.00,0.00,69.69,-10.88,-30.56
2026-06-27 11:38:13.646,0.49,0.72,9.72,-0.00,-0.01,0.01,69.69,-10.88,-30.56
2026-06-27 11:38:13.658,0.62,0.67,9.59,-0.00,-0.00,0.01,69.69,-10.88,-30.56
2026-06-27 11:38:13.674,0.76,0.56,9.58,0.00,-0.00,0.01,70.06,-11.25,-31.75
2026-06-27 11:38:13.686,0.66,0.75,9.65,-0.00,-0.01,0.00,70.06,-11.25,-31.75
2026-06-27 11:38:13.703,0.56,0.71,9.57,0.00,-0.01,0.00,70.06,-11.25,-31.75
2026-06-27 11:38:13.716,0.73,0.68,9.63,0.00,0.00,-0.00,70.50,-11.69,-30.56
2026-06-27 11:38:13.733,0.71,0.73,9.65,0.00,-0.00,0.00,70.50,-11.69,-30.56
2026-06-27 11:38:13.745,0.64,0.74,9.62,0.00,-0.01,0.01,70.50,-11.69,-30.56
2026-06-27 11:38:13.758,0.77,0.74,9.63,0.00,-0.00,0.01,70.50,-11.69,-30.56
2026-06-27 11:38:13.774,0.71,0.82,9.66,0.00,-0.00,0.00,68.56,-11.69,-31.00
2026-06-27 11:38:13.788,0.70,0.74,9.62,-0.00,-0.01,0.00,68.56,-11.69,-31.00
2026-06-27 11:38:13.804,0.67,0.83,9.66,0.00,-0.00,0.00,68.56,-11.69,-31.00
2026-06-27 11:38:13.816,0.63,0.72,9.68,0.00,-0.00,0.00,70.06,-11.25,-31.38
2026-06-27 11:38:13.834,0.59,0.80,9.69,0.00,-0.00,0.00,70.06,-11.25,-31.38
2026-06-27 11:38:13.846,0.57,0.70,9.63,0.00,-0.01,0.01,70.06,-11.25,-31.38
2026-06-27 11:38:13.859,0.71,0.70,9.69,0.00,-0.00,0.01,70.06,-11.25,-31.38
2026-06-27 11:38:13.874,0.73,0.64,9.61,0.00,-0.01,0.01,70.06,-12.06,-31.38
2026-06-27 11:38:13.887,0.66,0.70,9.68,0.00,-0.01,0.01,70.06,-12.06,-31.38
2026-06-27 11:38:13.904,0.57,0.65,9.63,0.00,-0.01,0.01,70.06,-12.06,-31.38
2026-06-27 11:38:13.916,0.66,0.66,9.65,-0.00,-0.01,0.00,69.38,-12.06,-31.00
2026-06-27 11:38:13.934,0.62,0.54,9.65,-0.00,-0.01,0.01,69.38,-12.06,-31.00
2026-06-27 11:38:13.946,0.76,0.59,9.66,0.00,-0.00,0.01,69.38,-12.06,-31.00
2026-06-27 11:38:13.959,0.86,0.52,9.66,0.00,0.00,0.00,69.38,-12.06,-31.00
2026-06-27 11:38:13.975,0.81,0.55,9.70,0.00,0.00,-0.01,69.38,-11.69,-31.38
2026-06-27 11:38:13.987,0.55,0.59,9.65,0.00,0.00,-0.01,69.38,-11.69,-31.38
2026-06-27 11:38:14.004,0.77,0.68,9.62,0.00,0.01,-0.01,69.38,-11.69,-31.38
2026-06-27 11:38:14.017,0.68,0.78,9.70,0.00,0.01,-0.01,69.69,-11.25,-31.75
2026-06-27 11:38:14.032,0.61,0.81,9.65,0.00,0.02,-0.01,69.69,-11.25,-31.75
2026-06-27 11:38:14.045,0.76,0.76,9.63,0.01,0.02,0.00,69.69,-11.25,-31.75
2026-06-27 11:38:14.058,0.90,0.76,9.69,0.00,0.03,-0.00,69.69,-11.25,-31.75
2026-06-27 11:38:14.071,0.65,0.73,9.69,0.00,0.03,-0.01,70.06,-12.06,-31.38
2026-06-27 11:38:14.085,0.45,0.73,9.64,0.01,0.02,-0.00,70.06,-12.06,-31.38
2026-06-27 11:38:14.098,0.60,0.75,9.63,0.00,0.03,-0.00,70.06,-12.06,-31.38
2026-06-27 11:38:14.110,0.73,0.69,9.71,0.00,0.03,0.00,70.06,-12.06,-31.38
2026-06-27 11:38:14.123,0.72,0.70,9.66,0.01,0.03,0.00,69.38,-10.88,-31.00
2026-06-27 11:38:14.136,0.37,0.71,9.63,0.00,0.02,0.00,69.38,-10.88,-31.00
2026-06-27 11:38:14.150,0.55,0.40,9.53,0.00,0.02,0.00,69.38,-10.88,-31.00
2026-06-27 11:38:14.163,1.44,0.44,9.82,-0.00,0.03,-0.00,69.38,-10.88,-31.00
2026-06-27 11:38:14.175,-0.22,0.59,9.39,0.01,0.01,-0.00,70.06,-11.25,-30.19
2026-06-27 11:38:14.188,0.95,0.68,9.51,0.01,0.03,0.00,70.06,-11.25,-30.19
2026-06-27 11:38:14.205,1.00,0.74,9.71,0.00,0.04,0.00,70.06,-11.25,-30.19
2026-06-27 11:38:14.218,0.59,0.85,9.75,0.00,0.02,0.00,70.50,-11.25,-31.00
2026-06-27 11:38:14.235,0.42,0.63,9.47,0.01,0.02,-0.00,70.50,-11.25,-31.00
2026-06-27 11:38:14.247,0.87,0.89,9.84,0.00,0.03,0.00,70.50,-11.25,-31.00
2026-06-27 11:38:14.260,0.75,0.60,9.77,0.00,0.03,0.00,70.50,-11.25,-31.00
2026-06-27 11:38:14.275,0.49,0.50,9.59,0.00,0.01,0.00,70.06,-11.25,-30.56
2026-06-27 11:38:14.288,0.37,0.69,9.63,-0.00,0.02,-0.00,70.06,-11.25,-30.56
2026-06-27 11:38:14.305,0.73,0.64,9.71,0.00,0.02,0.00,70.06,-11.25,-30.56
2026-06-27 11:38:14.317,0.63,0.54,9.54,0.00,0.03,-0.01,70.06,-12.06,-30.56
2026-06-27 11:38:14.330,0.51,0.71,9.57,0.01,0.03,-0.01,70.06,-12.06,-30.56
2026-06-27 11:38:14.345,0.57,0.92,9.68,0.00,0.04,0.00,70.06,-12.06,-30.56
2026-06-27 11:38:14.360,0.66,0.66,9.70,0.01,0.04,0.01,70.06,-12.06,-30.56
2026-06-27 11:38:14.372,0.87,0.81,9.61,0.00,0.04,0.00,70.06,-11.25,-29.75
2026-06-27 11:38:14.386,0.69,0.77,9.70,0.01,0.04,0.01,70.06,-11.25,-29.75
2026-06-27 11:38:14.398,0.78,0.78,9.81,0.01,0.06,-0.00,70.06,-11.25,-29.75
2026-06-27 11:38:14.411,0.57,0.71,9.69,0.01,0.06,-0.00,70.06,-11.25,-29.75
2026-06-27 11:38:14.425,0.65,0.68,9.62,0.01,0.06,-0.01,69.69,-10.88,-30.56
2026-06-27 11:38:14.438,0.09,0.95,10.00,0.01,0.05,0.01,69.69,-10.88,-30.56
2026-06-27 11:38:14.456,0.29,0.36,9.48,0.01,0.06,0.01,69.69,-10.88,-30.56
2026-06-27 11:38:14.470,0.54,0.79,9.93,-0.00,0.05,0.01,70.06,-11.25,-30.19
2026-06-27 11:38:14.485,0.37,0.68,9.78,0.01,0.06,-0.02,70.06,-11.25,-30.19
2026-06-27 11:38:14.498,0.60,0.67,9.62,0.01,0.07,-0.02,70.06,-11.25,-30.19
2026-06-27 11:38:14.511,0.55,0.65,9.68,0.00,0.07,-0.02,70.06,-11.25,-30.19
2026-06-27 11:38:14.524,0.50,0.92,9.79,0.01,0.06,-0.01,71.56,-10.88,-29.38
2026-06-27 11:38:14.537,0.37,0.51,9.50,0.01,0.07,0.01,71.56,-10.88,-29.38
2026-06-27 11:38:14.553,0.62,0.88,9.66,0.00,0.07,0.01,71.56,-10.88,-29.38
2026-06-27 11:38:14.566,0.58,1.08,9.82,0.01,0.06,0.01,71.56,-10.88,-29.00
2026-06-27 11:38:14.578,0.24,0.86,9.70,0.01,0.06,0.01,71.56,-10.88,-29.00
2026-06-27 11:38:14.595,0.23,0.97,9.65,0.01,0.07,-0.00,71.56,-10.88,-29.00
2026-06-27 11:38:14.608,0.48,0.95,9.69,0.01,0.06,-0.01,71.56,-10.88,-29.00
2026-06-27 11:38:14.620,0.32,0.90,9.74,0.01,0.06,-0.01,71.56,-11.25,-30.19
2026-06-27 11:38:14.636,0.18,0.66,9.71,0.00,0.06,-0.01,71.56,-11.25,-30.19
2026-06-27 11:38:14.649,0.34,0.96,9.70,0.00,0.05,0.01,71.56,-11.25,-30.19
2026-06-27 11:38:14.662,0.17,0.70,9.63,0.01,0.05,0.01,71.56,-11.25,-30.19
2026-06-27 11:38:14.674,0.43,0.53,9.65,0.01,0.05,0.00,71.56,-11.25,-29.38
2026-06-27 11:38:14.689,0.25,0.43,9.59,0.01,0.05,0.00,71.56,-11.25,-29.38
2026-06-27 11:38:14.706,0.26,0.53,9.57,0.01,0.06,-0.01,71.56,-11.25,-29.38
2026-06-27 11:38:14.718,0.55,0.37,9.73,0.01,0.07,-0.01,71.19,-10.19,-29.38
2026-06-27 11:38:14.736,0.64,0.70,9.79,0.01,0.07,-0.02,71.19,-10.19,-29.38
2026-06-27 11:38:14.748,0.52,0.65,9.54,0.01,0.08,-0.01,71.19,-10.19,-29.38
2026-06-27 11:38:14.761,0.26,0.84,9.68,0.01,0.08,-0.01,71.19,-10.19,-29.38
2026-06-27 11:38:14.773,0.42,0.88,9.76,0.01,0.09,0.00,72.69,-10.56,-28.19
2026-06-27 11:38:14.787,0.58,0.70,9.77,0.01,0.11,0.00,72.69,-10.56,-28.19
2026-06-27 11:38:14.800,0.64,0.73,9.61,0.01,0.11,0.00,72.69,-10.56,-28.19
2026-06-27 11:38:14.812,0.47,0.59,9.61,0.01,0.11,0.00,72.69,-10.56,-28.19
2026-06-27 11:38:14.825,0.48,0.84,9.75,0.01,0.12,-0.00,72.38,-10.19,-27.00
2026-06-27 11:38:14.837,0.39,0.63,9.59,0.02,0.13,-0.01,72.38,-10.19,-27.00
2026-06-27 11:38:14.849,0.35,0.69,9.64,0.01,0.13,-0.01,72.38,-10.19,-27.00
2026-06-27 11:38:14.862,0.10,0.75,9.69,0.01,0.13,-0.01,72.38,-10.19,-27.00
2026-06-27 11:38:14.874,0.06,0.66,9.67,0.02,0.14,-0.01,72.69,-10.56,-27.75
2026-06-27 11:38:14.890,0.56,0.72,9.66,0.02,0.14,-0.01,72.69,-10.56,-27.75
2026-06-27 11:38:14.906,0.36,0.70,9.63,0.02,0.14,-0.00,72.69,-10.56,-27.75
2026-06-27 11:38:14.919,-0.07,0.88,9.72,0.02,0.14,-0.01,73.50,-9.75,-26.56
2026-06-27 11:38:14.936,-0.01,0.78,9.66,0.02,0.14,-0.00,73.50,-9.75,-26.56
2026-06-27 11:38:14.949,0.16,0.80,9.65,0.02,0.14,0.00,73.50,-9.75,-26.56
2026-06-27 11:38:14.961,0.00,0.75,9.75,0.01,0.14,-0.00,73.50,-9.75,-26.56
2026-06-27 11:38:14.974,-0.08,0.81,9.73,0.02,0.14,-0.00,74.56,-9.38,-25.75
2026-06-27 11:38:14.988,0.05,0.70,9.56,0.02,0.14,-0.01,74.56,-9.38,-25.75
2026-06-27 11:38:15.004,0.00,0.81,9.74,0.02,0.14,-0.01,74.56,-9.38,-25.75
2026-06-27 11:38:15.017,-0.18,0.74,9.67,0.02,0.13,-0.00,74.56,-9.38,-25.75
2026-06-27 11:38:15.030,-0.17,0.71,9.59,0.02,0.12,0.00,74.56,-9.38,-25.75
2026-06-27 11:38:15.046,-0.29,0.81,9.67,0.01,0.12,0.00,74.56,-9.38,-25.75
2026-06-27 11:38:15.059,-0.15,0.61,9.73,0.02,0.12,0.00,74.56,-9.38,-25.75
2026-06-27 11:38:15.071,-0.22,0.60,9.63,0.02,0.11,-0.01,76.06,-9.38,-25.38
2026-06-27 11:38:15.087,-0.29,0.58,9.68,0.01,0.10,-0.00,76.06,-9.38,-25.38
2026-06-27 11:38:15.100,-0.51,0.61,9.70,0.01,0.09,0.00,76.06,-9.38,-25.38
2026-06-27 11:38:15.113,-0.20,0.63,9.70,0.01,0.09,-0.01,76.06,-9.38,-25.38
2026-06-27 11:38:15.128,-0.04,0.72,9.70,0.01,0.07,-0.01,75.69,-9.06,-24.56
2026-06-27 11:38:15.147,-0.38,0.91,9.66,0.01,0.07,-0.01,75.69,-9.06,-24.56
2026-06-27 11:38:15.159,-0.12,0.99,9.70,0.01,0.07,-0.01,75.69,-9.06,-24.56
2026-06-27 11:38:15.172,-0.16,0.98,9.65,0.01,0.06,-0.01,76.50,-9.06,-25.00
2026-06-27 11:38:15.187,-0.36,1.06,9.67,0.01,0.04,0.01,76.50,-9.06,-25.00
2026-06-27 11:38:15.200,-0.45,0.98,9.71,0.01,0.04,0.01,76.50,-9.06,-25.00
2026-06-27 11:38:15.213,-0.18,0.93,9.71,0.00,0.04,0.01,76.50,-9.06,-25.00
2026-06-27 11:38:15.225,-0.14,0.88,9.66,0.01,0.03,0.01,76.88,-8.69,-23.38
2026-06-27 11:38:15.237,-0.15,0.84,9.60,0.01,0.03,-0.01,76.88,-8.69,-23.38
2026-06-27 11:38:15.250,-0.27,0.97,9.67,0.00,0.02,-0.01,76.88,-8.69,-23.38
2026-06-27 11:38:15.263,-0.36,1.03,9.70,0.01,0.03,-0.02,76.88,-8.69,-23.38
2026-06-27 11:38:15.275,-0.12,1.05,9.65,0.01,0.03,-0.01,76.06,-8.69,-24.56
2026-06-27 11:38:15.288,-0.03,1.09,9.66,0.00,0.02,-0.00,76.06,-8.69,-24.56
2026-06-27 11:38:15.300,-0.07,1.11,9.68,0.00,0.03,0.00,76.06,-8.69,-24.56
2026-06-27 11:38:15.313,-0.09,1.08,9.62,0.00,0.04,0.00,76.06,-8.69,-24.56
2026-06-27 11:38:15.325,0.18,0.93,9.68,0.01,0.04,0.01,77.50,-7.88,-23.00
2026-06-27 11:38:15.338,0.11,0.87,9.66,0.01,0.05,0.00,77.50,-7.88,-23.00
2026-06-27 11:38:15.351,-0.06,0.86,9.65,0.01,0.06,0.00,77.50,-7.88,-23.00
2026-06-27 11:38:15.364,-0.14,0.82,9.68,0.01,0.07,-0.00,77.50,-7.88,-23.00
2026-06-27 11:38:15.376,-0.05,0.83,9.70,0.01,0.08,-0.00,77.50,-8.25,-23.38
2026-06-27 11:38:15.390,0.01,0.67,9.74,0.01,0.08,-0.00,77.50,-8.25,-23.38
2026-06-27 11:38:15.407,-0.02,0.68,9.60,0.01,0.09,-0.00,77.50,-8.25,-23.38
2026-06-27 11:38:15.423,-0.04,0.77,9.71,0.01,0.10,-0.00,77.19,-8.69,-22.56
2026-06-27 11:38:15.438,-0.50,0.95,9.76,0.01,0.10,0.00,77.19,-8.69,-22.56
2026-06-27 11:38:15.450,-0.38,0.99,9.68,0.01,0.10,0.00,77.19,-8.69,-22.56
2026-06-27 11:38:15.463,-0.28,0.94,9.71,0.01,0.10,0.01,77.19,-8.69,-22.56
2026-06-27 11:38:15.477,-0.45,1.04,9.71,0.01,0.10,0.01,77.88,-9.06,-22.56
2026-06-27 11:38:15.490,-0.66,0.88,9.59,0.01,0.09,-0.00,77.88,-9.06,-22.56
2026-06-27 11:38:15.507,-0.63,0.88,9.75,0.01,0.08,-0.00,77.88,-9.06,-22.56
2026-06-27 11:38:15.522,-0.62,0.74,9.69,0.01,0.07,-0.00,78.00,-8.69,-22.19
2026-06-27 11:38:15.538,-0.50,0.75,9.68,0.01,0.06,-0.00,78.00,-8.69,-22.19
2026-06-27 11:38:15.550,-0.49,0.66,9.68,0.01,0.05,-0.00,78.00,-8.69,-22.19
2026-06-27 11:38:15.563,-0.56,0.71,9.70,0.01,0.05,-0.00,78.00,-8.69,-22.19
2026-06-27 11:38:15.576,-0.51,0.65,9.68,0.01,0.05,-0.00,78.69,-8.25,-22.19
2026-06-27 11:38:15.589,-0.50,0.72,9.72,0.01,0.04,0.00,78.69,-8.25,-22.19
2026-06-27 11:38:15.606,-0.37,0.74,9.66,0.01,0.04,-0.00,78.69,-8.25,-22.19
2026-06-27 11:38:15.621,-0.59,0.79,9.70,0.00,0.04,0.00,78.69,-8.25,-21.00
2026-06-27 11:38:15.637,-0.58,0.76,9.66,0.01,0.03,0.00,78.69,-8.25,-21.00
2026-06-27 11:38:15.650,-0.40,0.77,9.66,0.00,0.03,0.00,78.69,-8.25,-21.00
2026-06-27 11:38:15.664,-0.49,0.77,9.69,0.00,0.03,0.00,78.69,-8.25,-21.00
2026-06-27 11:38:15.678,-0.59,0.74,9.71,0.00,0.01,0.01,79.38,-8.69,-20.19
2026-06-27 11:38:15.691,-0.73,0.73,9.62,0.00,0.01,0.00,79.38,-8.69,-20.19
2026-06-27 11:38:15.708,-0.67,0.75,9.68,0.00,0.00,0.01,79.38,-8.69,-20.19
2026-06-27 11:38:15.725,-0.57,0.75,9.70,0.00,-0.00,0.00,79.75,-8.25,-21.00
2026-06-27 11:38:15.738,-0.57,0.76,9.67,0.00,-0.01,-0.00,79.75,-8.25,-21.00
2026-06-27 11:38:15.757,-0.52,0.81,9.64,-0.00,-0.01,-0.00,79.75,-8.25,-21.00
2026-06-27 11:38:15.770,-0.54,0.81,9.70,-0.00,-0.03,0.00,79.75,-8.69,-22.56
2026-06-27 11:38:15.787,-0.63,0.82,9.70,-0.00,-0.03,0.00,79.75,-8.69,-22.56
2026-06-27 11:38:15.800,-0.67,0.82,9.64,-0.00,-0.04,0.02,79.75,-8.69,-22.56
2026-06-27 11:38:15.813,-0.51,0.76,9.68,-0.00,-0.04,0.01,79.75,-8.69,-22.56
2026-06-27 11:38:15.826,-0.44,0.74,9.68,-0.00,-0.04,0.01,79.00,-9.06,-21.38
2026-06-27 11:38:15.839,-0.50,0.73,9.63,-0.01,-0.05,-0.00,79.00,-9.06,-21.38
2026-06-27 11:38:15.852,-0.48,0.78,9.66,-0.00,-0.06,-0.01,79.00,-9.06,-21.38
2026-06-27 11:38:15.865,-0.38,0.82,9.67,-0.01,-0.06,-0.01,79.00,-9.06,-21.38
2026-06-27 11:38:15.877,-0.32,0.85,9.68,-0.01,-0.06,-0.00,79.38,-9.38,-20.19
2026-06-27 11:38:15.890,-0.34,0.88,9.66,-0.01,-0.06,0.01,79.38,-9.38,-20.19
2026-06-27 11:38:15.907,-0.31,0.88,9.65,-0.01,-0.06,0.01,79.38,-9.38,-20.19
2026-06-27 11:38:15.921,-0.15,0.81,9.71,-0.01,-0.06,0.01,78.00,-9.06,-21.38
2026-06-27 11:38:15.938,-0.11,0.83,9.64,-0.01,-0.05,0.01,78.00,-9.06,-21.38
2026-06-27 11:38:15.951,-0.32,0.87,9.68,-0.01,-0.05,0.00,78.00,-9.06,-21.38
2026-06-27 11:38:15.964,-0.29,0.87,9.69,-0.00,-0.04,-0.00,78.00,-9.06,-21.38
2026-06-27 11:38:15.976,-0.15,0.81,9.70,-0.00,-0.03,0.00,78.25,-8.69,-23.00
2026-06-27 11:38:15.989,-0.24,0.85,9.66,-0.00,-0.03,0.01,78.25,-8.69,-23.00
2026-06-27 11:38:16.004,-0.21,0.83,9.70,-0.01,-0.03,0.01,78.25,-8.69,-23.00
2026-06-27 11:38:16.022,-0.15,0.83,9.70,-0.00,-0.02,0.00,78.69,-8.25,-22.19
2026-06-27 11:38:16.038,-0.07,0.84,9.68,-0.00,-0.02,0.00,78.69,-8.25,-22.19
2026-06-27 11:38:16.051,-0.24,0.79,9.67,0.00,-0.01,0.00,78.69,-8.25,-22.19
2026-06-27 11:38:16.064,-0.22,0.76,9.69,0.00,-0.00,0.00,78.69,-8.25,-22.19
2026-06-27 11:38:16.080,-0.20,0.76,9.69,0.00,0.01,0.01,78.00,-8.69,-23.00
2026-06-27 11:38:16.092,-0.34,0.71,9.64,0.00,0.00,0.01,78.00,-8.69,-23.00
2026-06-27 11:38:16.109,-0.42,0.73,9.68,-0.00,0.01,0.01,78.00,-8.69,-23.00
2026-06-27 11:38:16.128,-0.18,0.68,9.69,0.00,0.01,0.01,77.88,-8.25,-22.56
2026-06-27 11:38:16.140,-0.39,0.73,9.67,0.00,0.01,-0.00,77.88,-8.25,-22.56
2026-06-27 11:38:16.159,-0.41,0.77,9.69,0.00,0.02,-0.00,77.88,-8.25,-22.56
2026-06-27 11:38:16.171,-0.37,0.79,9.72,0.00,0.02,-0.00,78.25,-8.69,-21.75
2026-06-27 11:38:16.188,-0.42,0.77,9.68,0.00,0.01,0.00,78.25,-8.69,-21.75
2026-06-27 11:38:16.201,-0.48,0.78,9.65,0.00,0.01,0.01,78.25,-8.69,-21.75
2026-06-27 11:38:16.214,-0.42,0.75,9.68,0.00,0.01,0.01,78.25,-8.69,-21.75
2026-06-27 11:38:16.229,-0.31,0.75,9.68,0.00,0.01,0.00,79.00,-8.69,-21.75
2026-06-27 11:38:16.242,-0.36,0.75,9.65,0.00,0.00,-0.00,79.00,-8.69,-21.75
2026-06-27 11:38:16.259,-0.45,0.77,9.68,0.00,0.00,-0.01,79.00,-8.69,-21.75
2026-06-27 11:38:16.271,-0.40,0.81,9.68,0.00,0.00,-0.00,78.69,-9.06,-21.75
2026-06-27 11:38:16.288,-0.40,0.84,9.68,0.00,0.00,0.00,78.69,-9.06,-21.75
2026-06-27 11:38:16.301,-0.41,0.90,9.65,0.00,-0.01,0.01,78.69,-9.06,-21.75
2026-06-27 11:38:16.314,-0.39,0.88,9.68,0.00,-0.00,0.01,78.69,-9.06,-21.75
2026-06-27 11:38:16.330,-0.33,0.86,9.67,-0.00,-0.01,0.01,77.88,-8.69,-22.56
2026-06-27 11:38:16.342,-0.38,0.87,9.66,-0.00,-0.01,0.00,77.88,-8.69,-22.56
2026-06-27 11:38:16.359,-0.43,0.88,9.65,0.00,-0.01,-0.00,77.88,-8.69,-22.56
2026-06-27 11:38:16.372,-0.35,0.88,9.69,0.00,-0.01,-0.00,79.00,-8.69,-23.00
2026-06-27 11:38:16.389,-0.33,0.88,9.67,0.00,-0.01,0.00,79.00,-8.69,-23.00
2026-06-27 11:38:16.403,-0.31,0.87,9.68,-0.00,-0.01,0.01,79.00,-8.69,-23.00
2026-06-27 11:38:16.416,-0.32,0.88,9.70,0.00,-0.02,0.01,79.00,-8.69,-23.00
2026-06-27 11:38:16.430,-0.32,0.86,9.68,0.00,-0.02,0.01,79.00,-7.88,-22.56
2026-06-27 11:38:16.443,-0.32,0.85,9.67,0.00,-0.01,0.00,79.00,-7.88,-22.56
2026-06-27 11:38:16.459,-0.35,0.86,9.66,-0.00,-0.02,0.00,79.00,-7.88,-22.56
2026-06-27 11:38:16.471,-0.31,0.83,9.69,0.00,-0.01,0.00,78.69,-7.88,-23.00
2026-06-27 11:38:16.488,-0.28,0.81,9.68,0.00,-0.01,0.00,78.69,-7.88,-23.00
2026-06-27 11:38:16.501,-0.36,0.81,9.68,0.00,-0.01,0.01,78.69,-7.88,-23.00
2026-06-27 11:38:16.514,-0.33,0.81,9.67,-0.00,-0.01,0.01,78.69,-7.88,-23.00
2026-06-27 11:38:16.530,-0.30,0.83,9.68,-0.00,-0.01,0.01,77.50,-9.06,-22.56
2026-06-27 11:38:16.542,-0.30,0.82,9.68,0.00,-0.01,0.00,77.50,-9.06,-22.56
2026-06-27 11:38:16.559,-0.34,0.84,9.68,-0.00,-0.01,0.00,77.50,-9.06,-22.56
2026-06-27 11:38:16.571,-0.32,0.78,9.70,0.00,-0.01,0.00,78.25,-8.69,-23.38
2026-06-27 11:38:16.587,-0.28,0.82,9.67,-0.00,-0.01,0.00,78.25,-8.69,-23.38
2026-06-27 11:38:16.601,-0.29,0.82,9.67,-0.00,-0.01,0.00,78.25,-8.69,-23.38
2026-06-27 11:38:16.613,-0.34,0.83,9.72,0.00,-0.01,0.01,78.25,-8.69,-23.38
2026-06-27 11:38:16.630,-0.33,0.80,9.71,0.00,-0.00,0.01,78.69,-8.69,-22.19
2026-06-27 11:38:16.642,-0.28,0.77,9.67,0.00,-0.00,0.01,78.69,-8.69,-22.19
2026-06-27 11:38:16.657,-0.34,0.78,9.67,0.00,-0.00,0.00,78.69,-8.69,-22.19
2026-06-27 11:38:16.670,-0.32,0.77,9.68,0.00,-0.00,0.00,78.69,-8.69,-22.19
2026-06-27 11:38:16.683,-0.32,0.80,9.67,0.00,-0.00,0.00,78.69,-8.69,-22.19
2026-06-27 11:38:16.699,-0.31,0.80,9.68,0.00,-0.00,0.00,78.69,-8.69,-22.19
2026-06-27 11:38:16.712,-0.33,0.79,9.67,0.00,-0.00,0.00,78.69,-8.69,-22.19
2026-06-27 11:38:16.729,-0.31,0.83,9.68,0.00,-0.00,0.00,78.25,-8.69,-23.00
2026-06-27 11:38:16.741,-0.30,0.84,9.64,0.00,0.00,0.01,78.25,-8.69,-23.00
2026-06-27 11:38:16.755,-0.32,0.83,9.70,0.00,-0.00,0.00,78.25,-8.69,-23.00
2026-06-27 11:38:16.767,-0.33,0.82,9.68,-0.00,0.00,0.00,78.25,-8.69,-23.00
2026-06-27 11:38:16.780,-0.33,0.80,9.70,0.00,0.00,0.00,78.69,-8.25,-22.56
2026-06-27 11:38:16.793,-0.31,0.79,9.69,0.00,-0.00,0.00,78.69,-8.25,-22.56
2026-06-27 11:38:16.810,-0.33,0.77,9.68,0.00,-0.00,0.00,78.69,-8.25,-22.56
2026-06-27 11:38:16.823,-0.34,0.78,9.70,0.00,-0.00,0.00,77.88,-9.06,-23.75
2026-06-27 11:38:16.840,-0.34,0.78,9.66,0.00,-0.00,0.00,77.88,-9.06,-23.75
2026-06-27 11:38:16.853,-0.35,0.80,9.67,0.00,-0.00,0.00,77.88,-9.06,-23.75
2026-06-27 11:38:16.865,-0.33,0.80,9.69,0.00,-0.00,0.00,77.88,-9.06,-23.75
2026-06-27 11:38:16.880,-0.35,0.78,9.69,0.00,-0.01,0.00,78.69,-8.25,-22.56
2026-06-27 11:38:16.894,-0.36,0.77,9.68,0.00,-0.01,0.00,78.69,-8.25,-22.56
2026-06-27 11:38:16.911,-0.36,0.79,9.68,0.00,-0.00,0.00,78.69,-8.25,-22.56
2026-06-27 11:38:16.923,-0.31,0.78,9.68,0.00,-0.01,0.00,78.25,-8.69,-22.19
2026-06-27 11:38:16.940,-0.34,0.81,9.67,0.00,-0.01,0.00,78.25,-8.69,-22.19
2026-06-27 11:38:16.952,-0.34,0.81,9.68,0.00,-0.01,0.00,78.25,-8.69,-22.19
2026-06-27 11:38:16.965,-0.34,0.80,9.70,0.00,-0.01,0.00,78.25,-8.69,-22.19
2026-06-27 11:38:16.981,-0.33,0.79,9.70,0.00,-0.01,0.00,78.25,-8.69,-23.38
2026-06-27 11:38:16.993,-0.31,0.81,9.66,-0.00,-0.01,0.00,78.25,-8.69,-23.38
2026-06-27 11:38:17.011,-0.34,0.83,9.67,-0.00,-0.01,0.00,78.25,-8.69,-23.38
2026-06-27 11:38:17.023,-0.31,0.81,9.66,-0.00,-0.01,0.00,78.00,-9.06,-22.56
2026-06-27 11:38:17.040,-0.29,0.80,9.67,0.00,-0.01,0.00,78.00,-9.06,-22.56
2026-06-27 11:38:17.053,-0.30,0.81,9.66,-0.00,-0.01,0.00,78.00,-9.06,-22.56
2026-06-27 11:38:17.065,-0.25,0.79,9.71,-0.00,-0.01,-0.00,78.00,-9.06,-22.56
2026-06-27 11:38:17.081,-0.29,0.81,9.69,0.00,-0.00,-0.00,78.69,-8.69,-22.56
2026-06-27 11:38:17.094,-0.25,0.85,9.68,0.00,-0.00,-0.00,78.69,-8.69,-22.56
2026-06-27 11:38:17.111,-0.27,0.85,9.68,0.00,-0.00,0.00,78.69,-8.69,-22.56
2026-06-27 11:38:17.124,-0.29,0.82,9.68,0.00,0.00,0.00,78.69,-8.25,-23.00
2026-06-27 11:38:17.141,-0.25,0.79,9.64,0.00,0.00,0.00,78.69,-8.25,-23.00
2026-06-27 11:38:17.153,-0.28,0.81,9.68,0.00,0.01,0.00,78.69,-8.25,-23.00
2026-06-27 11:38:17.165,-0.31,0.80,9.67,0.00,0.01,0.00,78.69,-8.25,-23.00
2026-06-27 11:38:17.183,-0.31,0.80,9.68,-0.00,0.00,-0.00,78.69,-8.69,-23.00
2026-06-27 11:38:17.200,-0.30,0.78,9.68,0.00,0.01,-0.00,78.69,-8.69,-23.00
2026-06-27 11:38:17.213,-0.33,0.79,9.69,0.00,0.01,0.00,78.69,-8.69,-23.00
2026-06-27 11:38:17.230,-0.29,0.79,9.67,0.00,0.01,0.00,77.56,-8.25,-23.38
2026-06-27 11:38:17.242,-0.30,0.82,9.64,0.00,0.01,0.00,77.56,-8.25,-23.38
2026-06-27 11:38:17.259,-0.34,0.83,9.65,0.00,0.01,0.00,77.56,-8.25,-23.38
2026-06-27 11:38:17.272,-0.35,0.82,9.68,0.00,0.01,0.00,77.88,-8.69,-23.00
2026-06-27 11:38:17.286,-0.37,0.82,9.68,-0.00,0.01,0.00,77.88,-8.69,-23.00
2026-06-27 11:38:17.301,-0.36,0.82,9.68,0.00,0.01,0.00,77.88,-8.69,-23.00
2026-06-27 11:38:17.316,-0.34,0.82,9.68,0.00,0.01,-0.00,77.88,-8.69,-23.00
2026-06-27 11:38:17.331,-0.37,0.81,9.69,0.00,-0.00,-0.00,79.38,-8.69,-22.19
2026-06-27 11:38:17.344,-0.34,0.79,9.64,0.00,0.00,-0.00,79.38,-8.69,-22.19
2026-06-27 11:38:17.361,-0.35,0.80,9.68,0.00,0.00,-0.00,79.38,-8.69,-22.19
2026-06-27 11:38:17.374,-0.34,0.79,9.67,0.00,-0.00,0.00,78.69,-8.25,-23.38
2026-06-27 11:38:17.391,-0.33,0.81,9.69,0.00,0.00,0.00,78.69,-8.25,-23.38
2026-06-27 11:38:17.403,-0.32,0.77,9.68,0.00,-0.00,-0.00,78.69,-8.25,-23.38
2026-06-27 11:38:17.416,-0.33,0.79,9.69,0.00,-0.00,-0.00,78.69,-8.25,-23.38
2026-06-27 11:38:17.431,-0.33,0.81,9.68,0.00,-0.01,0.00,78.00,-9.06,-23.38
2026-06-27 11:38:17.444,-0.34,0.79,9.69,0.00,-0.00,0.00,78.00,-9.06,-23.38
2026-06-27 11:38:17.461,-0.32,0.80,9.70,0.00,0.00,-0.00,78.00,-9.06,-23.38
2026-06-27 11:38:17.474,-0.31,0.79,9.69,0.00,0.00,0.00,79.00,-8.25,-22.19
2026-06-27 11:38:17.491,-0.30,0.78,9.70,-0.00,-0.00,0.00,79.00,-8.25,-22.19
2026-06-27 11:38:17.504,-0.30,0.78,9.67,-0.00,-0.00,0.00,79.00,-8.25,-22.19
2026-06-27 11:38:17.516,-0.30,0.80,9.68,-0.00,-0.00,-0.00,79.00,-8.25,-22.19
2026-06-27 11:38:17.531,-0.32,0.80,9.68,-0.00,0.00,0.00,77.88,-8.69,-22.19
2026-06-27 11:38:17.544,-0.32,0.82,9.66,-0.00,0.00,-0.00,77.88,-8.69,-22.19
2026-06-27 11:38:17.562,-0.34,0.82,9.68,-0.00,0.00,0.00,77.88,-8.69,-22.19
2026-06-27 11:38:17.574,-0.31,0.84,9.69,-0.00,-0.01,0.00,78.69,-8.25,-23.00
2026-06-27 11:38:17.592,-0.29,0.80,9.68,0.00,0.00,0.00,78.69,-8.25,-23.00
2026-06-27 11:38:17.604,-0.31,0.82,9.68,0.00,-0.00,0.00,78.69,-8.25,-23.00
2026-06-27 11:38:17.617,-0.32,0.79,9.65,0.00,0.00,-0.00,78.69,-8.25,-23.00
2026-06-27 11:38:17.632,-0.30,0.79,9.69,0.00,0.00,-0.00,77.50,-8.25,-22.19
2026-06-27 11:38:17.645,-0.29,0.81,9.66,0.00,0.00,0.00,77.50,-8.25,-22.19
2026-06-27 11:38:17.662,-0.29,0.81,9.66,0.00,0.00,0.00,77.50,-8.25,-22.19
2026-06-27 11:38:17.674,-0.28,0.81,9.72,-0.00,0.00,0.00,78.00,-8.25,-22.56
2026-06-27 11:38:17.692,-0.27,0.79,9.67,0.00,0.01,0.00,78.00,-8.25,-22.56
2026-06-27 11:38:17.705,-0.29,0.79,9.68,0.00,0.00,-0.00,78.00,-8.25,-22.56
2026-06-27 11:38:17.718,-0.31,0.80,9.66,0.00,0.01,0.00,78.00,-8.25,-22.56
2026-06-27 11:38:17.732,-0.32,0.82,9.70,0.00,0.00,0.00,78.69,-9.06,-23.38
2026-06-27 11:38:17.750,-0.33,0.81,9.67,-0.00,0.00,0.00,78.69,-9.06,-23.38
2026-06-27 11:38:17.763,-0.34,0.84,9.69,0.00,0.00,0.00,78.69,-9.06,-23.38
2026-06-27 11:38:17.776,-0.30,0.84,9.70,0.00,0.00,0.00,79.00,-8.25,-22.56
2026-06-27 11:38:17.792,-0.30,0.82,9.70,0.00,0.01,0.00,79.00,-8.25,-22.56
2026-06-27 11:38:17.805,-0.34,0.80,9.65,0.00,0.00,-0.00,79.00,-8.25,-22.56
2026-06-27 11:38:17.817,-0.31,0.78,9.70,0.00,0.01,-0.00,79.00,-8.25,-22.56
2026-06-27 11:38:17.832,-0.32,0.75,9.68,0.00,0.01,-0.00,78.69,-8.69,-23.00
2026-06-27 11:38:17.845,-0.30,0.73,9.67,0.00,0.01,0.00,78.69,-8.69,-23.00
2026-06-27 11:38:17.862,-0.29,0.72,9.68,0.00,0.01,0.00,78.69,-8.69,-23.00
2026-06-27 11:38:17.875,-0.30,0.74,9.69,0.00,0.01,0.00,77.19,-8.25,-23.00
2026-06-27 11:38:17.892,-0.30,0.75,9.69,0.00,0.01,-0.00,77.19,-8.25,-23.00
2026-06-27 11:38:17.905,-0.36,0.72,9.68,0.00,0.02,0.00,77.19,-8.25,-23.00
2026-06-27 11:38:17.917,-0.39,0.77,9.70,0.00,0.01,0.00,77.19,-8.25,-23.00
2026-06-27 11:38:17.932,-0.40,0.80,9.74,-0.00,0.01,0.00,77.56,-9.06,-23.00
2026-06-27 11:38:17.945,-0.35,0.82,9.66,0.00,0.01,0.00,77.56,-9.06,-23.00
2026-06-27 11:38:17.962,-0.36,0.84,9.70,-0.00,0.01,0.00,77.56,-9.06,-23.00
2026-06-27 11:38:17.977,-0.37,0.85,9.66,0.00,0.01,0.00,78.00,-8.69,-23.00
2026-06-27 11:38:17.992,-0.37,0.84,9.68,0.00,0.01,-0.00,78.00,-8.69,-23.00
2026-06-27 11:38:18.005,-0.40,0.88,9.70,-0.00,0.01,-0.00,78.00,-8.69,-23.00
2026-06-27 11:38:18.018,-0.39,0.85,9.69,0.00,0.00,0.00,78.00,-8.69,-23.00
2026-06-27 11:38:18.033,-0.37,0.85,9.68,0.00,-0.00,0.00,79.00,-8.25,-21.75
2026-06-27 11:38:18.045,-0.35,0.87,9.60,0.00,-0.00,0.00,79.00,-8.25,-21.75
2026-06-27 11:38:18.062,-0.35,0.84,9.66,-0.00,-0.00,0.00,79.00,-8.25,-21.75
2026-06-27 11:38:18.075,-0.38,0.84,9.67,0.00,-0.01,-0.00,77.88,-7.88,-22.19
2026-06-27 11:38:18.092,-0.32,0.82,9.66,-0.00,-0.00,0.00,77.88,-7.88,-22.19
2026-06-27 11:38:18.105,-0.33,0.83,9.66,-0.00,-0.01,-0.00,77.88,-7.88,-22.19
2026-06-27 11:38:18.118,-0.37,0.84,9.67,0.00,-0.01,0.00,77.88,-7.88,-22.19
2026-06-27 11:38:18.133,-0.36,0.86,9.70,0.00,-0.01,0.00,78.25,-8.69,-22.56
2026-06-27 11:38:18.146,-0.30,0.86,9.68,-0.00,-0.01,0.00,78.25,-8.69,-22.56
2026-06-27 11:38:18.163,-0.34,0.87,9.69,-0.00,-0.01,0.00,78.25,-8.69,-22.56
2026-06-27 11:38:18.180,-0.37,0.87,9.68,-0.00,-0.01,0.00,77.50,-7.88,-21.75
2026-06-27 11:38:18.193,-0.33,0.88,9.67,-0.00,-0.01,-0.00,77.50,-7.88,-21.75
2026-06-27 11:38:18.206,-0.32,0.88,9.68,-0.00,-0.01,0.00,77.50,-7.88,-21.75
2026-06-27 11:38:18.219,-0.34,0.87,9.68,-0.00,-0.01,0.00,77.50,-7.88,-21.75
2026-06-27 11:38:18.234,-0.37,0.81,9.68,-0.00,-0.01,0.00,79.00,-8.25,-22.56
2026-06-27 11:38:18.249,-0.32,0.82,9.66,-0.00,-0.01,0.00,79.00,-8.25,-22.56
2026-06-27 11:38:18.264,-0.34,0.78,9.68,0.00,-0.01,0.00,79.00,-8.25,-22.56
2026-06-27 11:38:18.276,-0.36,0.77,9.69,0.00,-0.01,0.00,78.25,-8.69,-23.00
2026-06-27 11:38:18.293,-0.35,0.76,9.70,-0.00,-0.01,-0.00,78.25,-8.69,-23.00
2026-06-27 11:38:18.306,-0.34,0.74,9.67,-0.00,-0.01,0.00,78.25,-8.69,-23.00
2026-06-27 11:38:18.319,-0.36,0.73,9.69,-0.00,-0.02,0.00,78.25,-8.69,-23.00
2026-06-27 11:38:18.334,-0.34,0.73,9.72,-0.00,-0.01,0.00,78.69,-8.69,-23.00
2026-06-27 11:38:18.346,-0.29,0.72,9.68,-0.00,-0.01,-0.00,78.69,-8.69,-23.00
2026-06-27 11:38:18.363,-0.31,0.74,9.68,-0.00,-0.01,0.00,78.69,-8.69,-23.00
2026-06-27 11:38:18.376,-0.31,0.76,9.67,-0.00,-0.01,-0.00,78.25,-7.88,-21.38
2026-06-27 11:38:18.393,-0.29,0.77,9.68,-0.00,-0.01,-0.00,78.25,-7.88,-21.38
2026-06-27 11:38:18.406,-0.30,0.81,9.68,-0.00,-0.01,0.00,78.25,-7.88,-21.38
2026-06-27 11:38:18.419,-0.31,0.83,9.68,0.00,-0.01,0.00,78.25,-7.88,-21.38
2026-06-27 11:38:18.434,-0.32,0.81,9.71,-0.00,-0.01,0.00,78.25,-8.25,-23.00
2026-06-27 11:38:18.446,-0.28,0.86,9.74,-0.00,-0.01,0.00,78.25,-8.25,-23.00
2026-06-27 11:38:18.463,-0.28,0.78,9.69,-0.00,-0.01,0.00,78.25,-8.25,-23.00
2026-06-27 11:38:18.476,-0.30,0.82,9.73,-0.00,-0.01,0.00,78.25,-8.25,-23.00
2026-06-27 11:38:18.493,-0.30,0.80,9.70,0.00,-0.00,0.00,78.25,-8.25,-23.00
2026-06-27 11:38:18.508,-0.29,0.85,9.65,0.00,-0.00,-0.00,78.25,-8.25,-23.00
2026-06-27 11:38:18.523,-0.29,0.84,9.67,-0.00,0.00,0.00,78.25,-8.25,-23.00
2026-06-27 11:38:18.536,-0.29,0.88,9.71,0.00,0.00,-0.00,78.25,-8.25,-23.75
2026-06-27 11:38:18.553,-0.27,0.86,9.65,0.00,0.00,-0.00,78.25,-8.25,-23.75
2026-06-27 11:38:18.566,-0.28,0.90,9.69,0.00,0.00,0.00,78.25,-8.25,-23.75
2026-06-27 11:38:18.584,-0.29,0.84,9.67,0.00,0.00,0.00,77.56,-6.75,-23.00
2026-06-27 11:38:18.596,-0.29,0.87,9.70,0.00,0.01,-0.00,77.56,-6.75,-23.00
2026-06-27 11:38:18.613,-0.30,0.85,9.65,0.00,0.01,0.00,77.56,-6.75,-23.00
2026-06-27 11:38:18.626,-0.29,0.87,9.69,0.00,0.01,0.00,77.19,-8.25,-23.00
2026-06-27 11:38:18.643,-0.34,0.85,9.68,0.00,0.01,0.00,77.19,-8.25,-23.00
2026-06-27 11:38:18.656,-0.33,0.85,9.66,0.00,0.01,-0.00,77.19,-8.25,-23.00
2026-06-27 11:38:18.668,-0.35,0.84,9.69,0.00,0.01,0.00,77.19,-8.25,-23.00
2026-06-27 11:38:18.684,-0.35,0.83,9.68,-0.00,0.01,0.00,78.00,-7.88,-22.56
2026-06-27 11:38:18.697,-0.34,0.81,9.64,0.00,0.01,0.00,78.00,-7.88,-22.56
2026-06-27 11:38:18.714,-0.36,0.80,9.68,-0.00,0.01,0.00,78.00,-7.88,-22.56
2026-06-27 11:38:18.727,-0.37,0.80,9.70,-0.00,0.00,0.00,78.25,-8.69,-22.19
2026-06-27 11:38:18.744,-0.35,0.77,9.68,0.00,0.00,-0.00,78.25,-8.69,-22.19
2026-06-27 11:38:18.756,-0.39,0.75,9.67,-0.00,-0.00,0.00,78.25,-8.69,-22.19
2026-06-27 11:38:18.769,-0.39,0.77,9.71,-0.00,0.00,0.00,78.25,-8.69,-22.19
2026-06-27 11:38:18.785,-0.39,0.77,9.69,-0.00,0.00,0.00,78.25,-8.69,-23.38
2026-06-27 11:38:18.798,-0.36,0.75,9.67,0.00,-0.00,0.00,78.25,-8.69,-23.38
2026-06-27 11:38:18.815,-0.37,0.76,9.69,-0.00,-0.00,-0.00,78.25,-8.69,-23.38
2026-06-27 11:38:18.827,-0.38,0.76,9.69,-0.00,-0.00,-0.00,78.25,-8.25,-23.38
2026-06-27 11:38:18.844,-0.39,0.76,9.70,-0.00,-0.00,-0.00,78.25,-8.25,-23.38
2026-06-27 11:38:18.856,-0.35,0.77,9.71,-0.00,-0.01,0.00,78.25,-8.25,-23.38
2026-06-27 11:38:18.869,-0.33,0.76,9.68,-0.00,-0.00,0.00,78.25,-8.25,-23.38
2026-06-27 11:38:18.885,-0.37,0.75,9.70,0.00,-0.01,-0.00,78.00,-9.06,-22.19
2026-06-27 11:38:18.898,-0.34,0.79,9.67,-0.00,-0.01,0.00,78.00,-9.06,-22.19
2026-06-27 11:38:18.915,-0.33,0.79,9.67,-0.00,-0.01,-0.00,78.00,-9.06,-22.19
2026-06-27 11:38:18.927,-0.33,0.78,9.68,0.00,-0.01,0.00,78.25,-8.69,-21.75
2026-06-27 11:38:18.944,-0.33,0.81,9.67,-0.00,-0.01,-0.00,78.25,-8.69,-21.75
2026-06-27 11:38:18.957,-0.32,0.83,9.66,-0.00,-0.01,-0.00,78.25,-8.69,-21.75
2026-06-27 11:38:18.970,-0.31,0.83,9.68,-0.00,-0.01,-0.00,78.25,-8.69,-21.75
2026-06-27 11:38:18.985,-0.30,0.85,9.68,-0.00,-0.01,0.00,78.25,-8.25,-23.38
2026-06-27 11:38:18.997,-0.32,0.88,9.68,-0.00,-0.01,0.00,78.25,-8.25,-23.38
2026-06-27 11:38:19.015,-0.30,0.87,9.68,0.00,-0.01,0.00,78.25,-8.25,-23.38
2026-06-27 11:38:19.028,-0.32,0.88,9.69,-0.00,-0.01,0.00,77.88,-7.56,-23.00
2026-06-27 11:38:19.045,-0.32,0.86,9.68,-0.00,-0.01,-0.00,77.88,-7.56,-23.00
2026-06-27 11:38:19.057,-0.29,0.88,9.63,-0.00,-0.00,0.00,77.88,-7.56,-23.00
2026-06-27 11:38:19.071,-0.30,0.88,9.69,-0.00,-0.01,0.00,77.88,-7.56,-23.00
2026-06-27 11:38:19.085,-0.31,0.84,9.67,-0.00,-0.01,0.00,77.88,-8.69,-23.38
2026-06-27 11:38:19.098,-0.29,0.80,9.68,-0.00,-0.00,0.00,77.88,-8.69,-23.38
2026-06-27 11:38:19.116,-0.30,0.83,9.68,0.00,-0.01,0.00,77.88,-8.69,-23.38
2026-06-27 11:38:19.130,-0.30,0.80,9.65,0.00,-0.01,0.00,78.69,-8.25,-22.19
2026-06-27 11:38:19.145,-0.29,0.77,9.68,0.00,-0.00,0.00,78.69,-8.25,-22.19
2026-06-27 11:38:19.158,-0.30,0.74,9.67,0.00,-0.00,0.00,78.69,-8.25,-22.19
2026-06-27 11:38:19.170,-0.29,0.74,9.67,0.00,-0.00,0.00,78.69,-8.25,-22.19
2026-06-27 11:38:19.185,-0.29,0.75,9.69,0.00,0.00,-0.00,77.88,-8.69,-23.75
2026-06-27 11:38:19.198,-0.30,0.76,9.68,-0.00,0.00,0.00,77.88,-8.69,-23.75
2026-06-27 11:38:19.215,-0.29,0.75,9.67,0.00,0.00,0.00,77.88,-8.69,-23.75
2026-06-27 11:38:19.228,-0.34,0.77,9.72,-0.00,0.00,0.00,78.00,-8.25,-23.75
2026-06-27 11:38:19.245,-0.33,0.76,9.68,0.00,0.00,-0.00,78.00,-8.25,-23.75
2026-06-27 11:38:19.257,-0.33,0.81,9.69,-0.00,0.00,0.00,78.00,-8.25,-23.75
2026-06-27 11:38:19.270,-0.31,0.81,9.68,0.00,0.00,-0.00,78.00,-8.25,-23.75
2026-06-27 11:38:19.285,-0.32,0.80,9.68,-0.00,0.01,-0.00,78.25,-9.06,-23.38
2026-06-27 11:38:19.298,-0.34,0.82,9.66,-0.00,0.01,0.00,78.25,-9.06,-23.38
2026-06-27 11:38:19.315,-0.34,0.85,9.65,-0.00,0.00,-0.00,78.25,-9.06,-23.38
2026-06-27 11:38:19.328,-0.36,0.87,9.73,-0.00,0.01,0.00,77.19,-8.69,-23.38
2026-06-27 11:38:19.345,-0.34,0.86,9.67,0.00,0.00,0.00,77.19,-8.69,-23.38
2026-06-27 11:38:19.357,-0.34,0.84,9.69,0.00,0.00,0.00,77.19,-8.69,-23.38
2026-06-27 11:38:19.370,-0.36,0.83,9.68,-0.00,0.00,-0.00,77.19,-8.69,-23.38
2026-06-27 11:38:19.385,-0.36,0.81,9.70,0.00,0.00,-0.00,78.69,-8.69,-22.19
2026-06-27 11:38:19.398,-0.37,0.85,9.66,-0.00,0.00,-0.00,78.69,-8.69,-22.19
2026-06-27 11:38:19.415,-0.37,0.84,9.66,-0.00,-0.00,-0.00,78.69,-8.69,-22.19
2026-06-27 11:38:19.428,-0.37,0.86,9.70,0.00,-0.00,0.00,77.88,-8.25,-23.75
2026-06-27 11:38:19.446,-0.36,0.84,9.70,0.00,-0.00,0.00,77.88,-8.25,-23.75
2026-06-27 11:38:19.459,-0.36,0.84,9.69,0.00,-0.01,0.00,77.88,-8.25,-23.75
2026-06-27 11:38:19.471,-0.36,0.81,9.68,0.00,-0.01,-0.00,77.88,-8.25,-23.75
2026-06-27 11:38:19.486,-0.34,0.79,9.69,-0.00,-0.01,-0.00,79.38,-7.88,-23.00
2026-06-27 11:38:19.503,-0.34,0.81,9.67,-0.00,-0.01,-0.00,79.38,-7.88,-23.00
2026-06-27 11:38:19.517,-0.34,0.79,9.67,0.00,-0.01,-0.00,79.38,-7.88,-23.00
2026-06-27 11:38:19.531,-0.33,0.82,9.67,0.00,-0.01,-0.00,78.00,-8.25,-21.38
2026-06-27 11:38:19.546,-0.32,0.78,9.68,-0.00,-0.01,0.00,78.00,-8.25,-21.38
2026-06-27 11:38:19.560,-0.33,0.79,9.72,-0.00,-0.01,0.00,78.00,-8.25,-21.38
2026-06-27 11:38:19.575,-0.31,0.79,9.70,-0.00,-0.01,0.00,78.69,-8.25,-23.00
2026-06-27 11:38:19.587,-0.35,0.79,9.65,-0.00,-0.01,0.00,78.69,-8.25,-23.00
2026-06-27 11:38:19.600,-0.32,0.79,9.68,-0.00,-0.01,-0.00,78.69,-8.25,-23.00
2026-06-27 11:38:19.616,-0.31,0.80,9.67,0.00,-0.01,-0.00,78.69,-8.25,-23.00
2026-06-27 11:38:19.628,-0.33,0.78,9.68,-0.00,-0.01,0.00,78.00,-8.25,-21.75
2026-06-27 11:38:19.646,-0.34,0.79,9.69,-0.00,-0.01,-0.00,78.00,-8.25,-21.75
2026-06-27 11:38:19.659,-0.29,0.76,9.69,-0.00,-0.01,0.00,78.00,-8.25,-21.75
2026-06-27 11:38:19.671,-0.30,0.79,9.67,-0.00,-0.01,0.00,78.00,-8.25,-21.75
2026-06-27 11:38:19.686,-0.30,0.77,9.70,0.00,-0.01,0.00,77.88,-8.25,-22.56
2026-06-27 11:38:19.699,-0.30,0.81,9.66,0.00,-0.00,-0.00,77.88,-8.25,-22.56
2026-06-27 11:38:19.716,-0.30,0.79,9.70,-0.00,-0.00,0.00,77.88,-8.25,-22.56
2026-06-27 11:38:19.729,-0.29,0.81,9.68,-0.00,-0.01,0.00,77.88,-8.25,-22.19
2026-06-27 11:38:19.746,-0.30,0.82,9.67,0.00,-0.00,-0.00,77.88,-8.25,-22.19
2026-06-27 11:38:19.759,-0.29,0.81,9.68,-0.00,-0.00,0.00,77.88,-8.25,-22.19
2026-06-27 11:38:19.771,-0.28,0.84,9.66,-0.00,0.00,-0.00,77.88,-8.25,-22.19
2026-06-27 11:38:19.786,-0.29,0.84,9.69,-0.00,-0.00,-0.00,78.25,-7.88,-23.38
2026-06-27 11:38:19.799,-0.30,0.88,9.66,-0.00,-0.00,0.00,78.25,-7.88,-23.38
2026-06-27 11:38:19.816,-0.29,0.86,9.69,0.00,0.00,0.00,78.25,-7.88,-23.38
2026-06-27 11:38:19.830,-0.28,0.87,9.69,-0.00,0.00,0.00,77.50,-8.69,-23.38
2026-06-27 11:38:19.846,-0.31,0.85,9.66,0.00,0.00,-0.00,77.50,-8.69,-23.38
2026-06-27 11:38:19.859,-0.31,0.85,9.64,0.00,0.00,0.00,77.50,-8.69,-23.38
2026-06-27 11:38:19.872,-0.31,0.87,9.69,-0.00,0.00,0.00,77.50,-8.69,-23.38
2026-06-27 11:38:19.887,-0.33,0.85,9.68,0.00,0.00,0.00,78.69,-8.69,-23.00
2026-06-27 11:38:19.899,-0.33,0.85,9.67,-0.00,0.00,0.00,78.69,-8.69,-23.00
2026-06-27 11:38:19.916,-0.36,0.83,9.65,0.00,0.00,0.00,78.69,-8.69,-23.00
2026-06-27 11:38:19.929,-0.33,0.80,9.70,-0.00,0.00,0.00,78.25,-8.25,-21.75
2026-06-27 11:38:19.946,-0.38,0.81,9.66,-0.00,0.00,-0.00,78.25,-8.25,-21.75
2026-06-27 11:38:19.959,-0.35,0.78,9.69,0.00,-0.00,0.00,78.25,-8.25,-21.75
2026-06-27 11:38:19.971,-0.34,0.79,9.69,-0.00,-0.01,0.00,78.25,-8.25,-21.75
2026-06-27 11:38:19.987,-0.38,0.80,9.69,0.00,-0.00,0.00,79.00,-8.69,-22.56
2026-06-27 11:38:19.999,-0.38,0.78,9.67,-0.00,-0.01,0.00,79.00,-8.69,-22.56
2026-06-27 11:38:20.016,-0.36,0.76,9.70,0.00,-0.01,0.00,79.00,-8.69,-22.56
2026-06-27 11:38:20.035,-0.38,0.73,9.69,-0.00,-0.01,0.00,78.69,-7.88,-22.56
2026-06-27 11:38:20.047,-0.36,0.75,9.68,-0.00,-0.01,0.00,78.69,-7.88,-22.56
2026-06-27 11:38:20.061,-0.36,0.75,9.67,-0.00,-0.01,-0.00,78.69,-7.88,-22.56
2026-06-27 11:38:20.075,-0.36,0.75,9.70,0.00,-0.01,0.00,78.69,-7.88,-22.56
2026-06-27 11:38:20.088,-0.36,0.75,9.69,0.00,-0.01,-0.00,78.25,-8.25,-22.56
2026-06-27 11:38:20.101,-0.34,0.76,9.68,-0.00,-0.01,0.00,78.25,-8.25,-22.56
2026-06-27 11:38:20.117,-0.35,0.77,9.69,0.00,-0.01,-0.00,78.25,-8.25,-22.56
2026-06-27 11:38:20.129,-0.34,0.78,9.71,-0.00,-0.01,0.00,78.38,-7.88,-22.56
2026-06-27 11:38:20.146,-0.33,0.74,9.71,-0.00,-0.01,-0.00,78.38,-7.88,-22.56
2026-06-27 11:38:20.162,-0.29,0.77,9.68,0.00,-0.01,-0.00,78.38,-7.88,-22.56
2026-06-27 11:38:20.177,-0.30,0.79,9.68,-0.00,-0.01,-0.00,78.69,-8.25,-22.19
2026-06-27 11:38:20.190,-0.32,0.83,9.68,0.00,-0.01,-0.00,78.69,-8.25,-22.19
2026-06-27 11:38:20.207,-0.32,0.84,9.67,-0.00,-0.02,0.00,78.69,-8.25,-22.19
2026-06-27 11:38:20.221,-0.30,0.84,9.68,-0.00,-0.01,0.00,78.69,-8.25,-22.19
2026-06-27 11:38:20.237,-0.29,0.86,9.69,-0.00,-0.02,0.00,77.56,-7.88,-23.00
2026-06-27 11:38:20.249,-0.26,0.87,9.67,-0.00,-0.02,0.00,77.56,-7.88,-23.00
2026-06-27 11:38:20.267,-0.29,0.86,9.69,0.00,-0.02,0.00,77.56,-7.88,-23.00
2026-06-27 11:38:20.279,-0.28,0.89,9.68,0.00,-0.01,-0.00,78.00,-8.25,-23.00
2026-06-27 11:38:20.296,-0.27,0.87,9.71,0.00,-0.01,-0.00,78.00,-8.25,-23.00
2026-06-27 11:38:20.309,-0.26,0.87,9.66,0.00,-0.01,0.00,78.00,-8.25,-23.00
2026-06-27 11:38:20.321,-0.26,0.84,9.68,0.00,-0.01,0.00,78.00,-8.25,-23.00
2026-06-27 11:38:20.337,-0.24,0.85,9.69,-0.00,-0.01,0.00,78.00,-8.25,-22.56
2026-06-27 11:38:20.350,-0.26,0.83,9.68,0.00,-0.00,-0.00,78.00,-8.25,-22.56
2026-06-27 11:38:20.367,-0.29,0.81,9.67,0.00,-0.00,0.00,78.00,-8.25,-22.56
2026-06-27 11:38:20.380,-0.31,0.78,9.71,0.00,-0.00,0.00,77.88,-8.25,-23.38
2026-06-27 11:38:20.397,-0.29,0.79,9.69,0.00,0.00,-0.00,77.88,-8.25,-23.38
2026-06-27 11:38:20.409,-0.30,0.79,9.67,0.00,-0.00,0.00,77.88,-8.25,-23.38
2026-06-27 11:38:20.422,-0.29,0.78,9.68,0.00,-0.00,0.00,77.88,-8.25,-23.38
2026-06-27 11:38:20.438,-0.29,0.81,9.69,0.00,0.00,-0.00,77.88,-8.25,-23.00
2026-06-27 11:38:20.450,-0.30,0.81,9.68,0.00,0.00,-0.00,77.88,-8.25,-23.00
2026-06-27 11:38:20.468,-0.31,0.78,9.69,-0.00,0.00,0.00,77.88,-8.25,-23.00
2026-06-27 11:38:20.480,-0.29,0.78,9.69,0.00,0.00,0.00,77.50,-8.25,-22.56
2026-06-27 11:38:20.497,-0.31,0.78,9.66,0.00,0.00,-0.00,77.50,-8.25,-22.56
2026-06-27 11:38:20.509,-0.34,0.80,9.68,0.00,0.01,0.00,77.50,-8.25,-22.56
2026-06-27 11:38:20.522,-0.32,0.81,9.68,0.00,0.00,0.00,77.50,-8.25,-22.56
2026-06-27 11:38:20.538,-0.29,0.79,9.66,0.00,0.00,0.00,77.88,-8.25,-23.38
2026-06-27 11:38:20.551,-0.32,0.78,9.69,0.00,0.00,-0.00,77.88,-8.25,-23.38
2026-06-27 11:38:20.568,-0.34,0.78,9.69,0.00,0.00,0.00,77.88,-8.25,-23.38
2026-06-27 11:38:20.580,-0.33,0.78,9.69,0.00,0.00,-0.00,77.50,-8.25,-22.56
2026-06-27 11:38:20.597,-0.34,0.78,9.71,0.00,0.01,-0.00,77.50,-8.25,-22.56
2026-06-27 11:38:20.610,-0.32,0.78,9.66,0.00,0.01,-0.00,77.50,-8.25,-22.56
2026-06-27 11:38:20.622,-0.34,0.78,9.69,0.00,0.00,0.00,77.50,-8.25,-22.56
2026-06-27 11:38:20.639,-0.32,0.79,9.70,0.00,0.01,-0.00,78.25,-7.88,-23.38
2026-06-27 11:38:20.653,-0.34,0.81,9.66,0.00,0.00,-0.00,78.25,-7.88,-23.38
2026-06-27 11:38:20.668,-0.33,0.81,9.67,0.00,0.01,0.00,78.25,-7.88,-23.38
2026-06-27 11:38:20.681,-0.34,0.82,9.71,0.00,0.01,0.00,77.50,-8.25,-21.75
2026-06-27 11:38:20.698,-0.36,0.84,9.68,0.00,0.01,-0.00,77.50,-8.25,-21.75
2026-06-27 11:38:20.710,-0.35,0.85,9.69,0.00,0.00,-0.00,77.50,-8.25,-21.75
2026-06-27 11:38:20.723,-0.35,0.85,9.67,0.00,0.00,0.00,77.50,-8.25,-21.75
2026-06-27 11:38:20.739,-0.34,0.85,9.68,0.00,-0.00,-0.00,77.88,-8.25,-22.19
2026-06-27 11:38:20.751,-0.36,0.84,9.68,0.00,-0.00,0.00,77.88,-8.25,-22.19
2026-06-27 11:38:20.768,-0.35,0.82,9.70,-0.00,-0.00,-0.00,77.88,-8.25,-22.19
2026-06-27 11:38:20.781,-0.36,0.81,9.68,0.00,-0.01,0.00,77.88,-8.25,-22.56
2026-06-27 11:38:20.798,-0.36,0.79,9.68,0.00,-0.00,0.00,77.88,-8.25,-22.56
2026-06-27 11:38:20.811,-0.35,0.78,9.70,-0.00,-0.01,-0.00,77.88,-8.25,-22.56
2026-06-27 11:38:20.828,-0.37,0.79,9.68,-0.00,-0.01,-0.00,77.88,-8.25,-22.56
2026-06-27 11:38:20.840,-0.35,0.80,9.68,-0.00,-0.01,0.00,78.00,-8.25,-23.00
2026-06-27 11:38:20.857,-0.34,0.77,9.68,-0.00,-0.01,-0.00,78.00,-8.25,-23.00
2026-06-27 11:38:20.870,-0.36,0.78,9.72,-0.00,-0.01,0.00,78.00,-8.25,-23.00
2026-06-27 11:38:20.886,-0.34,0.79,9.68,0.00,-0.01,0.00,78.00,-7.88,-22.56
2026-06-27 11:38:20.900,-0.33,0.81,9.69,-0.00,-0.01,-0.00,78.00,-7.88,-22.56
2026-06-27 11:38:20.912,-0.35,0.82,9.68,-0.00,-0.01,0.00,78.00,-7.88,-22.56
2026-06-27 11:38:20.928,-0.35,0.83,9.67,0.00,-0.01,0.00,77.50,-7.88,-23.00
2026-06-27 11:38:20.941,-0.33,0.86,9.68,-0.00,-0.01,0.00,77.50,-7.88,-23.00
2026-06-27 11:38:20.958,-0.32,0.83,9.67,-0.00,-0.01,-0.00,77.50,-7.88,-23.00
2026-06-27 11:38:20.971,-0.32,0.82,9.66,0.00,-0.01,-0.00,77.50,-7.88,-23.00
2026-06-27 11:38:20.988,-0.29,0.85,9.72,-0.00,-0.01,0.00,78.38,-7.88,-23.00
2026-06-27 11:38:20.000,-0.33,0.84,9.67,-0.00,-0.01,0.00,78.38,-7.88,-23.00
2026-06-27 11:38:21.014,-0.29,0.81,9.67,0.00,-0.01,-0.00,78.38,-7.88,-23.00
2026-06-27 11:38:21.029,-0.30,0.82,9.69,-0.00,-0.01,0.00,78.38,-7.56,-22.19
2026-06-27 11:38:21.041,-0.29,0.84,9.68,-0.00,-0.01,0.00,78.38,-7.56,-22.19
2026-06-27 11:38:21.058,-0.31,0.83,9.68,-0.00,-0.01,-0.00,78.38,-7.56,-22.19
2026-06-27 11:38:21.071,-0.29,0.80,9.70,0.00,-0.01,0.00,78.38,-7.56,-22.19
2026-06-27 11:38:21.088,-0.32,0.79,9.68,0.00,-0.01,0.00,78.00,-7.88,-21.75
2026-06-27 11:38:21.100,-0.29,0.77,9.67,0.00,-0.01,0.00,78.00,-7.88,-21.75
2026-06-27 11:38:21.115,-0.31,0.78,9.67,0.00,-0.00,-0.00,78.00,-7.88,-21.75
2026-06-27 11:38:21.129,-0.28,0.79,9.70,-0.00,-0.00,0.00,77.56,-8.25,-23.00
2026-06-27 11:38:21.142,-0.30,0.79,9.69,0.00,0.00,0.00,77.56,-8.25,-23.00
2026-06-27 11:38:21.159,-0.30,0.78,9.66,0.00,-0.00,0.00,77.56,-8.25,-23.00
2026-06-27 11:38:21.171,-0.28,0.81,9.68,0.00,0.00,0.00,77.56,-8.25,-23.00
2026-06-27 11:38:21.188,-0.30,0.79,9.68,0.00,0.00,-0.00,78.25,-8.69,-21.38
2026-06-27 11:38:21.201,-0.31,0.80,9.68,0.00,0.01,-0.00,78.25,-8.69,-21.38
2026-06-27 11:38:21.218,-0.34,0.79,9.69,0.00,0.01,0.00,78.25,-8.69,-21.38
2026-06-27 11:38:21.231,-0.30,0.81,9.68,0.00,0.01,-0.00,78.25,-8.25,-22.19
2026-06-27 11:38:21.249,-0.31,0.80,9.68,0.00,0.01,-0.00,78.25,-8.25,-22.19
2026-06-27 11:38:21.261,-0.34,0.82,9.68,0.00,0.00,0.00,78.25,-8.25,-22.19
2026-06-27 11:38:21.274,-0.33,0.80,9.69,0.00,0.00,0.00,78.25,-8.25,-22.19
2026-06-27 11:38:21.289,-0.35,0.82,9.67,0.00,0.01,-0.00,77.56,-7.88,-23.38
2026-06-27 11:38:21.302,-0.33,0.84,9.69,0.00,0.01,0.00,77.56,-7.88,-23.38
2026-06-27 11:38:21.321,-0.33,0.85,9.67,0.00,0.00,0.00,77.56,-7.88,-23.38
2026-06-27 11:38:21.338,-0.35,0.84,9.69,0.00,0.00,0.00,77.56,-8.69,-22.56
2026-06-27 11:38:21.351,-0.37,0.83,9.67,0.00,0.00,0.00,77.56,-8.69,-22.56
2026-06-27 11:38:21.368,-0.36,0.84,9.68,0.00,0.00,0.00,77.56,-8.69,-22.56
2026-06-27 11:38:21.380,-0.36,0.82,9.71,0.00,-0.00,-0.00,77.50,-8.25,-23.00
2026-06-27 11:38:21.393,-0.34,0.84,9.68,0.00,-0.00,0.00,77.50,-8.25,-23.00
2026-06-27 11:38:21.409,-0.37,0.86,9.69,0.00,-0.00,0.00,77.50,-8.25,-23.00
2026-06-27 11:38:21.421,-0.36,0.84,9.69,-0.00,-0.01,0.00,77.50,-8.25,-23.00
2026-06-27 11:38:21.439,-0.37,0.82,9.68,0.00,-0.01,0.00,78.38,-7.88,-23.00
2026-06-27 11:38:21.451,-0.36,0.80,9.68,0.00,-0.01,0.00,78.38,-7.88,-23.00
2026-06-27 11:38:21.469,-0.34,0.80,9.68,0.00,-0.01,0.00,78.38,-7.88,-23.00
2026-06-27 11:38:21.482,-0.35,0.79,9.71,0.00,-0.01,0.00,78.69,-7.56,-21.75
2026-06-27 11:38:21.500,-0.36,0.79,9.70,0.00,-0.01,-0.00,78.69,-7.56,-21.75
2026-06-27 11:38:21.513,-0.31,0.79,9.68,-0.00,-0.01,0.00,78.69,-7.56,-21.75
2026-06-27 11:38:21.526,-0.35,0.80,9.70,-0.00,-0.01,0.00,78.69,-7.56,-21.75
2026-06-27 11:38:21.540,-0.35,0.79,9.69,-0.00,-0.01,-0.00,77.19,-8.25,-22.56
2026-06-27 11:38:21.557,-0.34,0.80,9.67,0.00,-0.01,-0.00,77.19,-8.25,-22.56
2026-06-27 11:38:21.571,-0.34,0.82,9.68,-0.00,-0.01,0.00,77.19,-8.25,-22.56
2026-06-27 11:38:21.586,-0.34,0.83,9.68,-0.00,-0.01,0.00,78.69,-8.69,-23.00
2026-06-27 11:38:21.601,-0.33,0.82,9.69,0.00,-0.01,-0.00,78.69,-8.69,-23.00
2026-06-27 11:38:21.618,-0.31,0.83,9.70,0.00,-0.01,-0.00,78.69,-8.69,-23.00
2026-06-27 11:38:21.632,-0.33,0.84,9.68,-0.00,-0.01,-0.00,78.25,-8.25,-23.00
2026-06-27 11:38:21.649,-0.33,0.84,9.68,-0.00,-0.01,0.00,78.25,-8.25,-23.00
2026-06-27 11:38:21.663,-0.32,0.82,9.67,-0.00,-0.01,0.00,78.25,-8.25,-23.00
2026-06-27 11:38:21.676,-0.31,0.82,9.68,0.00,-0.01,0.00,78.25,-8.25,-23.00
2026-06-27 11:38:21.691,-0.31,0.83,9.70,0.00,-0.01,0.00,78.25,-8.69,-22.19
2026-06-27 11:38:21.704,-0.32,0.81,9.68,0.00,-0.01,0.00,78.25,-8.69,-22.19
2026-06-27 11:38:21.723,-0.31,0.81,9.69,-0.00,-0.01,0.00,78.25,-8.69,-22.19
2026-06-27 11:38:21.740,-0.32,0.80,9.69,0.00,-0.01,-0.00,79.00,-8.25,-23.38
2026-06-27 11:38:21.753,-0.30,0.78,9.67,0.00,-0.00,0.00,79.00,-8.25,-23.38
2026-06-27 11:38:21.770,-0.31,0.77,9.71,0.00,-0.00,0.00,79.00,-8.25,-23.38
2026-06-27 11:38:21.783,-0.29,0.79,9.69,0.00,-0.00,0.00,78.00,-8.25,-22.56
2026-06-27 11:38:21.800,-0.32,0.79,9.66,0.00,0.00,-0.00,78.00,-8.25,-22.56
2026-06-27 11:38:21.813,-0.30,0.80,9.68,0.00,0.00,0.00,78.00,-8.25,-22.56
2026-06-27 11:38:21.825,-0.30,0.83,9.69,0.00,0.00,0.00,78.00,-8.25,-22.56
2026-06-27 11:38:21.840,-0.32,0.82,9.68,-0.00,0.00,0.00,78.38,-8.25,-22.56
2026-06-27 11:38:21.853,-0.30,0.83,9.65,-0.00,0.00,-0.00,78.38,-8.25,-22.56
2026-06-27 11:38:21.870,-0.32,0.81,9.66,0.00,0.00,0.00,78.38,-8.25,-22.56
2026-06-27 11:38:21.883,-0.31,0.80,9.68,0.00,0.00,-0.00,77.50,-7.88,-23.00
2026-06-27 11:38:21.900,-0.33,0.80,9.71,0.00,0.00,-0.00,77.50,-7.88,-23.00
2026-06-27 11:38:21.913,-0.35,0.80,9.67,0.00,0.00,0.00,77.50,-7.88,-23.00
2026-06-27 11:38:21.926,-0.34,0.81,9.69,0.00,0.01,0.00,77.50,-7.88,-23.00
2026-06-27 11:38:21.940,-0.34,0.81,9.68,0.00,0.00,0.00,78.25,-8.69,-22.19
2026-06-27 11:38:21.953,-0.32,0.84,9.68,0.00,0.00,-0.00,78.25,-8.69,-22.19
2026-06-27 11:38:21.970,-0.34,0.84,9.68,-0.00,0.01,0.00,78.25,-8.69,-22.19
2026-06-27 11:38:21.983,-0.34,0.82,9.68,0.00,0.00,0.00,77.88,-8.25,-22.56
2026-06-27 11:38:21.001,-0.35,0.83,9.69,0.00,0.00,0.00,77.88,-8.25,-22.56
2026-06-27 11:38:22.013,-0.34,0.80,9.68,0.00,0.00,0.00,77.88,-8.25,-22.56
2026-06-27 11:38:22.026,-0.33,0.82,9.68,0.00,0.01,-0.00,77.88,-8.25,-22.56
2026-06-27 11:38:22.041,-0.32,0.82,9.68,0.00,0.00,0.00,78.69,-9.06,-23.00
2026-06-27 11:38:22.053,-0.35,0.83,9.67,0.00,0.00,0.00,78.69,-9.06,-23.00
2026-06-27 11:38:22.070,-0.35,0.81,9.68,0.00,0.00,-0.00,78.69,-9.06,-23.00
2026-06-27 11:38:22.083,-0.32,0.81,9.69,-0.00,0.00,0.00,78.69,-7.88,-22.19
2026-06-27 11:38:22.101,-0.31,0.82,9.68,0.00,0.00,0.00,78.69,-7.88,-22.19
2026-06-27 11:38:22.113,-0.34,0.81,9.68,0.00,0.00,0.00,78.69,-7.88,-22.19
2026-06-27 11:38:22.126,-0.36,0.81,9.67,0.00,0.00,-0.00,78.69,-7.88,-22.19
2026-06-27 11:38:22.141,-0.35,0.82,9.68,0.00,0.00,0.00,77.88,-7.56,-23.00
2026-06-27 11:38:22.154,-0.34,0.80,9.68,-0.00,0.00,-0.00,77.88,-7.56,-23.00
2026-06-27 11:38:22.171,-0.34,0.81,9.71,0.00,0.00,-0.00,77.88,-7.56,-23.00
2026-06-27 11:38:22.185,-0.35,0.80,9.68,0.00,-0.00,-0.00,77.19,-8.25,-22.56
2026-06-27 11:38:22.201,-0.36,0.80,9.68,0.00,0.00,-0.00,77.19,-8.25,-22.56
2026-06-27 11:38:22.213,-0.34,0.81,9.71,0.00,-0.00,0.00,77.19,-8.25,-22.56
2026-06-27 11:38:22.226,-0.34,0.81,9.69,-0.00,0.00,0.00,77.19,-8.25,-22.56
2026-06-27 11:38:22.241,-0.34,0.80,9.66,-0.00,-0.00,0.00,78.25,-8.69,-21.75
2026-06-27 11:38:22.254,-0.32,0.78,9.67,0.00,-0.00,0.00,78.25,-8.69,-21.75
2026-06-27 11:38:22.271,-0.31,0.80,9.65,0.00,-0.00,0.00,78.25,-8.69,-21.75
2026-06-27 11:38:22.288,-0.34,0.80,9.70,0.00,-0.00,-0.00,78.25,-8.25,-22.56
2026-06-27 11:38:22.301,-0.34,0.79,9.70,0.00,0.00,0.00,78.25,-8.25,-22.56
2026-06-27 11:38:22.314,-0.32,0.78,9.71,0.00,-0.00,0.00,78.25,-8.25,-22.56
2026-06-27 11:38:22.327,-0.31,0.79,9.71,0.00,-0.00,0.00,78.25,-8.25,-22.56
2026-06-27 11:38:22.342,-0.31,0.79,9.71,0.00,0.00,0.00,79.00,-8.69,-22.56
2026-06-27 11:38:22.354,-0.31,0.79,9.70,0.00,-0.00,0.00,79.00,-8.69,-22.56
2026-06-27 11:38:22.371,-0.32,0.79,9.68,0.00,0.00,0.00,79.00,-8.69,-22.56
2026-06-27 11:38:22.384,-0.30,0.77,9.68,0.00,0.00,-0.00,77.88,-7.88,-23.00
2026-06-27 11:38:22.401,-0.30,0.78,9.69,-0.00,0.00,0.00,77.88,-7.88,-23.00
2026-06-27 11:38:22.414,-0.30,0.80,9.69,0.00,0.01,0.00,77.88,-7.88,-23.00
2026-06-27 11:38:22.427,-0.31,0.81,9.67,0.00,0.01,0.00,77.88,-7.88,-23.00
2026-06-27 11:38:22.442,-0.30,0.82,9.68,0.00,0.01,0.00,78.25,-7.88,-22.19
2026-06-27 11:38:22.457,-0.32,0.87,9.67,0.00,0.01,0.00,78.25,-7.88,-22.19
2026-06-27 11:38:22.472,-0.34,0.87,9.65,0.00,0.01,0.00,78.25,-7.88,-22.19
2026-06-27 11:38:22.484,-0.32,0.88,9.70,0.00,0.01,-0.00,77.50,-8.25,-21.38
2026-06-27 11:38:22.501,-0.32,0.86,9.69,0.00,0.01,-0.00,77.50,-8.25,-21.38
2026-06-27 11:38:22.514,-0.35,0.86,9.68,0.00,0.01,0.00,77.50,-8.25,-21.38
2026-06-27 11:38:22.527,-0.37,0.87,9.66,0.00,0.01,0.00,77.50,-8.25,-21.38
2026-06-27 11:38:22.542,-0.36,0.88,9.69,0.00,0.00,-0.00,77.88,-7.88,-23.38
2026-06-27 11:38:22.554,-0.36,0.89,9.68,-0.00,0.00,0.00,77.88,-7.88,-23.38
2026-06-27 11:38:22.571,-0.36,0.87,9.67,0.00,0.00,0.00,77.88,-7.88,-23.38
2026-06-27 11:38:22.584,-0.35,0.86,9.71,0.00,0.01,-0.00,78.69,-8.69,-24.19
2026-06-27 11:38:22.601,-0.38,0.83,9.68,0.00,0.00,0.00,78.69,-8.69,-24.19
2026-06-27 11:38:22.614,-0.36,0.78,9.68,-0.00,0.00,-0.00,78.69,-8.69,-24.19
2026-06-27 11:38:22.627,-0.39,0.78,9.68,0.00,0.00,0.00,78.69,-8.69,-24.19
2026-06-27 11:38:22.643,-0.38,0.77,9.68,-0.00,-0.00,0.00,79.75,-8.25,-23.75
2026-06-27 11:38:22.658,-0.37,0.74,9.66,0.00,-0.00,0.00,79.75,-8.25,-23.75
2026-06-27 11:38:22.673,-0.36,0.70,9.71,0.00,-0.00,0.00,79.75,-8.25,-23.75
2026-06-27 11:38:22.685,-0.35,0.73,9.68,-0.00,-0.00,0.00,77.88,-7.88,-22.19
2026-06-27 11:38:22.702,-0.36,0.72,9.69,0.00,-0.00,-0.00,77.88,-7.88,-22.19
2026-06-27 11:38:22.715,-0.35,0.73,9.68,0.00,-0.00,0.00,77.88,-7.88,-22.19
2026-06-27 11:38:22.728,-0.36,0.69,9.68,-0.00,-0.01,0.00,77.88,-7.88,-22.19
2026-06-27 11:38:22.743,-0.34,0.70,9.68,0.00,-0.00,0.00,78.25,-8.25,-22.19
2026-06-27 11:38:22.758,-0.34,0.71,9.69,0.00,-0.00,0.00,78.25,-8.25,-22.19
2026-06-27 11:38:22.773,-0.34,0.72,9.69,0.00,-0.00,0.00,78.25,-8.25,-22.19
2026-06-27 11:38:22.787,-0.34,0.78,9.68,0.00,-0.00,0.00,79.00,-8.25,-23.38
2026-06-27 11:38:22.802,-0.34,0.77,9.70,0.00,0.00,-0.00,79.00,-8.25,-23.38
2026-06-27 11:38:22.815,-0.34,0.81,9.69,0.00,0.00,0.00,79.00,-8.25,-23.38
2026-06-27 11:38:22.828,-0.31,0.80,9.68,-0.00,-0.00,-0.00,79.00,-8.25,-23.38
2026-06-27 11:38:22.842,-0.30,0.82,9.71,0.00,-0.00,-0.00,78.25,-7.88,-23.38
2026-06-27 11:38:22.855,-0.32,0.83,9.65,0.00,0.00,0.00,78.25,-7.88,-23.38
2026-06-27 11:38:22.873,-0.32,0.82,9.70,-0.00,0.00,-0.00,78.25,-7.88,-23.38
2026-06-27 11:38:22.885,-0.29,0.88,9.69,-0.00,-0.00,0.00,78.00,-8.69,-23.38
2026-06-27 11:38:22.902,-0.31,0.87,9.67,0.00,0.00,-0.00,78.00,-8.69,-23.38
2026-06-27 11:38:22.914,-0.32,0.85,9.68,0.00,0.00,0.00,78.00,-8.69,-23.38
2026-06-27 11:38:22.927,-0.32,0.88,9.67,0.00,0.00,0.00,78.00,-8.69,-23.38
2026-06-27 11:38:22.943,-0.31,0.89,9.64,-0.00,0.00,-0.00,78.69,-9.06,-23.00
2026-06-27 11:38:22.958,-0.31,0.88,9.66,0.00,0.01,0.00,78.69,-9.06,-23.00
2026-06-27 11:38:22.973,-0.32,0.86,9.68,0.00,0.00,0.00,78.69,-9.06,-23.00
2026-06-27 11:38:22.988,-0.34,0.84,9.68,0.00,0.00,-0.00,79.00,-7.88,-21.38
2026-06-27 11:38:23.003,-0.32,0.84,9.68,0.00,0.00,0.00,79.00,-7.88,-21.38
2026-06-27 11:38:23.016,-0.32,0.83,9.68,0.00,0.00,0.00,79.00,-7.88,-21.38
2026-06-27 11:38:23.028,-0.34,0.82,9.69,0.00,0.01,0.00,79.00,-7.88,-21.38
2026-06-27 11:38:23.043,-0.35,0.82,9.68,0.00,0.01,0.00,78.25,-8.25,-23.00
2026-06-27 11:38:23.056,-0.35,0.83,9.68,0.00,0.00,0.00,78.25,-8.25,-23.00
2026-06-27 11:38:23.073,-0.34,0.83,9.65,0.00,0.01,-0.00,78.25,-8.25,-23.00
2026-06-27 11:38:23.085,-0.35,0.82,9.69,0.00,0.00,0.00,78.25,-8.25,-22.56
2026-06-27 11:38:23.103,-0.35,0.82,9.68,0.00,0.00,0.00,78.25,-8.25,-22.56
2026-06-27 11:38:23.115,-0.37,0.83,9.69,-0.00,0.00,0.00,78.25,-8.25,-22.56
2026-06-27 11:38:23.128,-0.37,0.81,9.69,0.00,0.00,0.00,78.25,-8.25,-22.56
2026-06-27 11:38:23.144,-0.35,0.78,9.71,0.00,0.00,-0.00,77.88,-7.88,-22.56
2026-06-27 11:38:23.156,-0.34,0.80,9.67,0.00,0.00,0.00,77.88,-7.88,-22.56
2026-06-27 11:38:23.173,-0.36,0.77,9.69,0.00,0.00,0.00,77.88,-7.88,-22.56
2026-06-27 11:38:23.190,-0.38,0.77,9.71,0.00,0.00,0.00,78.69,-7.88,-21.75
2026-06-27 11:38:23.204,-0.37,0.76,9.68,0.00,-0.00,0.00,78.69,-7.88,-21.75
2026-06-27 11:38:23.219,-0.37,0.80,9.70,0.00,-0.00,0.00,78.69,-7.88,-21.75
2026-06-27 11:38:23.233,-0.39,0.76,9.66,0.00,0.00,-0.00,78.69,-8.69,-22.56
2026-06-27 11:38:23.246,-0.37,0.75,9.69,-0.00,0.00,0.00,78.69,-8.69,-22.56
2026-06-27 11:38:23.263,-0.36,0.77,9.69,0.00,-0.00,0.00,78.69,-8.69,-22.56
2026-06-27 11:38:23.276,-0.34,0.78,9.69,-0.00,-0.00,-0.00,78.69,-8.69,-22.56
2026-06-27 11:38:23.293,-0.36,0.80,9.68,0.00,-0.00,-0.00,79.00,-8.25,-22.19
2026-06-27 11:38:23.305,-0.35,0.82,9.64,0.00,-0.01,0.00,79.00,-8.25,-22.19
2026-06-27 11:38:23.323,-0.34,0.83,9.65,-0.00,-0.01,0.00,79.00,-8.25,-22.19
2026-06-27 11:38:23.337,-0.35,0.83,9.68,-0.00,-0.01,0.00,79.38,-8.25,-23.00
2026-06-27 11:38:23.353,-0.36,0.81,9.67,0.00,-0.00,-0.00,79.38,-8.25,-23.00
2026-06-27 11:38:23.365,-0.35,0.79,9.68,0.00,-0.01,0.00,79.38,-8.25,-23.00
2026-06-27 11:38:23.378,-0.34,0.81,9.69,0.00,-0.01,-0.00,79.38,-8.25,-23.00
2026-06-27 11:38:23.393,-0.34,0.80,9.68,-0.00,-0.00,-0.00,79.38,-8.69,-23.38
2026-06-27 11:38:23.406,-0.34,0.84,9.67,-0.00,-0.01,0.00,79.38,-8.69,-23.38
2026-06-27 11:38:23.423,-0.33,0.85,9.66,-0.00,-0.01,0.00,79.38,-8.69,-23.38
2026-06-27 11:38:23.436,-0.34,0.84,9.69,-0.00,-0.00,0.00,78.25,-7.88,-23.00
2026-06-27 11:38:23.453,-0.34,0.83,9.67,-0.00,-0.00,0.00,78.25,-7.88,-23.00
2026-06-27 11:38:23.466,-0.31,0.83,9.67,-0.00,-0.01,0.00,78.25,-7.88,-23.00
2026-06-27 11:38:23.478,-0.33,0.82,9.68,0.00,-0.00,-0.00,78.25,-7.88,-23.00
2026-06-27 11:38:23.494,-0.34,0.79,9.66,-0.00,-0.00,-0.00,79.00,-8.25,-22.19
2026-06-27 11:38:23.506,-0.33,0.82,9.66,0.00,-0.00,0.00,79.00,-8.25,-22.19
2026-06-27 11:38:23.524,-0.33,0.80,9.67,-0.00,-0.00,0.00,79.00,-8.25,-22.19
2026-06-27 11:38:23.537,-0.35,0.80,9.70,-0.00,-0.00,-0.00,78.69,-7.88,-23.00
2026-06-27 11:38:23.554,-0.34,0.80,9.68,-0.00,0.00,-0.00,78.69,-7.88,-23.00
2026-06-27 11:38:23.566,-0.32,0.81,9.67,-0.00,-0.00,0.00,78.69,-7.88,-23.00
2026-06-27 11:38:23.579,-0.33,0.82,9.69,0.00,-0.00,0.00,78.69,-7.88,-23.00
2026-06-27 11:38:23.594,-0.34,0.79,9.68,0.00,-0.00,0.00,79.00,-8.69,-22.19
2026-06-27 11:38:23.607,-0.36,0.81,9.65,0.00,0.00,-0.00,79.00,-8.69,-22.19
2026-06-27 11:38:23.624,-0.33,0.80,9.68,0.00,0.00,0.00,79.00,-8.69,-22.19
2026-06-27 11:38:23.637,-0.34,0.82,9.70,0.00,0.00,-0.00,78.25,-8.69,-23.00
2026-06-27 11:38:23.654,-0.34,0.80,9.68,0.00,-0.00,0.00,78.25,-8.69,-23.00
2026-06-27 11:38:23.667,-0.35,0.80,9.68,0.00,0.00,0.00,78.25,-8.69,-23.00
2026-06-27 11:38:23.682,-0.34,0.83,9.67,0.00,0.00,0.00,78.25,-8.69,-23.00
2026-06-27 11:38:23.695,-0.35,0.80,9.66,0.00,-0.00,-0.00,78.25,-8.69,-22.56
2026-06-27 11:38:23.713,-0.34,0.79,9.68,-0.00,0.00,0.00,78.25,-8.69,-22.56
2026-06-27 11:38:23.725,-0.34,0.81,9.68,0.00,-0.00,-0.00,78.25,-8.69,-22.56
2026-06-27 11:38:23.741,-0.36,0.80,9.68,0.00,-0.00,-0.00,78.69,-9.06,-21.75
2026-06-27 11:38:23.755,-0.34,0.81,9.66,0.00,0.00,-0.00,78.69,-9.06,-21.75
2026-06-27 11:38:23.767,-0.34,0.82,9.67,-0.00,0.00,0.00,78.69,-9.06,-21.75
2026-06-27 11:38:23.780,-0.37,0.80,9.70,0.00,0.00,0.00,78.69,-9.06,-21.75
2026-06-27 11:38:23.794,-0.36,0.81,9.68,-0.00,0.00,-0.00,77.88,-8.69,-22.19
2026-06-27 11:38:23.808,-0.35,0.82,9.67,0.00,-0.00,0.00,77.88,-8.69,-22.19
2026-06-27 11:38:23.824,-0.37,0.81,9.66,0.00,0.00,-0.00,77.88,-8.69,-22.19
2026-06-27 11:38:23.837,-0.33,0.79,9.70,0.00,0.00,0.00,79.38,-7.88,-23.00
2026-06-27 11:38:23.854,-0.34,0.80,9.67,-0.00,-0.00,-0.00,79.38,-7.88,-23.00
2026-06-27 11:38:23.867,-0.35,0.79,9.69,0.00,0.00,0.00,79.38,-7.88,-23.00
2026-06-27 11:38:23.879,-0.34,0.82,9.69,0.00,0.00,0.00,79.38,-7.88,-23.00
2026-06-27 11:38:23.894,-0.34,0.81,9.70,0.00,0.00,0.00,79.00,-8.25,-23.38
2026-06-27 11:38:23.906,-0.35,0.82,9.66,0.00,0.00,0.00,79.00,-8.25,-23.38
2026-06-27 11:38:23.924,-0.36,0.83,9.66,0.00,0.00,0.00,79.00,-8.25,-23.38
2026-06-27 11:38:23.936,-0.35,0.81,9.72,0.00,0.00,0.00,78.69,-8.25,-21.75
2026-06-27 11:38:23.954,-0.34,0.82,9.66,0.00,0.00,-0.00,78.69,-8.25,-21.75
2026-06-27 11:38:23.967,-0.34,0.82,9.68,-0.00,0.00,-0.00,78.69,-8.25,-21.75
2026-06-27 11:38:23.979,-0.35,0.83,9.69,0.00,0.00,0.00,78.69,-8.25,-21.75
2026-06-27 11:38:23.995,-0.37,0.80,9.70,0.00,0.00,-0.00,77.88,-8.69,-22.19
2026-06-27 11:38:24.007,-0.34,0.82,9.68,0.00,0.00,-0.00,77.88,-8.69,-22.19
2026-06-27 11:38:24.024,-0.34,0.82,9.67,0.00,0.00,0.00,77.88,-8.69,-22.19
2026-06-27 11:38:24.037,-0.36,0.84,9.67,0.00,0.01,0.00,79.00,-8.69,-23.00
2026-06-27 11:38:24.054,-0.35,0.81,9.69,0.00,0.01,0.00,79.00,-8.69,-23.00
2026-06-27 11:38:24.067,-0.36,0.81,9.67,-0.00,0.00,0.00,79.00,-8.69,-23.00
2026-06-27 11:38:24.079,-0.37,0.80,9.68,0.00,0.00,-0.00,79.00,-8.69,-23.00
2026-06-27 11:38:24.095,-0.37,0.81,9.68,0.00,0.00,0.00,79.00,-8.69,-22.56
2026-06-27 11:38:24.108,-0.37,0.83,9.68,0.00,0.00,0.00,79.00,-8.69,-22.56
2026-06-27 11:38:24.125,-0.36,0.80,9.68,0.00,0.00,0.00,79.00,-8.69,-22.56
2026-06-27 11:38:24.137,-0.35,0.78,9.68,0.00,0.00,-0.00,78.69,-7.88,-21.75
2026-06-27 11:38:24.154,-0.37,0.81,9.70,0.00,-0.00,-0.00,78.69,-7.88,-21.75
2026-06-27 11:38:24.166,-0.34,0.80,9.67,0.00,0.00,-0.00,78.69,-7.88,-21.75
2026-06-27 11:38:24.179,-0.36,0.77,9.71,0.00,0.00,-0.00,78.69,-7.88,-21.75
2026-06-27 11:38:24.195,-0.35,0.76,9.68,0.00,0.01,-0.00,78.69,-8.69,-22.56
2026-06-27 11:38:24.208,-0.35,0.76,9.68,0.00,0.01,0.00,78.69,-8.69,-22.56
2026-06-27 11:38:24.225,-0.34,0.77,9.65,0.00,0.01,0.00,78.69,-8.69,-22.56
2026-06-27 11:38:24.237,-0.35,0.80,9.68,0.00,0.01,-0.00,78.25,-7.88,-22.19
2026-06-27 11:38:24.254,-0.34,0.84,9.69,-0.00,0.00,-0.00,78.25,-7.88,-22.19
2026-06-27 11:38:24.267,-0.37,0.87,9.69,-0.00,0.00,0.00,78.25,-7.88,-22.19
2026-06-27 11:38:24.280,-0.35,0.88,9.67,0.00,0.00,0.00,78.25,-7.88,-22.19
2026-06-27 11:38:24.295,-0.33,0.89,9.69,-0.00,0.00,0.00,78.69,-7.88,-22.56
2026-06-27 11:38:24.308,-0.38,0.89,9.67,-0.00,0.00,0.00,78.69,-7.88,-22.56
2026-06-27 11:38:24.325,-0.39,0.90,9.68,-0.00,0.00,-0.00,78.69,-7.88,-22.56
2026-06-27 11:38:24.337,-0.40,0.92,9.68,0.00,0.00,0.00,79.00,-7.56,-22.56
2026-06-27 11:38:24.355,-0.41,0.90,9.67,0.00,0.00,-0.00,79.00,-7.56,-22.56
2026-06-27 11:38:24.367,-0.40,0.88,9.67,-0.00,-0.01,0.00,79.00,-7.56,-22.56
2026-06-27 11:38:24.380,-0.40,0.88,9.70,-0.00,-0.01,0.00,79.00,-7.56,-22.56
2026-06-27 11:38:24.396,-0.40,0.85,9.65,-0.00,-0.01,0.00,78.25,-7.88,-23.75
2026-06-27 11:38:24.408,-0.40,0.83,9.70,-0.00,-0.01,-0.00,78.25,-7.88,-23.75
2026-06-27 11:38:24.425,-0.43,0.81,9.68,-0.00,-0.01,-0.00,78.25,-7.88,-23.75
2026-06-27 11:38:24.438,-0.40,0.78,9.68,-0.00,-0.01,0.00,79.75,-8.25,-22.56
2026-06-27 11:38:24.455,-0.37,0.77,9.69,-0.00,-0.01,0.00,79.75,-8.25,-22.56
2026-06-27 11:38:24.472,-0.39,0.74,9.67,-0.00,-0.02,0.00,79.75,-8.25,-22.56
2026-06-27 11:38:24.486,-0.39,0.75,9.70,-0.00,-0.02,0.00,79.38,-8.25,-21.75
2026-06-27 11:38:24.498,-0.38,0.70,9.69,-0.00,-0.02,0.00,79.38,-8.25,-21.75
2026-06-27 11:38:24.516,-0.37,0.70,9.68,-0.00,-0.01,-0.00,79.38,-8.25,-21.75
2026-06-27 11:38:24.529,-0.38,0.68,9.69,-0.00,-0.02,0.00,79.38,-8.25,-21.75
2026-06-27 11:38:24.546,-0.37,0.69,9.70,-0.00,-0.02,-0.00,78.69,-8.25,-23.00
2026-06-27 11:38:24.558,-0.32,0.70,9.69,-0.00,-0.01,-0.00,78.69,-8.25,-23.00
2026-06-27 11:38:24.573,-0.32,0.71,9.68,-0.00,-0.01,-0.00,78.69,-8.25,-23.00
2026-06-27 11:38:24.586,-0.30,0.73,9.69,-0.00,-0.01,0.00,78.25,-9.38,-22.56
2026-06-27 11:38:24.599,-0.31,0.75,9.69,0.00,-0.01,0.00,78.25,-9.38,-22.56
2026-06-27 11:38:24.616,-0.32,0.75,9.67,-0.00,-0.01,0.00,78.25,-9.38,-22.56
2026-06-27 11:38:24.628,-0.31,0.77,9.68,-0.00,-0.00,0.00,78.25,-9.38,-22.56
2026-06-27 11:38:24.646,-0.29,0.79,9.68,-0.00,-0.01,0.00,78.25,-7.56,-21.75
2026-06-27 11:38:24.658,-0.29,0.83,9.68,-0.00,-0.01,-0.00,78.25,-7.56,-21.75
2026-06-27 11:38:24.676,-0.30,0.83,9.69,0.00,-0.00,-0.00,78.25,-7.56,-21.75
2026-06-27 11:38:24.689,-0.31,0.86,9.71,0.00,0.00,-0.00,79.00,-7.56,-22.56
2026-06-27 11:38:24.706,-0.30,0.81,9.66,-0.00,-0.00,-0.00,79.00,-7.56,-22.56
2026-06-27 11:38:24.718,-0.28,0.87,9.68,-0.00,0.01,0.00,79.00,-7.56,-22.56
2026-06-27 11:38:24.731,-0.32,0.88,9.72,-0.00,0.00,0.00,79.00,-7.56,-22.56
2026-06-27 11:38:24.747,-0.29,0.88,9.66,0.00,0.01,-0.00,77.19,-7.88,-21.75
2026-06-27 11:38:24.759,-0.33,0.90,9.66,0.00,0.01,0.00,77.19,-7.88,-21.75
2026-06-27 11:38:24.776,-0.37,0.91,9.69,0.00,0.01,-0.00,77.19,-7.88,-21.75
2026-06-27 11:38:24.789,-0.34,0.94,9.66,0.00,0.01,0.00,79.00,-8.25,-22.19
2026-06-27 11:38:24.806,-0.33,0.92,9.66,0.00,0.01,0.00,79.00,-8.25,-22.19
2026-06-27 11:38:24.818,-0.37,0.91,9.63,-0.00,0.01,0.00,79.00,-8.25,-22.19
2026-06-27 11:38:24.833,-0.37,0.89,9.69,0.00,0.01,-0.00,79.00,-8.25,-22.19
2026-06-27 11:38:24.847,-0.34,0.94,9.69,0.00,0.01,-0.00,78.69,-8.25,-22.19
2026-06-27 11:38:24.860,-0.40,0.89,9.65,0.00,0.01,0.00,78.69,-8.25,-22.19
2026-06-27 11:38:24.877,-0.35,0.90,9.68,-0.00,0.01,0.00,78.69,-8.25,-22.19
2026-06-27 11:38:24.889,-0.43,0.86,9.70,0.00,0.00,0.00,79.38,-6.75,-23.75
2026-06-27 11:38:24.906,-0.42,0.84,9.72,0.00,0.00,0.00,79.38,-6.75,-23.75
2026-06-27 11:38:24.919,-0.39,0.81,9.68,0.00,0.00,0.00,79.38,-6.75,-23.75
2026-06-27 11:38:24.932,-0.42,0.79,9.70,-0.00,-0.00,0.00,79.38,-6.75,-23.75
2026-06-27 11:38:24.947,-0.42,0.77,9.67,0.00,0.00,-0.00,77.88,-7.88,-22.56
2026-06-27 11:38:24.960,-0.41,0.73,9.67,-0.00,-0.01,0.00,77.88,-7.88,-22.56
2026-06-27 11:38:24.977,-0.43,0.72,9.68,-0.00,-0.01,0.00,77.88,-7.88,-22.56
2026-06-27 11:38:24.989,-0.39,0.71,9.67,-0.00,-0.01,0.00,78.69,-7.88,-21.38
2026-06-27 11:38:25.006,-0.39,0.69,9.71,-0.00,-0.01,-0.00,78.69,-7.88,-21.38
2026-06-27 11:38:25.019,-0.39,0.70,9.67,-0.00,-0.01,-0.00,78.69,-7.88,-21.38
2026-06-27 11:38:25.031,-0.39,0.67,9.71,-0.00,-0.01,-0.00,78.69,-7.88,-21.38
2026-06-27 11:38:25.047,-0.37,0.71,9.70,0.00,-0.01,0.00,78.69,-8.25,-21.75
2026-06-27 11:38:25.059,-0.37,0.72,9.67,-0.00,-0.01,0.00,78.69,-8.25,-21.75
2026-06-27 11:38:25.077,-0.36,0.72,9.68,-0.00,-0.01,0.00,78.69,-8.25,-21.75
2026-06-27 11:38:25.090,-0.36,0.76,9.68,-0.00,-0.01,0.00,77.50,-8.25,-21.75
2026-06-27 11:38:25.107,-0.35,0.77,9.71,-0.00,-0.01,-0.00,77.50,-8.25,-21.75
2026-06-27 11:38:25.119,-0.36,0.79,9.64,-0.00,-0.01,-0.00,77.50,-8.25,-21.75
2026-06-27 11:38:25.132,-0.32,0.85,9.69,-0.00,-0.01,-0.00,77.50,-8.25,-21.75
2026-06-27 11:38:25.147,-0.32,0.86,9.66,-0.00,-0.01,-0.00,78.25,-7.19,-22.19
2026-06-27 11:38:25.160,-0.32,0.91,9.68,0.00,-0.01,0.00,78.25,-7.19,-22.19
2026-06-27 11:38:25.177,-0.32,0.91,9.67,-0.00,-0.00,0.00,78.25,-7.19,-22.19
2026-06-27 11:38:25.190,-0.30,0.92,9.69,0.00,-0.00,0.00,78.69,-8.69,-23.00
2026-06-27 11:38:25.207,-0.29,0.92,9.65,0.00,-0.00,0.00,78.69,-8.69,-23.00
2026-06-27 11:38:25.219,-0.32,0.91,9.66,0.00,0.00,-0.00,78.69,-8.69,-23.00
2026-06-27 11:38:25.232,-0.33,0.93,9.68,0.00,0.00,0.00,78.69,-8.69,-23.00
2026-06-27 11:38:25.247,-0.32,0.88,9.69,-0.00,0.00,0.00,78.25,-8.69,-22.56
2026-06-27 11:38:25.260,-0.32,0.91,9.68,-0.00,0.00,0.00,78.25,-8.69,-22.56
2026-06-27 11:38:25.277,-0.34,0.87,9.69,-0.00,0.00,0.00,78.25,-8.69,-22.56
2026-06-27 11:38:25.290,-0.37,0.86,9.72,-0.00,0.01,-0.00,78.69,-8.69,-22.19
2026-06-27 11:38:25.308,-0.36,0.83,9.68,0.00,0.00,0.00,78.69,-8.69,-22.19
2026-06-27 11:38:25.321,-0.39,0.78,9.68,0.00,0.00,0.00,78.69,-8.69,-22.19
2026-06-27 11:38:25.333,-0.39,0.77,9.68,0.00,0.01,-0.00,78.69,-8.69,-22.19
2026-06-27 11:38:25.348,-0.39,0.77,9.70,0.00,0.00,0.00,78.69,-8.25,-23.00
2026-06-27 11:38:25.361,-0.37,0.73,9.69,-0.00,0.00,0.00,78.69,-8.25,-23.00
2026-06-27 11:38:25.377,-0.38,0.72,9.68,0.00,0.01,0.00,78.69,-8.25,-23.00
2026-06-27 11:38:25.390,-0.41,0.75,9.70,0.00,0.00,0.00,78.25,-7.88,-22.19
2026-06-27 11:38:25.408,-0.39,0.75,9.69,0.00,0.00,-0.00,78.25,-7.88,-22.19
2026-06-27 11:38:25.421,-0.40,0.76,9.68,0.00,-0.00,0.00,78.25,-7.88,-22.19
2026-06-27 11:38:25.434,-0.41,0.77,9.68,-0.00,-0.00,0.00,78.25,-7.88,-22.19
2026-06-27 11:38:25.448,-0.37,0.76,9.69,-0.00,-0.00,0.00,78.69,-9.06,-21.75
2026-06-27 11:38:25.465,-0.40,0.78,9.68,0.00,-0.00,-0.00,78.69,-9.06,-21.75
2026-06-27 11:38:25.478,-0.39,0.78,9.68,-0.00,-0.00,0.00,78.69,-9.06,-21.75
2026-06-27 11:38:25.491,-0.40,0.82,9.70,0.00,-0.00,-0.00,77.88,-7.56,-21.38
2026-06-27 11:38:25.508,-0.42,0.81,9.68,-0.00,-0.00,0.00,77.88,-7.56,-21.38
2026-06-27 11:38:25.528,-0.37,0.83,9.70,0.00,-0.00,0.00,77.88,-7.56,-21.38
2026-06-27 11:38:25.541,-0.37,0.83,9.69,0.00,-0.01,-0.00,78.69,-8.69,-22.56
2026-06-27 11:38:25.558,-0.38,0.84,9.68,0.00,-0.00,0.00,78.69,-8.69,-22.56
2026-06-27 11:38:25.571,-0.41,0.87,9.67,0.00,-0.01,0.00,78.69,-8.69,-22.56
2026-06-27 11:38:25.583,-0.39,0.88,9.69,-0.00,-0.01,0.00,78.69,-8.69,-22.56
2026-06-27 11:38:25.598,-0.39,0.87,9.68,0.00,-0.01,0.00,78.25,-8.69,-22.56
2026-06-27 11:38:25.610,-0.36,0.86,9.65,-0.00,-0.01,-0.00,78.25,-8.69,-22.56
2026-06-27 11:38:25.628,-0.39,0.85,9.67,-0.00,-0.01,0.00,78.25,-8.69,-22.56
2026-06-27 11:38:25.641,-0.38,0.86,9.69,0.00,-0.01,0.00,78.69,-7.88,-21.75
2026-06-27 11:38:25.658,-0.37,0.82,9.68,-0.00,-0.01,0.00,78.69,-7.88,-21.75
2026-06-27 11:38:25.671,-0.35,0.83,9.65,-0.00,-0.01,0.00,78.69,-7.88,-21.75
2026-06-27 11:38:25.684,-0.37,0.82,9.67,-0.00,-0.01,0.00,78.69,-7.88,-21.75
2026-06-27 11:38:25.698,-0.34,0.80,9.69,-0.00,-0.01,-0.00,77.88,-7.88,-21.38
2026-06-27 11:38:25.711,-0.36,0.80,9.64,-0.00,-0.01,-0.00,77.88,-7.88,-21.38
2026-06-27 11:38:25.728,-0.36,0.82,9.69,-0.00,-0.01,0.00,77.88,-7.88,-21.38
2026-06-27 11:38:25.740,-0.36,0.82,9.69,-0.00,-0.01,0.00,78.25,-8.25,-21.75
2026-06-27 11:38:25.757,-0.35,0.80,9.70,-0.00,-0.01,0.00,78.25,-8.25,-21.75
2026-06-27 11:38:25.770,-0.34,0.79,9.68,0.00,-0.01,0.00,78.25,-8.25,-21.75
2026-06-27 11:38:25.782,-0.35,0.78,9.68,0.00,-0.01,0.00,78.25,-8.25,-21.75
2026-06-27 11:38:25.798,-0.33,0.81,9.70,-0.00,-0.01,0.00,78.69,-8.69,-21.38
2026-06-27 11:38:25.810,-0.37,0.80,9.66,-0.00,-0.01,0.00,78.69,-8.69,-21.38
2026-06-27 11:38:25.828,-0.34,0.78,9.68,-0.00,-0.01,-0.00,78.69,-8.69,-21.38
2026-06-27 11:38:25.840,-0.36,0.78,9.71,-0.00,-0.01,0.00,78.69,-7.88,-22.19
2026-06-27 11:38:25.858,-0.34,0.78,9.68,0.00,-0.01,-0.00,78.69,-7.88,-22.19
2026-06-27 11:38:25.872,-0.33,0.78,9.68,-0.00,-0.00,-0.00,78.69,-7.88,-22.19
2026-06-27 11:38:25.885,-0.35,0.76,9.70,0.00,-0.00,0.00,78.69,-7.88,-22.19
2026-06-27 11:38:25.899,-0.34,0.77,9.68,0.00,0.00,0.00,78.69,-8.25,-23.00
2026-06-27 11:38:25.912,-0.36,0.79,9.68,-0.00,0.00,-0.00,78.69,-8.25,-23.00
2026-06-27 11:38:25.929,-0.32,0.77,9.68,-0.00,0.00,0.00,78.69,-8.25,-23.00
2026-06-27 11:38:25.941,-0.34,0.79,9.68,0.00,0.00,-0.00,77.19,-8.69,-22.56
2026-06-27 11:38:25.958,-0.35,0.78,9.65,0.00,0.00,-0.00,77.19,-8.69,-22.56
2026-06-27 11:38:25.971,-0.37,0.82,9.68,0.00,0.00,0.00,77.19,-8.69,-22.56
2026-06-27 11:38:25.984,-0.37,0.83,9.67,0.00,0.01,-0.00,77.19,-8.69,-22.56
2026-06-27 11:38:25.999,-0.35,0.82,9.67,0.00,0.00,0.00,79.00,-9.38,-22.56
2026-06-27 11:38:26.012,-0.36,0.84,9.65,0.00,0.00,0.00,79.00,-9.38,-22.56
2026-06-27 11:38:26.029,-0.35,0.80,9.67,0.00,0.00,0.00,79.00,-9.38,-22.56
2026-06-27 11:38:26.041,-0.36,0.87,9.71,-0.00,0.01,-0.00,79.00,-8.69,-22.19
2026-06-27 11:38:26.058,-0.37,0.86,9.69,0.00,-0.00,0.00,79.00,-8.69,-22.19
2026-06-27 11:38:26.071,-0.39,0.88,9.66,0.00,0.00,0.00,79.00,-8.69,-22.19
2026-06-27 11:38:26.084,-0.39,0.91,9.67,0.00,0.00,0.00,79.00,-8.69,-22.19
2026-06-27 11:38:26.100,-0.41,0.91,9.72,0.00,-0.00,0.00,79.00,-9.06,-23.38
2026-06-27 11:38:26.112,-0.37,0.88,9.65,0.00,-0.00,0.00,79.00,-9.06,-23.38
2026-06-27 11:38:26.129,-0.40,0.87,9.65,-0.00,-0.00,0.00,79.00,-9.06,-23.38
2026-06-27 11:38:26.141,-0.37,0.86,9.69,-0.00,-0.01,-0.00,78.25,-7.88,-22.56
2026-06-27 11:38:26.158,-0.37,0.86,9.67,0.00,-0.01,-0.00,78.25,-7.88,-22.56
2026-06-27 11:38:26.174,-0.38,0.82,9.67,-0.00,-0.01,-0.00,78.25,-7.88,-22.56
2026-06-27 11:38:26.190,-0.34,0.81,9.67,0.00,-0.01,0.00,78.25,-8.69,-23.00
2026-06-27 11:38:26.202,-0.32,0.76,9.67,-0.00,-0.00,0.00,78.25,-8.69,-23.00
2026-06-27 11:38:26.219,-0.32,0.75,9.64,-0.00,-0.01,0.00,78.25,-8.69,-23.00
2026-06-27 11:38:26.232,-0.30,0.74,9.68,-0.00,-0.01,0.00,78.25,-8.69,-23.00
2026-06-27 11:38:26.249,-0.34,0.71,9.68,-0.00,-0.00,-0.00,78.25,-8.69,-22.56
2026-06-27 11:38:26.262,-0.35,0.74,9.66,0.00,0.00,-0.00,78.25,-8.69,-22.56
2026-06-27 11:38:26.279,-0.33,0.71,9.68,0.00,0.00,0.00,78.25,-8.69,-22.56
2026-06-27 11:38:26.292,-0.34,0.73,9.70,0.00,0.00,0.00,78.69,-7.88,-22.19
2026-06-27 11:38:26.309,-0.33,0.75,9.68,0.00,0.00,0.00,78.69,-7.88,-22.19
2026-06-27 11:38:26.322,-0.32,0.75,9.66,0.00,0.01,0.00,78.69,-7.88,-22.19
2026-06-27 11:38:26.335,-0.30,0.75,9.68,0.00,0.01,-0.00,78.69,-7.88,-22.19
2026-06-27 11:38:26.350,-0.33,0.77,9.70,0.00,0.01,0.00,77.88,-8.69,-22.19
2026-06-27 11:38:26.362,-0.35,0.80,9.66,0.00,0.01,0.00,77.88,-8.69,-22.19
2026-06-27 11:38:26.379,-0.37,0.81,9.67,0.00,0.01,0.00,77.88,-8.69,-22.19
2026-06-27 11:38:26.392,-0.34,0.87,9.68,0.00,0.01,0.00,78.69,-8.69,-23.00
2026-06-27 11:38:26.409,-0.36,0.86,9.68,0.00,0.01,-0.00,78.69,-8.69,-23.00
2026-06-27 11:38:26.423,-0.38,0.88,9.67,0.00,0.01,-0.00,78.69,-8.69,-23.00
2026-06-27 11:38:26.435,-0.37,0.89,9.68,0.00,0.00,0.00,78.69,-8.69,-23.00
2026-06-27 11:38:26.450,-0.38,0.90,9.69,0.00,0.01,0.00,77.88,-7.56,-23.38
2026-06-27 11:38:26.463,-0.36,0.86,9.68,-0.00,0.01,0.00,77.88,-7.56,-23.38
2026-06-27 11:38:26.480,-0.37,0.87,9.65,0.00,0.00,-0.00,77.88,-7.56,-23.38
2026-06-27 11:38:26.493,-0.38,0.89,9.68,0.00,0.00,-0.00,79.00,-8.25,-23.00
2026-06-27 11:38:26.509,-0.38,0.86,9.66,-0.00,0.00,-0.00,79.00,-8.25,-23.00
2026-06-27 11:38:26.522,-0.40,0.83,9.68,0.00,0.00,-0.00,79.00,-8.25,-23.00
2026-06-27 11:38:26.535,-0.39,0.83,9.71,-0.00,0.00,-0.00,79.00,-8.25,-23.00
2026-06-27 11:38:26.550,-0.38,0.80,9.70,0.00,-0.00,0.00,78.25,-8.69,-23.00
2026-06-27 11:38:26.563,-0.37,0.81,9.66,0.00,-0.00,0.00,78.25,-8.69,-23.00
2026-06-27 11:38:26.580,-0.37,0.78,9.67,-0.00,-0.00,0.00,78.25,-8.69,-23.00
2026-06-27 11:38:26.593,-0.35,0.79,9.68,0.00,-0.00,0.00,77.88,-8.25,-21.75
2026-06-27 11:38:26.610,-0.38,0.79,9.67,-0.00,0.00,-0.00,77.88,-8.25,-21.75
2026-06-27 11:38:26.622,-0.37,0.76,9.68,0.00,-0.00,0.00,77.88,-8.25,-21.75
2026-06-27 11:38:26.635,-0.36,0.76,9.72,-0.00,-0.00,0.00,77.88,-8.25,-21.75
2026-06-27 11:38:26.650,-0.36,0.76,9.67,-0.00,-0.01,0.00,77.88,-8.25,-23.00
2026-06-27 11:38:26.663,-0.33,0.77,9.66,0.00,-0.00,-0.00,77.88,-8.25,-23.00
2026-06-27 11:38:26.681,-0.34,0.78,9.69,0.00,-0.00,0.00,77.88,-8.25,-23.00
2026-06-27 11:38:26.693,-0.34,0.79,9.69,0.00,-0.00,-0.00,77.88,-8.69,-23.38
2026-06-27 11:38:26.710,-0.37,0.82,9.68,0.00,-0.00,0.00,77.88,-8.69,-23.38
2026-06-27 11:38:26.722,-0.35,0.85,9.69,0.00,0.00,0.00,77.88,-8.69,-23.38
2026-06-27 11:38:26.735,-0.34,0.81,9.67,0.00,0.00,0.00,77.88,-8.69,-23.38
2026-06-27 11:38:26.751,-0.33,0.81,9.69,-0.00,0.00,-0.00,78.69,-7.88,-22.19
2026-06-27 11:38:26.766,-0.34,0.83,9.68,0.00,0.00,-0.00,78.69,-7.88,-22.19
2026-06-27 11:38:26.782,-0.34,0.85,9.69,0.00,0.00,-0.00,78.69,-7.88,-22.19
2026-06-27 11:38:26.799,-0.34,0.84,9.68,-0.00,0.00,-0.00,77.88,-7.56,-21.75
2026-06-27 11:38:26.812,-0.33,0.82,9.67,0.00,0.00,0.00,77.88,-7.56,-21.75
2026-06-27 11:38:26.830,-0.35,0.84,9.67,0.00,0.00,0.00,77.88,-7.56,-21.75
2026-06-27 11:38:26.842,-0.36,0.82,9.67,0.00,0.00,0.00,79.38,-9.06,-23.75
2026-06-27 11:38:26.860,-0.35,0.83,9.68,0.00,0.00,0.00,79.38,-9.06,-23.75
2026-06-27 11:38:26.872,-0.35,0.83,9.69,0.00,0.00,-0.00,79.38,-9.06,-23.75
2026-06-27 11:38:26.885,-0.36,0.82,9.70,0.00,0.00,-0.00,79.38,-9.06,-23.75
2026-06-27 11:38:26.901,-0.37,0.85,9.68,0.00,-0.00,0.00,79.00,-9.06,-23.00
2026-06-27 11:38:26.914,-0.34,0.84,9.66,0.00,0.00,-0.00,79.00,-9.06,-23.00
2026-06-27 11:38:26.931,-0.38,0.82,9.65,0.00,0.00,0.00,79.00,-9.06,-23.00
2026-06-27 11:38:26.943,-0.39,0.82,9.70,-0.00,0.00,0.00,78.25,-7.88,-22.19
2026-06-27 11:38:26.961,-0.35,0.79,9.68,0.00,0.00,0.00,78.25,-7.88,-22.19
2026-06-27 11:38:26.973,-0.37,0.77,9.68,-0.00,0.00,0.00,78.25,-7.88,-22.19
2026-06-27 11:38:26.986,-0.37,0.77,9.70,0.00,0.00,-0.00,78.25,-7.88,-22.19
2026-06-27 11:38:26.001,-0.38,0.77,9.67,-0.00,0.01,-0.00,78.69,-8.25,-23.38
2026-06-27 11:38:27.013,-0.36,0.78,9.65,0.00,0.00,0.00,78.69,-8.25,-23.38
2026-06-27 11:38:27.031,-0.36,0.78,9.67,0.00,0.00,0.00,78.69,-8.25,-23.38
2026-06-27 11:38:27.046,-0.36,0.77,9.67,0.00,-0.00,0.00,79.00,-8.25,-21.75
2026-06-27 11:38:27.062,-0.36,0.79,9.69,0.00,0.00,0.00,79.00,-8.25,-21.75
2026-06-27 11:38:27.074,-0.35,0.79,9.69,-0.00,0.00,0.00,79.00,-8.25,-21.75
2026-06-27 11:38:27.086,-0.37,0.81,9.73,0.00,0.00,0.00,79.00,-8.25,-21.75
2026-06-27 11:38:27.101,-0.36,0.82,9.69,-0.00,0.01,-0.00,79.00,-8.25,-21.75
2026-06-27 11:38:27.114,-0.38,0.83,9.67,0.00,0.00,-0.00,79.00,-8.25,-21.75
2026-06-27 11:38:27.132,-0.38,0.83,9.68,0.00,0.00,0.00,79.00,-8.25,-21.75
2026-06-27 11:38:27.150,-0.35,0.82,9.69,0.00,-0.00,0.00,79.00,-8.25,-23.00
2026-06-27 11:38:27.163,-0.35,0.84,9.68,-0.00,0.00,0.00,79.00,-8.25,-23.00
2026-06-27 11:38:27.179,-0.36,0.82,9.69,0.00,-0.00,0.00,79.00,-8.25,-23.00
2026-06-27 11:38:27.192,-0.37,0.83,9.68,0.00,0.00,-0.00,78.69,-8.25,-22.56
2026-06-27 11:38:27.206,-0.36,0.82,9.68,0.00,-0.00,0.00,78.69,-8.25,-22.56
2026-06-27 11:38:27.221,-0.36,0.81,9.65,0.00,-0.00,0.00,78.69,-8.25,-22.56
2026-06-27 11:38:27.233,-0.34,0.81,9.68,0.00,-0.00,0.00,78.69,-8.25,-22.56
2026-06-27 11:38:27.251,-0.35,0.80,9.69,0.00,-0.01,0.00,77.50,-8.25,-22.56
2026-06-27 11:38:27.264,-0.38,0.79,9.66,0.00,-0.00,-0.00,77.50,-8.25,-22.56
2026-06-27 11:38:27.282,-0.36,0.78,9.64,0.00,0.00,-0.00,77.50,-8.25,-22.56
2026-06-27 11:38:27.294,-0.36,0.77,9.67,0.00,-0.00,-0.00,78.25,-7.88,-22.56
2026-06-27 11:38:27.311,-0.38,0.79,9.67,0.00,-0.00,0.00,78.25,-7.88,-22.56
2026-06-27 11:38:27.324,-0.36,0.82,9.66,0.00,-0.00,0.00,78.25,-7.88,-22.56
2026-06-27 11:38:27.336,-0.38,0.81,9.66,0.00,-0.00,0.00,78.25,-7.88,-22.56
2026-06-27 11:38:27.352,-0.40,0.82,9.68,0.00,-0.00,0.00,79.00,-9.06,-23.00
2026-06-27 11:38:27.364,-0.37,0.85,9.68,0.00,-0.01,0.00,79.00,-9.06,-23.00
2026-06-27 11:38:27.382,-0.37,0.83,9.68,0.00,-0.00,-0.00,79.00,-9.06,-23.00
2026-06-27 11:38:27.400,-0.37,0.87,9.68,0.00,-0.00,0.00,78.69,-8.25,-21.75
2026-06-27 11:38:27.413,-0.36,0.83,9.66,-0.00,-0.00,0.00,78.69,-8.25,-21.75
2026-06-27 11:38:27.429,-0.37,0.81,9.68,-0.00,0.00,-0.00,78.69,-8.25,-21.75
2026-06-27 11:38:27.446,-0.38,0.84,9.70,-0.00,-0.00,0.00,78.25,-8.25,-23.00
2026-06-27 11:38:27.462,-0.38,0.81,9.68,0.00,-0.00,0.00,78.25,-8.25,-23.00
2026-06-27 11:38:27.477,-0.38,0.81,9.66,0.00,-0.00,0.00,78.25,-8.25,-23.00
2026-06-27 11:38:27.492,-0.39,0.81,9.68,0.00,-0.00,-0.00,79.75,-8.69,-22.56
2026-06-27 11:38:27.504,-0.37,0.77,9.69,0.00,-0.01,-0.00,79.75,-8.69,-22.56
2026-06-27 11:38:27.521,-0.34,0.77,9.67,-0.00,-0.01,-0.00,79.75,-8.69,-22.56
2026-06-27 11:38:27.533,-0.38,0.76,9.68,-0.00,-0.01,0.00,79.75,-8.69,-22.56
2026-06-27 11:38:27.549,-0.39,0.77,9.70,0.00,-0.01,0.00,79.38,-8.69,-22.56
2026-06-27 11:38:27.563,-0.38,0.77,9.70,0.00,-0.00,0.00,79.38,-8.69,-22.56
2026-06-27 11:38:27.575,-0.35,0.79,9.70,-0.00,0.00,0.00,79.38,-8.69,-22.56
2026-06-27 11:38:27.588,-0.36,0.79,9.69,0.00,-0.00,0.00,79.38,-8.69,-22.56
2026-06-27 11:38:27.602,-0.38,0.80,9.70,0.00,-0.00,-0.00,79.00,-8.69,-21.75
2026-06-27 11:38:27.615,-0.36,0.78,9.65,0.00,0.00,-0.00,79.00,-8.69,-21.75
2026-06-27 11:38:27.632,-0.35,0.81,9.69,0.00,0.00,-0.00,79.00,-8.69,-21.75
2026-06-27 11:38:27.645,-0.37,0.81,9.71,0.00,-0.00,-0.00,78.25,-8.69,-22.56
2026-06-27 11:38:27.662,-0.34,0.82,9.71,0.00,0.00,-0.00,78.25,-8.69,-22.56
2026-06-27 11:38:27.675,-0.39,0.83,9.68,0.00,-0.00,0.00,78.25,-8.69,-22.56
2026-06-27 11:38:27.687,-0.37,0.83,9.68,0.00,-0.00,0.00,78.25,-8.69,-22.56
2026-06-27 11:38:27.702,-0.38,0.87,9.69,0.00,0.00,0.00,77.50,-8.25,-22.19
2026-06-27 11:38:27.715,-0.36,0.84,9.67,0.00,0.01,-0.00,77.50,-8.25,-22.19
2026-06-27 11:38:27.732,-0.36,0.83,9.66,0.00,-0.00,-0.00,77.50,-8.25,-22.19
2026-06-27 11:38:27.745,-0.35,0.80,9.68,0.00,0.00,-0.00,79.38,-8.69,-22.56
2026-06-27 11:38:27.762,-0.36,0.81,9.68,0.00,0.00,-0.00,79.38,-8.69,-22.56
2026-06-27 11:38:27.775,-0.36,0.82,9.67,-0.00,0.00,0.00,79.38,-8.69,-22.56
2026-06-27 11:38:27.788,-0.37,0.82,9.69,0.00,-0.00,0.00,79.38,-8.69,-22.56
