timestamp,pressure_bag,pressure_bme,diff_pressure,v_wind_est,speed,accel_x,accel_y,accel_z,gyro_x,gyro_y,gyro_z,power
2026-06-26 18:16:34.558,994.09,994.08,-1.19,-1.45,0.00,1.32,0.26,9.22,0.00,-0.00,0.00,0.00
2026-06-26 18:16:34.560,994.09,994.08,-1.19,-1.45,0.00,1.32,0.24,9.23,-0.00,0.00,0.00,0.00
2026-06-26 18:16:34.566,994.09,994.08,-1.19,-1.45,0.00,1.32,0.24,9.23,-0.00,0.00,0.00,0.00
2026-06-26 18:16:34.569,994.09,994.08,-1.19,-1.45,0.00,1.34,0.27,9.24,0.00,0.00,0.00,0.00
2026-06-26 18:16:34.571,994.09,994.08,-1.19,-1.45,0.00,1.34,0.27,9.24,0.00,0.00,0.00,0.00
2026-06-26 18:16:34.573,994.09,994.08,-1.19,-1.45,0.00,1.34,0.27,9.24,0.00,0.00,0.00,0.00
2026-06-26 18:16:34.578,994.09,994.08,-1.19,-1.45,0.00,1.34,0.27,9.24,0.00,0.00,0.00,0.00
2026-06-26 18:16:34.580,994.09,994.08,-1.19,-1.45,0.00,1.30,0.27,9.20,-0.00,0.00,0.00,0.00
2026-06-26 18:16:34.583,994.09,994.08,-1.19,-1.45,0.00,1.30,0.27,9.20,-0.00,0.00,0.00,0.00
2026-06-26 18:16:34.589,994.09,994.08,-1.19,-1.45,0.00,1.30,0.27,9.20,-0.00,0.00,0.00,0.00
2026-06-26 18:16:34.591,994.09,994.08,-1.19,-1.45,0.00,1.35,0.27,9.24,-0.00,0.00,0.00,0.00
2026-06-26 18:16:34.592,994.09,994.08,-1.19,-1.45,0.00,1.35,0.27,9.24,-0.00,0.00,0.00,0.00
2026-06-26 18:16:34.594,994.09,994.08,-1.19,-1.45,0.00,1.35,0.27,9.24,-0.00,0.00,0.00,0.00
2026-06-26 18:16:34.599,994.09,994.08,-1.19,-1.45,0.00,1.35,0.27,9.24,-0.00,0.00,0.00,0.00
2026-06-26 18:16:34.600,994.09,994.08,-1.19,-1.45,0.00,1.31,0.24,9.23,-0.00,0.00,0.00,0.00
2026-06-26 18:16:34.607,994.09,994.08,-1.19,-1.45,0.00,1.31,0.24,9.23,-0.00,0.00,0.00,0.00
2026-06-26 18:16:34.609,994.09,994.08,-1.19,-1.45,0.00,1.33,0.26,9.24,-0.00,-0.00,-0.00,0.00
2026-06-26 18:16:34.611,994.09,994.08,-1.19,-1.45,0.00,1.33,0.26,9.24,-0.00,-0.00,-0.00,0.00
2026-06-26 18:16:34.649,994.09,994.09,-0.49,-0.93,0.00,1.32,0.28,9.23,-0.00,0.00,0.00,0.00
2026-06-26 18:16:34.651,994.09,994.09,-0.49,-0.93,0.00,1.32,0.28,9.23,-0.00,0.00,0.00,0.00
2026-06-26 18:16:34.694,994.09,994.09,-0.51,-0.95,0.00,1.32,0.26,9.24,0.00,-0.00,0.00,0.00
2026-06-26 18:16:34.698,994.09,994.09,-0.51,-0.95,0.00,1.32,0.26,9.24,0.00,-0.00,0.00,0.00
2026-06-26 18:16:34.700,994.09,994.09,-0.51,-0.95,0.00,1.31,0.26,9.22,-0.00,-0.00,0.00,0.00
2026-06-26 18:16:34.702,994.09,994.09,-0.51,-0.95,0.00,1.31,0.26,9.22,-0.00,-0.00,0.00,0.00
2026-06-26 18:16:34.706,994.09,994.09,-0.51,-0.95,0.00,1.31,0.26,9.22,-0.00,-0.00,0.00,0.00
2026-06-26 18:16:34.709,994.09,994.09,-0.51,-0.95,0.00,1.31,0.26,9.22,-0.00,0.00,0.00,0.00
2026-06-26 18:16:34.711,994.09,994.09,-0.51,-0.95,0.00,1.32,0.26,9.23,-0.00,0.00,0.00,0.00
2026-06-26 18:16:34.713,994.09,994.09,-0.51,-0.95,0.00,1.32,0.26,9.23,-0.00,0.00,0.00,0.00
2026-06-26 18:16:34.719,994.09,994.09,-0.51,-0.95,0.00,1.32,0.26,9.23,-0.00,0.00,0.00,0.00
2026-06-26 18:16:34.723,994.09,994.09,-0.51,-0.95,0.00,1.32,0.26,9.20,-0.00,0.00,-0.00,0.00
2026-06-26 18:16:34.727,994.09,994.09,-0.51,-0.95,0.00,1.32,0.26,9.20,-0.00,0.00,-0.00,0.00
2026-06-26 18:16:34.729,994.09,994.09,-0.51,-0.95,0.00,1.32,0.26,9.21,-0.00,-0.00,0.00,0.00
2026-06-26 18:16:34.730,994.09,994.09,-0.51,-0.95,0.00,1.32,0.26,9.21,-0.00,-0.00,0.00,0.00
2026-06-26 18:16:34.732,994.09,994.09,-0.51,-0.95,0.00,1.32,0.26,9.21,-0.00,-0.00,0.00,0.00
2026-06-26 18:16:34.733,994.09,994.09,-0.51,-0.95,0.00,1.32,0.26,9.21,-0.00,-0.00,0.00,0.00
2026-06-26 18:16:34.736,994.09,994.09,-0.51,-0.95,0.00,1.32,0.26,9.21,-0.00,-0.00,0.00,0.00
2026-06-26 18:16:34.739,994.09,994.09,-0.51,-0.95,0.00,1.32,0.26,9.21,-0.00,0.00,0.00,0.00
2026-06-26 18:16:34.741,994.09,994.09,-0.51,-0.95,0.00,1.32,0.26,9.19,-0.00,0.00,0.00,0.00
2026-06-26 18:16:34.742,994.09,994.09,-0.51,-0.95,0.00,1.32,0.26,9.19,-0.00,0.00,0.00,0.00
2026-06-26 18:16:34.744,994.09,994.09,-0.51,-0.95,0.00,1.32,0.26,9.19,-0.00,0.00,0.00,0.00
2026-06-26 18:16:34.746,994.09,994.09,-0.51,-0.95,0.00,1.32,0.26,9.19,-0.00,0.00,0.00,0.00
2026-06-26 18:16:34.749,994.09,994.09,-0.51,-0.95,0.00,1.32,0.26,9.19,-0.00,-0.00,-0.00,0.00
2026-06-26 18:16:34.793,994.09,994.09,-0.41,-0.85,0.00,1.31,0.27,9.23,-0.00,-0.00,0.00,0.00
2026-06-26 18:16:34.839,994.10,994.09,-0.64,-1.06,0.00,1.34,0.24,9.25,-0.00,0.00,0.00,0.00
2026-06-26 18:16:34.841,994.10,994.09,-0.64,-1.06,0.00,1.33,0.24,9.26,-0.00,0.00,0.00,0.00
2026-06-26 18:16:34.842,994.10,994.09,-0.64,-1.06,0.00,1.33,0.24,9.26,-0.00,0.00,0.00,0.00
2026-06-26 18:16:34.843,994.10,994.09,-0.64,-1.06,0.00,1.33,0.24,9.26,-0.00,0.00,0.00,0.00
2026-06-26 18:16:34.844,994.10,994.09,-0.64,-1.06,0.00,1.33,0.24,9.26,-0.00,0.00,0.00,0.00
2026-06-26 18:16:34.846,994.10,994.09,-0.64,-1.06,0.00,1.33,0.24,9.26,-0.00,0.00,0.00,0.00
2026-06-26 18:16:34.849,994.10,994.09,-0.64,-1.06,0.00,1.33,0.24,9.26,-0.00,-0.00,-0.00,0.00
2026-06-26 18:16:34.850,994.10,994.09,-0.64,-1.06,0.00,1.31,0.26,9.23,-0.00,-0.00,-0.00,0.00
2026-06-26 18:16:34.851,994.10,994.09,-0.64,-1.06,0.00,1.31,0.26,9.23,-0.00,-0.00,-0.00,0.00
2026-06-26 18:16:34.853,994.10,994.09,-0.64,-1.06,0.00,1.31,0.26,9.23,-0.00,-0.00,-0.00,0.00
2026-06-26 18:16:34.854,994.10,994.09,-0.64,-1.06,0.00,1.31,0.26,9.23,-0.00,-0.00,-0.00,0.00
2026-06-26 18:16:34.859,994.10,994.09,-0.64,-1.06,0.00,1.31,0.26,9.23,-0.00,-0.00,-0.00,0.00
2026-06-26 18:16:34.860,994.10,994.09,-0.64,-1.06,0.00,1.30,0.24,9.22,0.00,0.00,0.00,0.00
2026-06-26 18:16:34.861,994.10,994.09,-0.64,-1.06,0.00,1.30,0.24,9.22,0.00,0.00,0.00,0.00
2026-06-26 18:16:34.863,994.10,994.09,-0.64,-1.06,0.00,1.30,0.24,9.22,0.00,0.00,0.00,0.00
2026-06-26 18:16:34.864,994.10,994.09,-0.64,-1.06,0.00,1.30,0.24,9.22,0.00,0.00,0.00,0.00
2026-06-26 18:16:34.869,994.10,994.09,-0.64,-1.06,0.00,1.30,0.24,9.22,0.00,0.00,0.00,0.00
2026-06-26 18:16:34.870,994.10,994.09,-0.64,-1.06,0.00,1.33,0.26,9.22,-0.00,0.00,-0.00,0.00
2026-06-26 18:16:34.871,994.10,994.09,-0.64,-1.06,0.00,1.33,0.26,9.22,-0.00,0.00,-0.00,0.00
2026-06-26 18:16:34.872,994.10,994.09,-0.64,-1.06,0.00,1.33,0.26,9.22,-0.00,0.00,-0.00,0.00
2026-06-26 18:16:34.874,994.10,994.09,-0.64,-1.06,0.00,1.33,0.26,9.22,-0.00,0.00,-0.00,0.00
2026-06-26 18:16:34.879,994.10,994.09,-0.64,-1.06,0.00,1.33,0.26,9.22,-0.00,0.00,-0.00,0.00
2026-06-26 18:16:34.880,994.10,994.09,-0.64,-1.06,0.00,1.32,0.26,9.23,-0.00,0.00,0.00,0.00
2026-06-26 18:16:34.881,994.10,994.09,-0.64,-1.06,0.00,1.32,0.26,9.23,-0.00,0.00,0.00,0.00
2026-06-26 18:16:34.883,994.10,994.09,-0.64,-1.06,0.00,1.32,0.26,9.23,-0.00,0.00,0.00,0.00
2026-06-26 18:16:34.889,994.10,994.09,-0.64,-1.06,0.00,1.32,0.26,9.23,-0.00,0.00,0.00,0.00
2026-06-26 18:16:34.890,994.10,994.09,-0.64,-1.06,0.00,1.31,0.26,9.23,-0.00,0.00,-0.00,0.00
2026-06-26 18:16:34.891,994.10,994.09,-0.64,-1.06,0.00,1.31,0.26,9.23,-0.00,0.00,-0.00,0.00
2026-06-26 18:16:34.931,994.10,994.09,-0.16,-0.53,0.00,1.33,0.24,9.23,0.00,0.00,0.00,0.00
2026-06-26 18:16:34.940,994.10,994.09,-0.16,-0.53,0.00,1.33,0.24,9.23,0.00,-0.00,0.00,0.00
2026-06-26 18:16:34.982,994.10,994.09,-0.45,-0.89,0.00,1.32,0.26,9.22,-0.00,-0.00,0.00,0.00
2026-06-26 18:16:34.983,994.10,994.09,-0.45,-0.89,0.00,1.32,0.26,9.22,-0.00,-0.00,0.00,0.00
2026-06-26 18:16:34.988,994.10,994.09,-0.45,-0.89,0.00,1.32,0.26,9.22,-0.00,-0.00,0.00,0.00
2026-06-26 18:16:34.990,994.10,994.09,-0.45,-0.89,0.00,1.31,0.24,9.23,0.00,0.00,-0.00,0.00
2026-06-26 18:16:34.991,994.10,994.09,-0.45,-0.89,0.00,1.31,0.24,9.23,0.00,0.00,-0.00,0.00
2026-06-26 18:16:34.993,994.10,994.09,-0.45,-0.89,0.00,1.31,0.24,9.23,0.00,0.00,-0.00,0.00
2026-06-26 18:16:34.994,994.10,994.09,-0.45,-0.89,0.00,1.31,0.24,9.23,0.00,0.00,-0.00,0.00
2026-06-26 18:16:34.995,994.10,994.09,-0.45,-0.89,0.00,1.31,0.24,9.23,0.00,0.00,-0.00,0.00
2026-06-26 18:16:34.996,994.10,994.09,-0.45,-0.89,0.00,1.31,0.24,9.23,0.00,0.00,-0.00,0.00
2026-06-26 18:16:34.998,994.10,994.09,-0.45,-0.89,0.00,1.31,0.24,9.23,0.00,0.00,-0.00,0.00
2026-06-26 18:16:34.000,994.10,994.09,-0.45,-0.89,0.00,1.31,0.24,9.23,-0.00,0.00,0.00,0.00
2026-06-26 18:16:34.001,994.10,994.09,-0.45,-0.89,0.00,1.31,0.25,9.25,-0.00,0.00,0.00,0.00
2026-06-26 18:16:34.002,994.10,994.09,-0.45,-0.89,0.00,1.31,0.25,9.25,-0.00,0.00,0.00,0.00
2026-06-26 18:16:35.003,994.10,994.09,-0.45,-0.89,0.00,1.31,0.25,9.25,-0.00,0.00,0.00,0.00
2026-06-26 18:16:35.005,994.10,994.09,-0.45,-0.89,0.00,1.31,0.25,9.25,-0.00,0.00,0.00,0.00
2026-06-26 18:16:35.010,994.10,994.09,-0.45,-0.89,0.00,1.31,0.25,9.25,-0.00,0.00,0.00,0.00
2026-06-26 18:16:35.011,994.10,994.09,-0.45,-0.89,0.00,1.32,0.27,9.22,-0.00,0.00,0.00,0.00
2026-06-26 18:16:35.013,994.10,994.09,-0.45,-0.89,0.00,1.32,0.27,9.22,-0.00,0.00,0.00,0.00
2026-06-26 18:16:35.019,994.10,994.09,-0.45,-0.89,0.00,1.32,0.27,9.22,-0.00,0.00,0.00,0.00
2026-06-26 18:16:35.020,994.10,994.09,-0.45,-0.89,0.00,1.33,0.25,9.22,-0.00,-0.00,0.00,0.00
2026-06-26 18:16:35.022,994.10,994.09,-0.45,-0.89,0.00,1.33,0.25,9.22,-0.00,-0.00,0.00,0.00
2026-06-26 18:16:35.023,994.10,994.09,-0.45,-0.89,0.00,1.33,0.25,9.22,-0.00,-0.00,0.00,0.00
2026-06-26 18:16:35.024,994.10,994.09,-0.45,-0.89,0.00,1.33,0.25,9.22,-0.00,-0.00,0.00,0.00
2026-06-26 18:16:35.027,994.10,994.09,-0.45,-0.89,0.00,1.33,0.25,9.22,-0.00,-0.00,0.00,0.00
2026-06-26 18:16:35.030,994.10,994.09,-0.45,-0.89,0.00,1.33,0.25,9.22,0.00,-0.00,0.00,0.00
2026-06-26 18:16:35.073,994.10,994.09,-0.65,-1.06,0.00,1.31,0.27,9.18,-0.00,0.00,-0.00,0.00
2026-06-26 18:16:35.079,994.10,994.09,-0.65,-1.06,0.00,1.31,0.27,9.18,-0.00,0.00,-0.00,0.00
2026-06-26 18:16:35.081,994.10,994.09,-0.65,-1.06,0.00,1.33,0.26,9.23,0.00,-0.00,0.00,0.00
2026-06-26 18:16:35.120,994.10,994.09,-0.90,-1.26,0.00,1.34,0.25,9.24,-0.00,0.00,0.00,0.00
2026-06-26 18:16:35.122,994.10,994.09,-0.90,-1.26,0.00,1.34,0.25,9.24,-0.00,0.00,0.00,0.00
2026-06-26 18:16:35.124,994.10,994.09,-0.90,-1.26,0.00,1.34,0.25,9.24,-0.00,0.00,0.00,0.00
2026-06-26 18:16:35.128,994.10,994.09,-0.90,-1.26,0.00,1.34,0.25,9.24,-0.00,0.00,0.00,0.00
2026-06-26 18:16:35.130,994.10,994.09,-0.90,-1.26,0.00,1.32,0.27,9.20,-0.00,0.00,0.00,0.00
2026-06-26 18:16:35.131,994.10,994.09,-0.90,-1.26,0.00,1.32,0.27,9.20,-0.00,0.00,0.00,0.00
2026-06-26 18:16:35.133,994.10,994.09,-0.90,-1.26,0.00,1.32,0.27,9.20,-0.00,0.00,0.00,0.00
2026-06-26 18:16:35.134,994.10,994.09,-0.90,-1.26,0.00,1.32,0.27,9.20,-0.00,0.00,0.00,0.00
2026-06-26 18:16:35.137,994.10,994.09,-0.90,-1.26,0.00,1.32,0.27,9.20,-0.00,0.00,0.00,0.00
2026-06-26 18:16:35.141,994.10,994.09,-0.90,-1.26,0.00,1.32,0.27,9.20,0.00,0.00,0.00,0.00
2026-06-26 18:16:35.142,994.10,994.09,-0.90,-1.26,0.00,1.31,0.26,9.27,0.00,0.00,0.00,0.00
2026-06-26 18:16:35.144,994.10,994.09,-0.90,-1.26,0.00,1.31,0.26,9.27,0.00,0.00,0.00,0.00
2026-06-26 18:16:35.146,994.10,994.09,-0.90,-1.26,0.00,1.31,0.26,9.27,0.00,0.00,0.00,0.00
2026-06-26 18:16:35.147,994.10,994.09,-0.90,-1.26,0.00,1.31,0.26,9.27,0.00,0.00,0.00,0.00
2026-06-26 18:16:35.150,994.10,994.09,-0.90,-1.26,0.00,1.31,0.26,9.27,0.00,0.00,0.00,0.00
2026-06-26 18:16:35.152,994.10,994.09,-0.90,-1.26,0.00,1.31,0.27,9.23,0.00,0.00,0.00,0.00
2026-06-26 18:16:35.153,994.10,994.09,-0.90,-1.26,0.00,1.31,0.27,9.23,0.00,0.00,0.00,0.00
2026-06-26 18:16:35.154,994.10,994.09,-0.90,-1.26,0.00,1.31,0.27,9.23,0.00,0.00,0.00,0.00
2026-06-26 18:16:35.159,994.10,994.09,-0.90,-1.26,0.00,1.31,0.27,9.23,0.00,0.00,0.00,0.00
2026-06-26 18:16:35.161,994.10,994.09,-0.90,-1.26,0.00,1.32,0.25,9.22,-0.00,0.00,-0.00,0.00
2026-06-26 18:16:35.162,994.10,994.09,-0.90,-1.26,0.00,1.32,0.25,9.22,-0.00,0.00,-0.00,0.00
2026-06-26 18:16:35.163,994.10,994.09,-0.90,-1.26,0.00,1.32,0.25,9.22,-0.00,0.00,-0.00,0.00
2026-06-26 18:16:35.169,994.10,994.09,-0.90,-1.26,0.00,1.32,0.25,9.22,-0.00,0.00,-0.00,0.00
2026-06-26 18:16:35.171,994.10,994.09,-0.90,-1.26,0.00,1.33,0.25,9.21,-0.00,-0.00,0.00,0.00
2026-06-26 18:16:35.172,994.10,994.09,-0.90,-1.26,0.00,1.33,0.25,9.21,-0.00,-0.00,0.00,0.00
2026-06-26 18:16:35.218,994.10,994.09,-0.92,-1.27,0.00,1.34,0.24,9.24,0.00,-0.00,-0.00,0.00
2026-06-26 18:16:35.260,994.10,994.09,-1.01,-1.33,0.00,1.32,0.26,9.21,0.00,-0.00,0.00,0.00
2026-06-26 18:16:35.262,994.10,994.09,-1.01,-1.33,0.00,1.32,0.26,9.21,0.00,-0.00,0.00,0.00
2026-06-26 18:16:35.263,994.10,994.09,-1.01,-1.33,0.00,1.32,0.26,9.21,0.00,-0.00,0.00,0.00
2026-06-26 18:16:35.264,994.10,994.09,-1.01,-1.33,0.00,1.32,0.26,9.21,0.00,-0.00,0.00,0.00
2026-06-26 18:16:35.269,994.10,994.09,-1.01,-1.33,0.00,1.32,0.26,9.21,0.00,-0.00,0.00,0.00
2026-06-26 18:16:35.271,994.10,994.09,-1.01,-1.33,0.00,1.32,0.25,9.20,0.00,-0.00,-0.00,0.00
2026-06-26 18:16:35.272,994.10,994.09,-1.01,-1.33,0.00,1.32,0.25,9.20,0.00,-0.00,-0.00,0.00
2026-06-26 18:16:35.273,994.10,994.09,-1.01,-1.33,0.00,1.32,0.25,9.20,0.00,-0.00,-0.00,0.00
2026-06-26 18:16:35.274,994.10,994.09,-1.01,-1.33,0.00,1.32,0.25,9.20,0.00,-0.00,-0.00,0.00
2026-06-26 18:16:35.277,994.10,994.09,-1.01,-1.33,0.00,1.32,0.25,9.20,0.00,-0.00,-0.00,0.00
2026-06-26 18:16:35.280,994.10,994.09,-1.01,-1.33,0.00,1.32,0.25,9.20,0.00,-0.00,0.00,0.00
2026-06-26 18:16:35.281,994.10,994.09,-1.01,-1.33,0.00,1.33,0.26,9.23,0.00,-0.00,0.00,0.00
2026-06-26 18:16:35.283,994.10,994.09,-1.01,-1.33,0.00,1.33,0.26,9.23,0.00,-0.00,0.00,0.00
2026-06-26 18:16:35.284,994.10,994.09,-1.01,-1.33,0.00,1.33,0.26,9.23,0.00,-0.00,0.00,0.00
2026-06-26 18:16:35.285,994.10,994.09,-1.01,-1.33,0.00,1.33,0.26,9.23,0.00,-0.00,0.00,0.00
2026-06-26 18:16:35.290,994.10,994.09,-1.01,-1.33,0.00,1.33,0.26,9.23,0.00,-0.00,0.00,0.00
2026-06-26 18:16:35.291,994.10,994.09,-1.01,-1.33,0.00,1.33,0.26,9.21,0.00,0.00,0.00,0.00
2026-06-26 18:16:35.292,994.10,994.09,-1.01,-1.33,0.00,1.33,0.26,9.21,0.00,0.00,0.00,0.00
2026-06-26 18:16:35.294,994.10,994.09,-1.01,-1.33,0.00,1.33,0.26,9.21,0.00,0.00,0.00,0.00
2026-06-26 18:16:35.295,994.10,994.09,-1.01,-1.33,0.00,1.33,0.26,9.21,0.00,0.00,0.00,0.00
2026-06-26 18:16:35.296,994.10,994.09,-1.01,-1.33,0.00,1.33,0.26,9.21,0.00,0.00,0.00,0.00
2026-06-26 18:16:35.297,994.10,994.09,-1.01,-1.33,0.00,1.33,0.26,9.21,0.00,0.00,0.00,0.00
2026-06-26 18:16:35.300,994.10,994.09,-1.01,-1.33,0.00,1.33,0.26,9.21,0.00,0.00,0.00,0.00
2026-06-26 18:16:35.302,994.10,994.09,-1.01,-1.33,0.00,1.33,0.28,9.25,0.00,0.00,0.00,0.00
2026-06-26 18:16:35.303,994.10,994.09,-1.01,-1.33,0.00,1.33,0.28,9.25,0.00,0.00,0.00,0.00
2026-06-26 18:16:35.304,994.10,994.09,-1.01,-1.33,0.00,1.33,0.28,9.25,0.00,0.00,0.00,0.00
2026-06-26 18:16:35.308,994.10,994.09,-1.01,-1.33,0.00,1.33,0.28,9.25,0.00,0.00,0.00,0.00
2026-06-26 18:16:35.310,994.10,994.09,-1.01,-1.33,0.00,1.33,0.28,9.25,0.00,0.00,0.00,0.00
2026-06-26 18:16:35.312,994.10,994.09,-1.01,-1.33,0.00,1.32,0.28,9.23,0.00,0.00,0.00,0.00
2026-06-26 18:16:35.313,994.10,994.09,-1.01,-1.33,0.00,1.32,0.28,9.23,0.00,0.00,0.00,0.00
2026-06-26 18:16:35.318,994.10,994.09,-1.01,-1.33,0.00,1.32,0.28,9.23,0.00,0.00,0.00,0.00
2026-06-26 18:16:35.360,994.10,994.09,-0.71,-1.12,0.00,1.33,0.27,9.23,-0.00,-0.00,-0.00,0.00
2026-06-26 18:16:35.403,994.10,994.09,-0.60,-1.02,0.00,1.32,0.27,9.23,0.00,-0.00,0.00,0.00
2026-06-26 18:16:35.404,994.10,994.09,-0.60,-1.02,0.00,1.32,0.27,9.23,0.00,-0.00,0.00,0.00
2026-06-26 18:16:35.410,994.10,994.09,-0.60,-1.02,0.00,1.32,0.27,9.23,0.00,-0.00,0.00,0.00
2026-06-26 18:16:35.411,994.10,994.09,-0.60,-1.02,0.00,1.34,0.25,9.22,0.00,0.00,0.00,0.00
2026-06-26 18:16:35.412,994.10,994.09,-0.60,-1.02,0.00,1.34,0.25,9.22,0.00,0.00,0.00,0.00
2026-06-26 18:16:35.414,994.10,994.09,-0.60,-1.02,0.00,1.34,0.25,9.22,0.00,0.00,0.00,0.00
2026-06-26 18:16:35.415,994.10,994.09,-0.60,-1.02,0.00,1.34,0.25,9.22,0.00,0.00,0.00,0.00
2026-06-26 18:16:35.420,994.10,994.09,-0.60,-1.02,0.00,1.34,0.25,9.22,0.00,0.00,0.00,0.00
2026-06-26 18:16:35.421,994.10,994.09,-0.60,-1.02,0.00,1.33,0.23,9.18,-0.00,-0.00,0.00,0.00
2026-06-26 18:16:35.422,994.10,994.09,-0.60,-1.02,0.00,1.33,0.23,9.18,-0.00,-0.00,0.00,0.00
2026-06-26 18:16:35.423,994.10,994.09,-0.60,-1.02,0.00,1.33,0.23,9.18,-0.00,-0.00,0.00,0.00
2026-06-26 18:16:35.425,994.10,994.09,-0.60,-1.02,0.00,1.33,0.23,9.18,-0.00,-0.00,0.00,0.00
2026-06-26 18:16:35.426,994.10,994.09,-0.60,-1.02,0.00,1.33,0.23,9.18,-0.00,-0.00,0.00,0.00
2026-06-26 18:16:35.430,994.10,994.09,-0.60,-1.02,0.00,1.33,0.23,9.18,0.00,0.00,0.00,0.00
2026-06-26 18:16:35.433,994.10,994.09,-0.60,-1.02,0.00,1.32,0.27,9.25,0.00,0.00,0.00,0.00
2026-06-26 18:16:35.434,994.10,994.09,-0.60,-1.02,0.00,1.32,0.27,9.25,0.00,0.00,0.00,0.00
2026-06-26 18:16:35.437,994.10,994.09,-0.60,-1.02,0.00,1.32,0.27,9.25,0.00,0.00,0.00,0.00
2026-06-26 18:16:35.441,994.10,994.09,-0.60,-1.02,0.00,1.32,0.27,9.25,0.00,0.00,-0.00,0.00
2026-06-26 18:16:35.442,994.10,994.09,-0.60,-1.02,0.00,1.34,0.26,9.25,0.00,0.00,-0.00,0.00
2026-06-26 18:16:35.443,994.10,994.09,-0.60,-1.02,0.00,1.34,0.26,9.25,0.00,0.00,-0.00,0.00
2026-06-26 18:16:35.444,994.10,994.09,-0.60,-1.02,0.00,1.34,0.26,9.25,0.00,0.00,-0.00,0.00
2026-06-26 18:16:35.446,994.10,994.09,-0.60,-1.02,0.00,1.34,0.26,9.25,0.00,0.00,-0.00,0.00
2026-06-26 18:16:35.447,994.10,994.09,-0.60,-1.02,0.00,1.34,0.26,9.25,0.00,0.00,-0.00,0.00
2026-06-26 18:16:35.448,994.10,994.09,-0.60,-1.02,0.00,1.34,0.26,9.25,0.00,0.00,-0.00,0.00
2026-06-26 18:16:35.450,994.10,994.09,-0.60,-1.02,0.00,1.34,0.26,9.25,0.00,0.00,-0.00,0.00
2026-06-26 18:16:35.451,994.10,994.09,-0.60,-1.02,0.00,1.31,0.26,9.25,0.00,-0.00,-0.00,0.00
2026-06-26 18:16:35.453,994.10,994.09,-0.60,-1.02,0.00,1.31,0.26,9.25,0.00,-0.00,-0.00,0.00
2026-06-26 18:16:35.454,994.10,994.09,-0.60,-1.02,0.00,1.31,0.26,9.25,0.00,-0.00,-0.00,0.00
2026-06-26 18:16:35.455,994.10,994.09,-0.60,-1.02,0.00,1.31,0.26,9.25,0.00,-0.00,-0.00,0.00
2026-06-26 18:16:35.460,994.10,994.09,-0.60,-1.02,0.00,1.31,0.26,9.25,0.00,-0.00,-0.00,0.00
2026-06-26 18:16:35.502,994.10,994.09,-0.71,-1.12,0.00,1.31,0.26,9.22,0.00,0.00,0.00,0.00
2026-06-26 18:16:35.548,994.10,994.09,-0.87,-1.24,0.00,1.32,0.27,9.24,-0.00,0.00,0.00,0.00
2026-06-26 18:16:35.551,994.10,994.09,-0.87,-1.24,0.00,1.32,0.27,9.24,0.00,0.00,0.00,0.00
2026-06-26 18:16:35.553,994.10,994.09,-0.87,-1.24,0.00,1.31,0.26,9.21,0.00,0.00,0.00,0.00
2026-06-26 18:16:35.555,994.10,994.09,-0.87,-1.24,0.00,1.31,0.26,9.21,0.00,0.00,0.00,0.00
2026-06-26 18:16:35.560,994.10,994.09,-0.87,-1.24,0.00,1.31,0.26,9.21,0.00,0.00,0.00,0.00
2026-06-26 18:16:35.561,994.10,994.09,-0.87,-1.24,0.00,1.31,0.26,9.23,0.00,0.00,0.00,0.00
2026-06-26 18:16:35.562,994.10,994.09,-0.87,-1.24,0.00,1.31,0.26,9.23,0.00,0.00,0.00,0.00
2026-06-26 18:16:35.564,994.10,994.09,-0.87,-1.24,0.00,1.31,0.26,9.23,0.00,0.00,0.00,0.00
2026-06-26 18:16:35.565,994.10,994.09,-0.87,-1.24,0.00,1.31,0.26,9.23,0.00,0.00,0.00,0.00
2026-06-26 18:16:35.570,994.10,994.09,-0.87,-1.24,0.00,1.31,0.26,9.23,0.00,0.00,0.00,0.00
2026-06-26 18:16:35.571,994.10,994.09,-0.87,-1.24,0.00,1.31,0.26,9.22,0.00,0.00,0.00,0.00
2026-06-26 18:16:35.572,994.10,994.09,-0.87,-1.24,0.00,1.31,0.26,9.22,0.00,0.00,0.00,0.00
2026-06-26 18:16:35.574,994.10,994.09,-0.87,-1.24,0.00,1.31,0.26,9.22,0.00,0.00,0.00,0.00
2026-06-26 18:16:35.575,994.10,994.09,-0.87,-1.24,0.00,1.31,0.26,9.22,0.00,0.00,0.00,0.00
2026-06-26 18:16:35.580,994.10,994.09,-0.87,-1.24,0.00,1.31,0.26,9.22,0.00,0.00,0.00,0.00
2026-06-26 18:16:35.581,994.10,994.09,-0.87,-1.24,0.00,1.32,0.28,9.20,0.00,0.00,0.00,0.00
2026-06-26 18:16:35.582,994.10,994.09,-0.87,-1.24,0.00,1.32,0.28,9.20,0.00,0.00,0.00,0.00
2026-06-26 18:16:35.584,994.10,994.09,-0.87,-1.24,0.00,1.32,0.28,9.20,0.00,0.00,0.00,0.00
2026-06-26 18:16:35.585,994.10,994.09,-0.87,-1.24,0.00,1.32,0.28,9.20,0.00,0.00,0.00,0.00
2026-06-26 18:16:35.588,994.10,994.09,-0.87,-1.24,0.00,1.32,0.28,9.20,0.00,0.00,0.00,0.00
2026-06-26 18:16:35.591,994.10,994.09,-0.87,-1.24,0.00,1.32,0.28,9.20,-0.00,-0.00,0.00,0.00
2026-06-26 18:16:35.592,994.10,994.09,-0.87,-1.24,0.00,1.33,0.25,9.23,-0.00,-0.00,0.00,0.00
2026-06-26 18:16:35.594,994.10,994.09,-0.87,-1.24,0.00,1.33,0.25,9.23,-0.00,-0.00,0.00,0.00
2026-06-26 18:16:35.595,994.10,994.09,-0.87,-1.24,0.00,1.33,0.25,9.23,-0.00,-0.00,0.00,0.00
2026-06-26 18:16:35.597,994.10,994.09,-0.87,-1.24,0.00,1.33,0.25,9.23,-0.00,-0.00,0.00,0.00
2026-06-26 18:16:35.601,994.10,994.09,-0.87,-1.24,0.00,1.33,0.25,9.23,0.00,-0.00,0.00,0.00
2026-06-26 18:16:35.642,994.10,994.09,-0.95,-1.29,0.00,1.32,0.25,9.23,-0.00,0.00,-0.00,0.00
2026-06-26 18:16:35.643,994.10,994.09,-0.95,-1.29,0.00,1.32,0.25,9.23,-0.00,0.00,-0.00,0.00
2026-06-26 18:16:35.645,994.10,994.09,-0.95,-1.29,0.00,1.32,0.25,9.23,-0.00,0.00,-0.00,0.00
2026-06-26 18:16:35.646,994.10,994.09,-0.95,-1.29,0.00,1.32,0.25,9.23,-0.00,0.00,-0.00,0.00
2026-06-26 18:16:35.691,994.11,994.09,-1.39,-1.56,0.00,1.32,0.25,9.21,-0.00,0.00,0.00,0.00
2026-06-26 18:16:35.692,994.11,994.09,-1.39,-1.56,0.00,1.33,0.27,9.26,0.00,-0.00,0.00,0.00
2026-06-26 18:16:35.694,994.11,994.09,-1.39,-1.56,0.00,1.33,0.27,9.26,0.00,-0.00,0.00,0.00
2026-06-26 18:16:35.695,994.11,994.09,-1.39,-1.56,0.00,1.33,0.27,9.26,0.00,-0.00,0.00,0.00
2026-06-26 18:16:35.696,994.11,994.09,-1.39,-1.56,0.00,1.33,0.27,9.26,0.00,-0.00,0.00,0.00
2026-06-26 18:16:35.697,994.11,994.09,-1.39,-1.56,0.00,1.33,0.27,9.26,0.00,-0.00,0.00,0.00
2026-06-26 18:16:35.698,994.11,994.09,-1.39,-1.56,0.00,1.33,0.27,9.26,0.00,-0.00,0.00,0.00
2026-06-26 18:16:35.700,994.11,994.09,-1.39,-1.56,0.00,1.33,0.27,9.26,0.00,-0.00,0.00,0.00
2026-06-26 18:16:35.701,994.11,994.09,-1.39,-1.56,0.00,1.32,0.25,9.24,-0.00,0.00,0.00,0.00
2026-06-26 18:16:35.703,994.11,994.09,-1.39,-1.56,0.00,1.32,0.25,9.24,-0.00,0.00,0.00,0.00
2026-06-26 18:16:35.704,994.11,994.09,-1.39,-1.56,0.00,1.32,0.25,9.24,-0.00,0.00,0.00,0.00
2026-06-26 18:16:35.705,994.11,994.09,-1.39,-1.56,0.00,1.32,0.25,9.24,-0.00,0.00,0.00,0.00
2026-06-26 18:16:35.709,994.11,994.09,-1.39,-1.56,0.00,1.32,0.25,9.24,-0.00,0.00,0.00,0.00
2026-06-26 18:16:35.712,994.11,994.09,-1.39,-1.56,0.00,1.32,0.26,9.22,0.00,0.00,-0.00,0.00
2026-06-26 18:16:35.714,994.11,994.09,-1.39,-1.56,0.00,1.32,0.26,9.22,0.00,0.00,-0.00,0.00
2026-06-26 18:16:35.716,994.11,994.09,-1.39,-1.56,0.00,1.32,0.26,9.22,0.00,0.00,-0.00,0.00
2026-06-26 18:16:35.721,994.11,994.09,-1.39,-1.56,0.00,1.32,0.26,9.22,0.00,-0.00,-0.00,0.00
2026-06-26 18:16:35.724,994.11,994.09,-1.39,-1.56,0.00,1.34,0.25,9.19,0.00,-0.00,-0.00,0.00
2026-06-26 18:16:35.726,994.11,994.09,-1.39,-1.56,0.00,1.34,0.25,9.19,0.00,-0.00,-0.00,0.00
2026-06-26 18:16:35.731,994.11,994.09,-1.39,-1.56,0.00,1.34,0.25,9.19,0.00,-0.00,-0.00,0.00
2026-06-26 18:16:35.732,994.11,994.09,-1.39,-1.56,0.00,1.31,0.26,9.22,0.00,0.00,0.00,0.00
2026-06-26 18:16:35.733,994.11,994.09,-1.39,-1.56,0.00,1.31,0.26,9.22,0.00,0.00,0.00,0.00
2026-06-26 18:16:35.735,994.11,994.09,-1.39,-1.56,0.00,1.31,0.26,9.22,0.00,0.00,0.00,0.00
2026-06-26 18:16:35.736,994.11,994.09,-1.39,-1.56,0.00,1.31,0.26,9.22,0.00,0.00,0.00,0.00
2026-06-26 18:16:35.741,994.11,994.09,-1.39,-1.56,0.00,1.31,0.26,9.22,0.00,0.00,0.00,0.00
2026-06-26 18:16:35.782,994.11,994.10,-0.80,-1.19,0.00,1.32,0.25,9.21,-0.00,0.00,0.00,0.00
2026-06-26 18:16:35.784,994.11,994.10,-0.80,-1.19,0.00,1.32,0.25,9.21,-0.00,0.00,0.00,0.00
2026-06-26 18:16:35.785,994.11,994.10,-0.80,-1.19,0.00,1.32,0.25,9.21,-0.00,0.00,0.00,0.00
2026-06-26 18:16:35.791,994.11,994.10,-0.80,-1.19,0.00,1.32,0.25,9.21,-0.00,0.00,0.00,0.00
2026-06-26 18:16:35.834,994.11,994.10,-0.80,-1.18,0.00,1.32,0.25,9.23,-0.00,0.00,0.00,0.00
2026-06-26 18:16:35.835,994.11,994.10,-0.80,-1.18,0.00,1.32,0.25,9.23,-0.00,0.00,0.00,0.00
2026-06-26 18:16:35.841,994.11,994.10,-0.80,-1.18,0.00,1.32,0.25,9.23,-0.00,0.00,0.00,0.00
2026-06-26 18:16:35.843,994.11,994.10,-0.80,-1.18,0.00,1.34,0.27,9.20,0.00,0.00,0.00,0.00
2026-06-26 18:16:35.845,994.11,994.10,-0.80,-1.18,0.00,1.34,0.27,9.20,0.00,0.00,0.00,0.00
2026-06-26 18:16:35.846,994.11,994.10,-0.80,-1.18,0.00,1.34,0.27,9.20,0.00,0.00,0.00,0.00
2026-06-26 18:16:35.848,994.11,994.10,-0.80,-1.18,0.00,1.34,0.27,9.20,0.00,0.00,0.00,0.00
2026-06-26 18:16:35.850,994.11,994.10,-0.80,-1.18,0.00,1.34,0.27,9.20,0.00,0.00,0.00,0.00
2026-06-26 18:16:35.852,994.11,994.10,-0.80,-1.18,0.00,1.33,0.25,9.24,0.00,-0.00,-0.00,0.00
2026-06-26 18:16:35.853,994.11,994.10,-0.80,-1.18,0.00,1.33,0.25,9.24,0.00,-0.00,-0.00,0.00
2026-06-26 18:16:35.854,994.11,994.10,-0.80,-1.18,0.00,1.33,0.25,9.24,0.00,-0.00,-0.00,0.00
2026-06-26 18:16:35.856,994.11,994.10,-0.80,-1.18,0.00,1.33,0.25,9.24,0.00,-0.00,-0.00,0.00
2026-06-26 18:16:35.861,994.11,994.10,-0.80,-1.18,0.00,1.33,0.25,9.24,0.00,-0.00,-0.00,0.00
2026-06-26 18:16:35.862,994.11,994.10,-0.80,-1.18,0.00,1.32,0.26,9.21,-0.00,-0.00,0.00,0.00
2026-06-26 18:16:35.864,994.11,994.10,-0.80,-1.18,0.00,1.32,0.26,9.21,-0.00,-0.00,0.00,0.00
2026-06-26 18:16:35.865,994.11,994.10,-0.80,-1.18,0.00,1.32,0.26,9.21,-0.00,-0.00,0.00,0.00
2026-06-26 18:16:35.868,994.11,994.10,-0.80,-1.18,0.00,1.32,0.26,9.21,-0.00,-0.00,0.00,0.00
2026-06-26 18:16:35.872,994.11,994.10,-0.80,-1.18,0.00,1.32,0.26,9.21,0.00,-0.00,-0.00,0.00
2026-06-26 18:16:35.873,994.11,994.10,-0.80,-1.18,0.00,1.31,0.25,9.23,0.00,-0.00,-0.00,0.00
2026-06-26 18:16:35.875,994.11,994.10,-0.80,-1.18,0.00,1.31,0.25,9.23,0.00,-0.00,-0.00,0.00
2026-06-26 18:16:35.881,994.11,994.10,-0.80,-1.18,0.00,1.31,0.25,9.23,0.00,-0.00,-0.00,0.00
2026-06-26 18:16:35.923,994.11,994.10,-0.70,-1.11,0.00,1.31,0.28,9.25,0.00,-0.00,0.00,0.00
2026-06-26 18:16:35.925,994.11,994.10,-0.70,-1.11,0.00,1.31,0.28,9.25,0.00,-0.00,0.00,0.00
2026-06-26 18:16:35.926,994.11,994.10,-0.70,-1.11,0.00,1.31,0.28,9.25,0.00,-0.00,0.00,0.00
2026-06-26 18:16:35.929,994.11,994.10,-0.70,-1.11,0.00,1.31,0.28,9.25,0.00,-0.00,0.00,0.00
2026-06-26 18:16:35.932,994.11,994.10,-0.70,-1.11,0.00,1.31,0.28,9.25,0.00,-0.00,0.00,0.00
2026-06-26 18:16:35.934,994.11,994.10,-0.70,-1.11,0.00,1.32,0.24,9.23,0.00,-0.00,0.00,0.00
2026-06-26 18:16:35.976,994.11,994.10,-0.97,-1.30,0.00,1.33,0.25,9.21,-0.00,0.00,0.00,0.00
2026-06-26 18:16:35.981,994.11,994.10,-0.97,-1.30,0.00,1.33,0.25,9.21,-0.00,0.00,0.00,0.00
2026-06-26 18:16:35.983,994.11,994.10,-0.97,-1.30,0.00,1.32,0.25,9.22,0.00,-0.00,-0.00,0.00
2026-06-26 18:16:35.984,994.11,994.10,-0.97,-1.30,0.00,1.32,0.25,9.22,0.00,-0.00,-0.00,0.00
2026-06-26 18:16:35.985,994.11,994.10,-0.97,-1.30,0.00,1.32,0.25,9.22,0.00,-0.00,-0.00,0.00
2026-06-26 18:16:35.989,994.11,994.10,-0.97,-1.30,0.00,1.32,0.25,9.22,0.00,-0.00,-0.00,0.00
2026-06-26 18:16:35.992,994.11,994.10,-0.97,-1.30,0.00,1.32,0.25,9.22,-0.00,-0.01,0.00,0.00
2026-06-26 18:16:35.994,994.11,994.10,-0.97,-1.30,0.00,1.34,0.27,9.24,-0.00,-0.01,0.00,0.00
2026-06-26 18:16:35.995,994.11,994.10,-0.97,-1.30,0.00,1.34,0.27,9.24,-0.00,-0.01,0.00,0.00
2026-06-26 18:16:35.996,994.11,994.10,-0.97,-1.30,0.00,1.34,0.27,9.24,-0.00,-0.01,0.00,0.00
2026-06-26 18:16:35.997,994.11,994.10,-0.97,-1.30,0.00,1.34,0.27,9.24,-0.00,-0.01,0.00,0.00
2026-06-26 18:16:35.998,994.11,994.10,-0.97,-1.30,0.00,1.34,0.27,9.24,-0.00,-0.01,0.00,0.00
2026-06-26 18:16:35.000,994.11,994.10,-0.97,-1.30,0.00,1.34,0.27,9.24,-0.00,-0.01,0.00,0.00
2026-06-26 18:16:35.002,994.11,994.10,-0.97,-1.30,0.00,1.34,0.27,9.24,-0.00,-0.01,-0.00,0.00
2026-06-26 18:16:36.003,994.11,994.10,-0.97,-1.30,0.00,1.34,0.27,9.25,-0.00,-0.01,-0.00,0.00
2026-06-26 18:16:36.004,994.11,994.10,-0.97,-1.30,0.00,1.34,0.27,9.25,-0.00,-0.01,-0.00,0.00
2026-06-26 18:16:36.005,994.11,994.10,-0.97,-1.30,0.00,1.34,0.27,9.25,-0.00,-0.01,-0.00,0.00
2026-06-26 18:16:36.007,994.11,994.10,-0.97,-1.30,0.00,1.34,0.27,9.25,-0.00,-0.01,-0.00,0.00
2026-06-26 18:16:36.012,994.11,994.10,-0.97,-1.30,0.00,1.34,0.27,9.25,-0.00,-0.01,-0.00,0.00
2026-06-26 18:16:36.014,994.11,994.10,-0.97,-1.30,0.00,1.31,0.27,9.21,0.00,-0.00,0.00,0.00
2026-06-26 18:16:36.017,994.11,994.10,-0.97,-1.30,0.00,1.31,0.27,9.21,0.00,-0.00,0.00,0.00
2026-06-26 18:16:36.022,994.11,994.10,-0.97,-1.30,0.00,1.31,0.27,9.21,0.00,-0.00,0.00,0.00
2026-06-26 18:16:36.024,994.11,994.10,-0.97,-1.30,0.00,1.32,0.26,9.21,0.00,0.00,0.00,0.00
2026-06-26 18:16:36.072,994.11,994.11,-0.41,-0.85,0.00,1.31,0.23,9.22,0.00,-0.00,0.00,0.00
2026-06-26 18:16:36.073,994.11,994.11,-0.41,-0.85,0.00,1.31,0.25,9.21,-0.00,0.00,0.00,0.00
2026-06-26 18:16:36.074,994.11,994.11,-0.41,-0.85,0.00,1.31,0.25,9.21,-0.00,0.00,0.00,0.00
2026-06-26 18:16:36.121,994.11,994.11,-0.68,-1.09,0.00,1.33,0.29,9.20,0.00,-0.00,0.00,0.00
2026-06-26 18:16:36.123,994.11,994.11,-0.68,-1.09,0.00,1.33,0.24,9.24,-0.00,-0.00,0.00,0.00
2026-06-26 18:16:36.125,994.11,994.11,-0.68,-1.09,0.00,1.33,0.24,9.24,-0.00,-0.00,0.00,0.00
2026-06-26 18:16:36.126,994.11,994.11,-0.68,-1.09,0.00,1.33,0.24,9.24,-0.00,-0.00,0.00,0.00
2026-06-26 18:16:36.131,994.11,994.11,-0.68,-1.09,0.00,1.33,0.24,9.24,-0.00,-0.00,0.00,0.00
2026-06-26 18:16:36.133,994.11,994.11,-0.68,-1.09,0.00,1.34,0.27,9.23,-0.00,0.00,0.00,0.00
2026-06-26 18:16:36.134,994.11,994.11,-0.68,-1.09,0.00,1.34,0.27,9.23,-0.00,0.00,0.00,0.00
2026-06-26 18:16:36.135,994.11,994.11,-0.68,-1.09,0.00,1.34,0.27,9.23,-0.00,0.00,0.00,0.00
2026-06-26 18:16:36.136,994.11,994.11,-0.68,-1.09,0.00,1.34,0.27,9.23,-0.00,0.00,0.00,0.00
2026-06-26 18:16:36.141,994.11,994.11,-0.68,-1.09,0.00,1.34,0.27,9.23,-0.00,0.00,0.00,0.00
2026-06-26 18:16:36.144,994.11,994.11,-0.68,-1.09,0.00,1.33,0.25,9.25,0.00,0.00,0.00,0.00
2026-06-26 18:16:36.145,994.11,994.11,-0.68,-1.09,0.00,1.33,0.25,9.25,0.00,0.00,0.00,0.00
2026-06-26 18:16:36.146,994.11,994.11,-0.68,-1.09,0.00,1.33,0.25,9.25,0.00,0.00,0.00,0.00
2026-06-26 18:16:36.148,994.11,994.11,-0.68,-1.09,0.00,1.33,0.25,9.25,0.00,0.00,0.00,0.00
2026-06-26 18:16:36.149,994.11,994.11,-0.68,-1.09,0.00,1.33,0.25,9.25,0.00,0.00,0.00,0.00
2026-06-26 18:16:36.150,994.11,994.11,-0.68,-1.09,0.00,1.33,0.25,9.25,0.00,0.00,0.00,0.00
2026-06-26 18:16:36.154,994.11,994.11,-0.68,-1.09,0.00,1.31,0.25,9.23,0.00,0.00,-0.00,0.00
2026-06-26 18:16:36.156,994.11,994.11,-0.68,-1.09,0.00,1.31,0.25,9.23,0.00,0.00,-0.00,0.00
2026-06-26 18:16:36.162,994.11,994.11,-0.68,-1.09,0.00,1.31,0.25,9.23,0.00,0.00,-0.00,0.00
2026-06-26 18:16:36.163,994.11,994.11,-0.68,-1.09,0.00,1.33,0.26,9.23,-0.00,-0.00,0.00,0.00
2026-06-26 18:16:36.164,994.11,994.11,-0.68,-1.09,0.00,1.33,0.26,9.23,-0.00,-0.00,0.00,0.00
2026-06-26 18:16:36.166,994.11,994.11,-0.68,-1.09,0.00,1.33,0.26,9.23,-0.00,-0.00,0.00,0.00
2026-06-26 18:16:36.167,994.11,994.11,-0.68,-1.09,0.00,1.33,0.26,9.23,-0.00,-0.00,0.00,0.00
2026-06-26 18:16:36.205,994.11,994.10,-1.13,-1.41,0.00,1.32,0.26,9.23,0.00,-0.00,-0.00,0.00
2026-06-26 18:16:36.206,994.11,994.10,-1.13,-1.41,0.00,1.32,0.26,9.23,0.00,-0.00,-0.00,0.00
2026-06-26 18:16:36.212,994.11,994.10,-1.13,-1.41,0.00,1.32,0.26,9.23,0.00,-0.00,-0.00,0.00
2026-06-26 18:16:36.213,994.11,994.10,-1.13,-1.41,0.00,1.32,0.27,9.22,0.00,0.00,0.00,0.00
2026-06-26 18:16:36.214,994.11,994.10,-1.13,-1.41,0.00,1.32,0.27,9.22,0.00,0.00,0.00,0.00
2026-06-26 18:16:36.216,994.11,994.10,-1.13,-1.41,0.00,1.32,0.27,9.22,0.00,0.00,0.00,0.00
2026-06-26 18:16:36.262,994.11,994.10,-1.26,-1.49,0.00,1.33,0.25,9.26,-0.00,0.00,0.00,0.00
2026-06-26 18:16:36.264,994.11,994.10,-1.26,-1.49,0.00,1.33,0.26,9.26,0.00,0.00,-0.00,0.00
2026-06-26 18:16:36.266,994.11,994.10,-1.26,-1.49,0.00,1.33,0.26,9.26,0.00,0.00,-0.00,0.00
2026-06-26 18:16:36.272,994.11,994.10,-1.26,-1.49,0.00,1.33,0.26,9.26,0.00,0.00,-0.00,0.00
2026-06-26 18:16:36.273,994.11,994.10,-1.26,-1.49,0.00,1.34,0.27,9.24,0.00,-0.00,0.00,0.00
2026-06-26 18:16:36.274,994.11,994.10,-1.26,-1.49,0.00,1.34,0.27,9.24,0.00,-0.00,0.00,0.00
2026-06-26 18:16:36.276,994.11,994.10,-1.26,-1.49,0.00,1.34,0.27,9.24,0.00,-0.00,0.00,0.00
2026-06-26 18:16:36.277,994.11,994.10,-1.26,-1.49,0.00,1.34,0.27,9.24,0.00,-0.00,0.00,0.00
2026-06-26 18:16:36.282,994.11,994.10,-1.26,-1.49,0.00,1.34,0.27,9.24,0.00,-0.00,0.00,0.00
2026-06-26 18:16:36.285,994.11,994.10,-1.26,-1.49,0.00,1.33,0.25,9.22,0.00,0.00,-0.00,0.00
2026-06-26 18:16:36.291,994.11,994.10,-1.26,-1.49,0.00,1.33,0.25,9.22,0.00,0.00,-0.00,0.00
2026-06-26 18:16:36.293,994.11,994.10,-1.26,-1.49,0.00,1.32,0.27,9.24,0.00,0.00,0.00,0.00
2026-06-26 18:16:36.294,994.11,994.10,-1.26,-1.49,0.00,1.32,0.27,9.24,0.00,0.00,0.00,0.00
2026-06-26 18:16:36.295,994.11,994.10,-1.26,-1.49,0.00,1.32,0.27,9.24,0.00,0.00,0.00,0.00
2026-06-26 18:16:36.297,994.11,994.10,-1.26,-1.49,0.00,1.32,0.27,9.24,0.00,0.00,0.00,0.00
2026-06-26 18:16:36.298,994.11,994.10,-1.26,-1.49,0.00,1.32,0.27,9.24,0.00,0.00,0.00,0.00
2026-06-26 18:16:36.299,994.11,994.10,-1.26,-1.49,0.00,1.32,0.27,9.24,0.00,0.00,0.00,0.00
2026-06-26 18:16:36.300,994.11,994.10,-1.26,-1.49,0.00,1.32,0.27,9.24,0.00,0.00,0.00,0.00
2026-06-26 18:16:36.313,994.11,994.10,-1.26,-1.49,0.00,1.32,0.28,9.22,-0.00,0.00,0.00,0.00
2026-06-26 18:16:36.354,994.11,994.10,-1.25,-1.48,0.00,1.33,0.25,9.22,0.00,0.00,-0.00,0.00
2026-06-26 18:16:36.356,994.11,994.10,-1.25,-1.48,0.00,1.33,0.25,9.22,0.00,0.00,-0.00,0.00
2026-06-26 18:16:36.357,994.11,994.10,-1.25,-1.48,0.00,1.33,0.25,9.22,0.00,0.00,-0.00,0.00
2026-06-26 18:16:36.395,994.11,994.10,-1.25,-1.48,0.00,1.31,0.26,9.22,0.00,-0.00,0.00,0.00
2026-06-26 18:16:36.396,994.11,994.10,-1.25,-1.48,0.00,1.31,0.26,9.22,0.00,-0.00,0.00,0.00
2026-06-26 18:16:36.397,994.11,994.10,-1.25,-1.48,0.00,1.31,0.26,9.22,0.00,-0.00,0.00,0.00
2026-06-26 18:16:36.398,994.11,994.10,-1.25,-1.48,0.00,1.31,0.26,9.22,0.00,-0.00,0.00,0.00
2026-06-26 18:16:36.400,994.11,994.10,-1.25,-1.48,0.00,1.31,0.26,9.22,0.00,-0.00,0.00,0.00
2026-06-26 18:16:36.402,994.11,994.10,-1.25,-1.48,0.00,1.31,0.26,9.22,0.00,-0.00,0.00,0.00
2026-06-26 18:16:36.403,994.11,994.10,-1.25,-1.48,0.00,1.32,0.25,9.23,0.00,0.00,0.00,0.00
2026-06-26 18:16:36.405,994.11,994.10,-1.25,-1.48,0.00,1.32,0.25,9.23,0.00,0.00,0.00,0.00
2026-06-26 18:16:36.406,994.11,994.10,-1.25,-1.48,0.00,1.32,0.25,9.23,0.00,0.00,0.00,0.00
2026-06-26 18:16:36.407,994.11,994.10,-1.25,-1.48,0.00,1.32,0.25,9.23,0.00,0.00,0.00,0.00
2026-06-26 18:16:36.412,994.11,994.10,-1.25,-1.48,0.00,1.32,0.25,9.23,0.00,0.00,0.00,0.00
2026-06-26 18:16:36.414,994.11,994.10,-1.25,-1.48,0.00,1.33,0.27,9.21,0.00,-0.00,0.00,0.00
2026-06-26 18:16:36.415,994.11,994.10,-1.25,-1.48,0.00,1.33,0.27,9.21,0.00,-0.00,0.00,0.00
2026-06-26 18:16:36.416,994.11,994.10,-1.25,-1.48,0.00,1.33,0.27,9.21,0.00,-0.00,0.00,0.00
2026-06-26 18:16:36.417,994.11,994.10,-1.25,-1.48,0.00,1.33,0.27,9.21,0.00,-0.00,0.00,0.00
2026-06-26 18:16:36.422,994.11,994.10,-1.25,-1.48,0.00,1.33,0.27,9.21,0.00,-0.00,0.00,0.00
2026-06-26 18:16:36.424,994.11,994.10,-1.25,-1.48,0.00,1.31,0.27,9.22,-0.00,-0.00,0.00,0.00
2026-06-26 18:16:36.425,994.11,994.10,-1.25,-1.48,0.00,1.31,0.27,9.22,-0.00,-0.00,0.00,0.00
2026-06-26 18:16:36.426,994.11,994.10,-1.25,-1.48,0.00,1.31,0.27,9.22,-0.00,-0.00,0.00,0.00
2026-06-26 18:16:36.428,994.11,994.10,-1.25,-1.48,0.00,1.31,0.27,9.22,-0.00,-0.00,0.00,0.00
2026-06-26 18:16:36.432,994.11,994.10,-1.25,-1.48,0.00,1.31,0.27,9.22,-0.00,-0.00,0.00,0.00
2026-06-26 18:16:36.433,994.11,994.10,-1.25,-1.48,0.00,1.32,0.26,9.23,0.00,-0.00,-0.00,0.00
2026-06-26 18:16:36.434,994.11,994.10,-1.25,-1.48,0.00,1.32,0.26,9.23,0.00,-0.00,-0.00,0.00
2026-06-26 18:16:36.436,994.11,994.10,-1.25,-1.48,0.00,1.32,0.26,9.23,0.00,-0.00,-0.00,0.00
2026-06-26 18:16:36.437,994.11,994.10,-1.25,-1.48,0.00,1.32,0.26,9.23,0.00,-0.00,-0.00,0.00
2026-06-26 18:16:36.440,994.11,994.10,-1.25,-1.48,0.00,1.32,0.26,9.23,0.00,-0.00,-0.00,0.00
2026-06-26 18:16:36.443,994.11,994.10,-1.25,-1.48,0.00,1.32,0.26,9.23,0.00,0.00,0.00,0.00
2026-06-26 18:16:36.445,994.11,994.10,-1.25,-1.48,0.00,1.32,0.24,9.24,0.00,0.00,0.00,0.00
2026-06-26 18:16:36.447,994.11,994.10,-1.25,-1.48,0.00,1.32,0.24,9.24,0.00,0.00,0.00,0.00
2026-06-26 18:16:36.449,994.11,994.10,-1.25,-1.48,0.00,1.32,0.24,9.24,0.00,0.00,0.00,0.00
2026-06-26 18:16:36.450,994.11,994.10,-1.25,-1.48,0.00,1.32,0.24,9.24,0.00,0.00,0.00,0.00
2026-06-26 18:16:36.452,994.11,994.10,-1.25,-1.48,0.00,1.32,0.24,9.24,0.00,0.00,0.00,0.00
2026-06-26 18:16:36.454,994.11,994.10,-1.25,-1.48,0.00,1.32,0.28,9.25,0.00,0.00,-0.00,0.00
2026-06-26 18:16:36.536,994.11,994.10,-1.10,-1.39,0.00,1.32,0.26,9.22,0.00,0.00,-0.00,0.00
2026-06-26 18:16:36.542,994.11,994.10,-1.10,-1.39,0.00,1.32,0.26,9.22,0.00,0.00,-0.00,0.00
2026-06-26 18:16:36.544,994.11,994.10,-1.10,-1.39,0.00,1.31,0.25,9.23,-0.00,0.00,0.00,0.00
2026-06-26 18:16:36.545,994.11,994.10,-1.10,-1.39,0.00,1.31,0.25,9.23,-0.00,0.00,0.00,0.00
2026-06-26 18:16:36.546,994.11,994.10,-1.10,-1.39,0.00,1.31,0.25,9.23,-0.00,0.00,0.00,0.00
2026-06-26 18:16:36.548,994.11,994.10,-1.10,-1.39,0.00,1.31,0.25,9.23,-0.00,0.00,0.00,0.00
2026-06-26 18:16:36.549,994.11,994.10,-1.10,-1.39,0.00,1.31,0.25,9.23,-0.00,0.00,0.00,0.00
2026-06-26 18:16:36.550,994.11,994.10,-1.10,-1.39,0.00,1.31,0.25,9.23,-0.00,0.00,0.00,0.00
2026-06-26 18:16:36.551,994.11,994.10,-1.10,-1.39,0.00,1.31,0.25,9.23,-0.00,0.00,0.00,0.00
2026-06-26 18:16:36.553,994.11,994.10,-1.10,-1.39,0.00,1.33,0.28,9.23,0.00,0.00,-0.00,0.00
2026-06-26 18:16:36.555,994.11,994.10,-1.10,-1.39,0.00,1.33,0.28,9.23,0.00,0.00,-0.00,0.00
2026-06-26 18:16:36.556,994.11,994.10,-1.10,-1.39,0.00,1.33,0.28,9.23,0.00,0.00,-0.00,0.00
2026-06-26 18:16:36.557,994.11,994.10,-1.10,-1.39,0.00,1.33,0.28,9.23,0.00,0.00,-0.00,0.00
2026-06-26 18:16:36.561,994.11,994.10,-1.10,-1.39,0.00,1.33,0.28,9.23,0.00,0.00,-0.00,0.00
2026-06-26 18:16:36.563,994.11,994.10,-1.10,-1.39,0.00,1.33,0.28,9.23,-0.00,0.00,0.00,0.00
2026-06-26 18:16:36.564,994.11,994.10,-1.10,-1.39,0.00,1.32,0.26,9.20,-0.00,0.00,0.00,0.00
2026-06-26 18:16:36.566,994.11,994.10,-1.10,-1.39,0.00,1.32,0.26,9.20,-0.00,0.00,0.00,0.00
2026-06-26 18:16:36.567,994.11,994.10,-1.10,-1.39,0.00,1.32,0.26,9.20,-0.00,0.00,0.00,0.00
2026-06-26 18:16:36.570,994.11,994.10,-1.10,-1.39,0.00,1.32,0.26,9.20,-0.00,0.00,0.00,0.00
2026-06-26 18:16:36.574,994.11,994.10,-1.10,-1.39,0.00,1.32,0.26,9.20,-0.00,0.00,-0.00,0.00
2026-06-26 18:16:36.577,994.11,994.10,-1.10,-1.39,0.00,1.32,0.26,9.21,-0.00,0.00,-0.00,0.00
2026-06-26 18:16:36.583,994.11,994.10,-1.10,-1.39,0.00,1.32,0.26,9.21,-0.00,0.00,-0.00,0.00
2026-06-26 18:16:36.584,994.11,994.10,-1.10,-1.39,0.00,1.32,0.26,9.23,0.00,0.00,0.00,0.00
2026-06-26 18:16:36.585,994.11,994.10,-1.10,-1.39,0.00,1.32,0.26,9.23,0.00,0.00,0.00,0.00
2026-06-26 18:16:36.586,994.11,994.10,-1.10,-1.39,0.00,1.32,0.26,9.23,0.00,0.00,0.00,0.00
2026-06-26 18:16:36.588,994.11,994.10,-1.10,-1.39,0.00,1.32,0.26,9.23,0.00,0.00,0.00,0.00
2026-06-26 18:16:36.593,994.11,994.10,-1.10,-1.39,0.00,1.32,0.26,9.23,0.00,0.00,0.00,0.00
2026-06-26 18:16:36.595,994.11,994.10,-1.10,-1.39,0.00,1.33,0.24,9.24,0.00,0.00,-0.00,0.00
2026-06-26 18:16:36.677,994.11,994.10,-1.12,-1.40,0.00,1.32,0.27,9.21,0.00,-0.00,0.00,0.00
2026-06-26 18:16:36.683,994.11,994.10,-1.12,-1.40,0.00,1.32,0.27,9.21,0.00,-0.00,0.00,0.00
2026-06-26 18:16:36.685,994.11,994.10,-1.12,-1.40,0.00,1.33,0.27,9.23,0.00,0.00,0.00,0.00
2026-06-26 18:16:36.686,994.11,994.10,-1.12,-1.40,0.00,1.33,0.27,9.23,0.00,0.00,0.00,0.00
2026-06-26 18:16:36.687,994.11,994.10,-1.12,-1.40,0.00,1.33,0.27,9.23,0.00,0.00,0.00,0.00
2026-06-26 18:16:36.692,994.11,994.10,-1.12,-1.40,0.00,1.33,0.27,9.23,0.00,0.00,0.00,0.00
2026-06-26 18:16:36.694,994.11,994.10,-1.12,-1.40,0.00,1.33,0.25,9.21,0.00,0.00,0.00,0.00
2026-06-26 18:16:36.695,994.11,994.10,-1.12,-1.40,0.00,1.33,0.25,9.21,0.00,0.00,0.00,0.00
2026-06-26 18:16:36.697,994.11,994.10,-1.12,-1.40,0.00,1.33,0.25,9.21,0.00,0.00,0.00,0.00
2026-06-26 18:16:36.698,994.11,994.10,-1.12,-1.40,0.00,1.33,0.25,9.21,0.00,0.00,0.00,0.00
2026-06-26 18:16:36.699,994.11,994.10,-1.12,-1.40,0.00,1.33,0.25,9.21,0.00,0.00,0.00,0.00
2026-06-26 18:16:36.700,994.11,994.10,-1.12,-1.40,0.00,1.33,0.25,9.21,0.00,0.00,0.00,0.00
2026-06-26 18:16:36.703,994.11,994.10,-1.12,-1.40,0.00,1.33,0.25,9.21,0.00,-0.00,-0.00,0.00
2026-06-26 18:16:36.705,994.11,994.10,-1.12,-1.40,0.00,1.33,0.26,9.21,0.00,-0.00,-0.00,0.00
2026-06-26 18:16:36.706,994.11,994.10,-1.12,-1.40,0.00,1.33,0.26,9.21,0.00,-0.00,-0.00,0.00
2026-06-26 18:16:36.707,994.11,994.10,-1.12,-1.40,0.00,1.33,0.26,9.21,0.00,-0.00,-0.00,0.00
2026-06-26 18:16:36.710,994.11,994.10,-1.12,-1.40,0.00,1.33,0.26,9.21,0.00,-0.00,-0.00,0.00
2026-06-26 18:16:36.714,994.11,994.10,-1.12,-1.40,0.00,1.33,0.26,9.21,0.00,0.00,0.00,0.00
2026-06-26 18:16:36.715,994.11,994.10,-1.12,-1.40,0.00,1.32,0.23,9.22,0.00,0.00,0.00,0.00
2026-06-26 18:16:36.716,994.11,994.10,-1.12,-1.40,0.00,1.32,0.23,9.22,0.00,0.00,0.00,0.00
2026-06-26 18:16:36.717,994.11,994.10,-1.12,-1.40,0.00,1.32,0.23,9.22,0.00,0.00,0.00,0.00
2026-06-26 18:16:36.720,994.11,994.10,-1.12,-1.40,0.00,1.32,0.23,9.22,0.00,0.00,0.00,0.00
2026-06-26 18:16:36.723,994.11,994.10,-1.12,-1.40,0.00,1.32,0.23,9.22,-0.00,-0.00,0.00,0.00
2026-06-26 18:16:36.725,994.11,994.10,-1.12,-1.40,0.00,1.34,0.25,9.21,-0.00,-0.00,0.00,0.00
2026-06-26 18:16:36.726,994.11,994.10,-1.12,-1.40,0.00,1.34,0.25,9.21,-0.00,-0.00,0.00,0.00
2026-06-26 18:16:36.727,994.11,994.10,-1.12,-1.40,0.00,1.34,0.25,9.21,-0.00,-0.00,0.00,0.00
2026-06-26 18:16:36.728,994.11,994.10,-1.12,-1.40,0.00,1.34,0.25,9.21,-0.00,-0.00,0.00,0.00
2026-06-26 18:16:36.733,994.11,994.10,-1.12,-1.40,0.00,1.34,0.25,9.21,-0.00,-0.00,0.00,0.00
2026-06-26 18:16:36.735,994.11,994.10,-1.12,-1.40,0.00,1.33,0.27,9.22,0.00,-0.00,0.00,0.00
2026-06-26 18:16:36.736,994.11,994.10,-1.12,-1.40,0.00,1.33,0.27,9.22,0.00,-0.00,0.00,0.00
2026-06-26 18:16:36.774,994.11,994.10,-1.25,-1.48,0.00,1.31,0.26,9.22,0.00,0.00,0.00,0.00
2026-06-26 18:16:36.775,994.11,994.10,-1.25,-1.48,0.00,1.32,0.27,9.22,0.00,0.00,0.00,0.00
2026-06-26 18:16:36.817,994.11,994.10,-1.25,-1.48,0.00,1.32,0.28,9.23,0.00,0.00,-0.00,0.00
2026-06-26 18:16:36.823,994.11,994.10,-1.25,-1.48,0.00,1.32,0.28,9.23,0.00,0.00,-0.00,0.00
2026-06-26 18:16:36.826,994.11,994.10,-1.25,-1.48,0.00,1.32,0.26,9.20,0.00,0.00,-0.00,0.00
2026-06-26 18:16:36.828,994.11,994.10,-1.25,-1.48,0.00,1.32,0.26,9.20,0.00,0.00,-0.00,0.00
2026-06-26 18:16:36.833,994.11,994.10,-1.25,-1.48,0.00,1.32,0.26,9.20,0.00,0.00,-0.00,0.00
2026-06-26 18:16:36.836,994.11,994.10,-1.25,-1.48,0.00,1.30,0.24,9.21,0.00,-0.00,0.00,0.00
2026-06-26 18:16:36.837,994.11,994.10,-1.25,-1.48,0.00,1.30,0.24,9.21,0.00,-0.00,0.00,0.00
2026-06-26 18:16:36.842,994.11,994.10,-1.25,-1.48,0.00,1.30,0.24,9.21,0.00,-0.00,0.00,0.00
2026-06-26 18:16:36.844,994.11,994.10,-1.25,-1.48,0.00,1.32,0.25,9.23,0.00,-0.00,0.00,0.00
2026-06-26 18:16:36.846,994.11,994.10,-1.25,-1.48,0.00,1.32,0.25,9.23,0.00,-0.00,0.00,0.00
2026-06-26 18:16:36.847,994.11,994.10,-1.25,-1.48,0.00,1.32,0.25,9.23,0.00,-0.00,0.00,0.00
2026-06-26 18:16:36.848,994.11,994.10,-1.25,-1.48,0.00,1.32,0.25,9.23,0.00,-0.00,0.00,0.00
2026-06-26 18:16:36.849,994.11,994.10,-1.25,-1.48,0.00,1.32,0.25,9.23,0.00,-0.00,0.00,0.00
2026-06-26 18:16:36.851,994.11,994.10,-1.25,-1.48,0.00,1.32,0.25,9.23,0.00,-0.00,0.00,0.00
2026-06-26 18:16:36.854,994.11,994.10,-1.25,-1.48,0.00,1.32,0.25,9.23,0.00,-0.00,0.00,0.00
2026-06-26 18:16:36.855,994.11,994.10,-1.25,-1.48,0.00,1.33,0.25,9.23,0.00,-0.00,0.00,0.00
2026-06-26 18:16:36.856,994.11,994.10,-1.25,-1.48,0.00,1.33,0.25,9.23,0.00,-0.00,0.00,0.00
2026-06-26 18:16:36.861,994.11,994.10,-1.25,-1.48,0.00,1.33,0.25,9.23,0.00,-0.00,0.00,0.00
2026-06-26 18:16:36.864,994.11,994.10,-1.25,-1.48,0.00,1.33,0.25,9.23,0.00,-0.00,0.00,0.00
2026-06-26 18:16:36.865,994.11,994.10,-1.25,-1.48,0.00,1.32,0.27,9.27,0.00,-0.00,0.00,0.00
2026-06-26 18:16:36.867,994.11,994.10,-1.25,-1.48,0.00,1.32,0.27,9.27,0.00,-0.00,0.00,0.00
2026-06-26 18:16:36.873,994.11,994.10,-1.25,-1.48,0.00,1.32,0.27,9.27,0.00,-0.00,0.00,0.00
2026-06-26 18:16:36.916,994.11,994.10,-1.49,-1.62,0.00,1.31,0.27,9.22,0.00,-0.00,0.00,0.00
2026-06-26 18:16:36.917,994.11,994.10,-1.49,-1.62,0.00,1.31,0.27,9.22,0.00,-0.00,0.00,0.00
2026-06-26 18:16:36.964,994.11,994.10,-1.53,-1.64,0.00,1.33,0.27,9.24,0.00,-0.00,0.00,0.00
2026-06-26 18:16:36.965,994.11,994.10,-1.53,-1.64,0.00,1.31,0.26,9.25,0.00,0.00,0.00,0.00
2026-06-26 18:16:36.966,994.11,994.10,-1.53,-1.64,0.00,1.31,0.26,9.25,0.00,0.00,0.00,0.00
2026-06-26 18:16:36.968,994.11,994.10,-1.53,-1.64,0.00,1.31,0.26,9.25,0.00,0.00,0.00,0.00
2026-06-26 18:16:36.970,994.11,994.10,-1.53,-1.64,0.00,1.31,0.26,9.25,0.00,0.00,0.00,0.00
2026-06-26 18:16:36.974,994.11,994.10,-1.53,-1.64,0.00,1.31,0.26,9.25,0.00,0.00,-0.00,0.00
2026-06-26 18:16:36.976,994.11,994.10,-1.53,-1.64,0.00,1.33,0.24,9.23,0.00,0.00,-0.00,0.00
2026-06-26 18:16:36.977,994.11,994.10,-1.53,-1.64,0.00,1.33,0.24,9.23,0.00,0.00,-0.00,0.00
2026-06-26 18:16:36.978,994.11,994.10,-1.53,-1.64,0.00,1.33,0.24,9.23,0.00,0.00,-0.00,0.00
2026-06-26 18:16:36.982,994.11,994.10,-1.53,-1.64,0.00,1.33,0.24,9.23,0.00,0.00,-0.00,0.00
2026-06-26 18:16:36.984,994.11,994.10,-1.53,-1.64,0.00,1.33,0.24,9.23,-0.00,0.00,0.00,0.00
2026-06-26 18:16:36.985,994.11,994.10,-1.53,-1.64,0.00,1.34,0.25,9.22,-0.00,0.00,0.00,0.00
2026-06-26 18:16:36.987,994.11,994.10,-1.53,-1.64,0.00,1.34,0.25,9.22,-0.00,0.00,0.00,0.00
2026-06-26 18:16:36.988,994.11,994.10,-1.53,-1.64,0.00,1.34,0.25,9.22,-0.00,0.00,0.00,0.00
2026-06-26 18:16:36.991,994.11,994.10,-1.53,-1.64,0.00,1.34,0.25,9.22,-0.00,0.00,0.00,0.00
2026-06-26 18:16:36.994,994.11,994.10,-1.53,-1.64,0.00,1.34,0.25,9.22,0.00,-0.00,0.00,0.00
2026-06-26 18:16:36.996,994.11,994.10,-1.53,-1.64,0.00,1.33,0.24,9.22,0.00,-0.00,0.00,0.00
2026-06-26 18:16:36.997,994.11,994.10,-1.53,-1.64,0.00,1.33,0.24,9.22,0.00,-0.00,0.00,0.00
2026-06-26 18:16:36.998,994.11,994.10,-1.53,-1.64,0.00,1.33,0.24,9.22,0.00,-0.00,0.00,0.00
2026-06-26 18:16:36.000,994.11,994.10,-1.53,-1.64,0.00,1.33,0.24,9.22,0.00,-0.00,0.00,0.00
2026-06-26 18:16:36.001,994.11,994.10,-1.53,-1.64,0.00,1.33,0.24,9.22,0.00,-0.00,0.00,0.00
2026-06-26 18:16:36.002,994.11,994.10,-1.53,-1.64,0.00,1.33,0.24,9.22,0.00,-0.00,0.00,0.00
2026-06-26 18:16:37.004,994.11,994.10,-1.53,-1.64,0.00,1.33,0.24,9.22,0.00,0.00,-0.00,0.00
2026-06-26 18:16:37.006,994.11,994.10,-1.53,-1.64,0.00,1.32,0.24,9.25,0.00,0.00,-0.00,0.00
2026-06-26 18:16:37.007,994.11,994.10,-1.53,-1.64,0.00,1.32,0.24,9.25,0.00,0.00,-0.00,0.00
2026-06-26 18:16:37.008,994.11,994.10,-1.53,-1.64,0.00,1.32,0.24,9.25,0.00,0.00,-0.00,0.00
2026-06-26 18:16:37.011,994.11,994.10,-1.53,-1.64,0.00,1.32,0.24,9.25,0.00,0.00,-0.00,0.00
2026-06-26 18:16:37.014,994.11,994.10,-1.53,-1.64,0.00,1.32,0.24,9.25,0.00,-0.00,0.00,0.00
2026-06-26 18:16:37.056,994.11,994.10,-1.90,-1.83,0.00,1.31,0.25,9.22,0.00,0.00,0.00,0.00
2026-06-26 18:16:37.057,994.11,994.10,-1.90,-1.83,0.00,1.31,0.25,9.22,0.00,0.00,0.00,0.00
2026-06-26 18:16:37.058,994.11,994.10,-1.90,-1.83,0.00,1.31,0.25,9.22,0.00,0.00,0.00,0.00
2026-06-26 18:16:37.101,994.11,994.10,-1.84,-1.80,0.00,1.32,0.26,9.23,0.00,-0.00,0.00,0.00
2026-06-26 18:16:37.105,994.11,994.10,-1.84,-1.80,0.00,1.32,0.26,9.23,0.00,-0.00,0.00,0.00
2026-06-26 18:16:37.107,994.11,994.10,-1.84,-1.80,0.00,1.31,0.25,9.23,0.00,-0.00,0.00,0.00
2026-06-26 18:16:37.108,994.11,994.10,-1.84,-1.80,0.00,1.31,0.25,9.23,0.00,-0.00,0.00,0.00
2026-06-26 18:16:37.114,994.11,994.10,-1.84,-1.80,0.00,1.31,0.25,9.23,0.00,-0.00,0.00,0.00
2026-06-26 18:16:37.115,994.11,994.10,-1.84,-1.80,0.00,1.32,0.26,9.22,0.00,0.00,-0.00,0.00
2026-06-26 18:16:37.116,994.11,994.10,-1.84,-1.80,0.00,1.32,0.26,9.22,0.00,0.00,-0.00,0.00
2026-06-26 18:16:37.118,994.11,994.10,-1.84,-1.80,0.00,1.32,0.26,9.22,0.00,0.00,-0.00,0.00
2026-06-26 18:16:37.124,994.11,994.10,-1.84,-1.80,0.00,1.32,0.26,9.22,0.00,0.00,-0.00,0.00
2026-06-26 18:16:37.126,994.11,994.10,-1.84,-1.80,0.00,1.33,0.26,9.22,-0.00,0.00,-0.00,0.00
2026-06-26 18:16:37.127,994.11,994.10,-1.84,-1.80,0.00,1.33,0.26,9.22,-0.00,0.00,-0.00,0.00
2026-06-26 18:16:37.129,994.11,994.10,-1.84,-1.80,0.00,1.33,0.26,9.22,-0.00,0.00,-0.00,0.00
2026-06-26 18:16:37.132,994.11,994.10,-1.84,-1.80,0.00,1.33,0.26,9.22,-0.00,0.00,-0.00,0.00
2026-06-26 18:16:37.135,994.11,994.10,-1.84,-1.80,0.00,1.33,0.26,9.22,-0.00,0.00,0.00,0.00
2026-06-26 18:16:37.136,994.11,994.10,-1.84,-1.80,0.00,1.32,0.27,9.25,-0.00,0.00,0.00,0.00
2026-06-26 18:16:37.137,994.11,994.10,-1.84,-1.80,0.00,1.32,0.27,9.25,-0.00,0.00,0.00,0.00
2026-06-26 18:16:37.138,994.11,994.10,-1.84,-1.80,0.00,1.32,0.27,9.25,-0.00,0.00,0.00,0.00
2026-06-26 18:16:37.141,994.11,994.10,-1.84,-1.80,0.00,1.32,0.27,9.25,-0.00,0.00,0.00,0.00
2026-06-26 18:16:37.145,994.11,994.10,-1.84,-1.80,0.00,1.32,0.27,9.25,-0.00,-0.00,0.00,0.00
2026-06-26 18:16:37.146,994.11,994.10,-1.84,-1.80,0.00,1.33,0.23,9.23,-0.00,-0.00,0.00,0.00
2026-06-26 18:16:37.147,994.11,994.10,-1.84,-1.80,0.00,1.33,0.23,9.23,-0.00,-0.00,0.00,0.00
2026-06-26 18:16:37.151,994.11,994.10,-1.84,-1.80,0.00,1.33,0.23,9.23,-0.00,-0.00,0.00,0.00
2026-06-26 18:16:37.154,994.11,994.10,-1.84,-1.80,0.00,1.33,0.23,9.23,-0.00,-0.00,0.00,0.00
2026-06-26 18:16:37.155,994.11,994.10,-1.84,-1.80,0.00,1.33,0.27,9.22,0.00,0.00,0.00,0.00
2026-06-26 18:16:37.195,994.11,994.09,-2.46,-2.08,0.00,1.32,0.25,9.21,0.00,0.00,0.00,0.00
2026-06-26 18:16:37.196,994.11,994.09,-2.46,-2.08,0.00,1.30,0.28,9.24,0.00,0.00,0.00,0.00
2026-06-26 18:16:37.198,994.11,994.09,-2.46,-2.08,0.00,1.30,0.28,9.24,0.00,0.00,0.00,0.00
2026-06-26 18:16:37.199,994.11,994.09,-2.46,-2.08,0.00,1.30,0.28,9.24,0.00,0.00,0.00,0.00
2026-06-26 18:16:37.237,994.11,994.09,-2.36,-2.04,0.00,1.30,0.25,9.20,0.00,0.00,0.00,0.00
2026-06-26 18:16:37.238,994.11,994.09,-2.36,-2.04,0.00,1.30,0.25,9.20,0.00,0.00,0.00,0.00
2026-06-26 18:16:37.245,994.11,994.09,-2.36,-2.04,0.00,1.30,0.25,9.20,0.00,0.00,0.00,0.00
2026-06-26 18:16:37.246,994.11,994.09,-2.36,-2.04,0.00,1.34,0.26,9.22,-0.00,-0.00,-0.00,0.00
2026-06-26 18:16:37.248,994.11,994.09,-2.36,-2.04,0.00,1.34,0.26,9.22,-0.00,-0.00,-0.00,0.00
2026-06-26 18:16:37.249,994.11,994.09,-2.36,-2.04,0.00,1.34,0.26,9.22,-0.00,-0.00,-0.00,0.00
2026-06-26 18:16:37.250,994.11,994.09,-2.36,-2.04,0.00,1.34,0.26,9.22,-0.00,-0.00,-0.00,0.00
2026-06-26 18:16:37.252,994.11,994.09,-2.36,-2.04,0.00,1.34,0.26,9.22,-0.00,-0.00,-0.00,0.00
2026-06-26 18:16:37.253,994.11,994.09,-2.36,-2.04,0.00,1.34,0.26,9.22,-0.00,-0.00,-0.00,0.00
2026-06-26 18:16:37.255,994.11,994.09,-2.36,-2.04,0.00,1.34,0.26,9.22,0.00,0.00,0.00,0.00
2026-06-26 18:16:37.256,994.11,994.09,-2.36,-2.04,0.00,1.34,0.24,9.24,0.00,0.00,0.00,0.00
2026-06-26 18:16:37.258,994.11,994.09,-2.36,-2.04,0.00,1.34,0.24,9.24,0.00,0.00,0.00,0.00
2026-06-26 18:16:37.259,994.11,994.09,-2.36,-2.04,0.00,1.34,0.24,9.24,0.00,0.00,0.00,0.00
2026-06-26 18:16:37.263,994.11,994.09,-2.36,-2.04,0.00,1.34,0.24,9.24,0.00,0.00,0.00,0.00
2026-06-26 18:16:37.266,994.11,994.09,-2.36,-2.04,0.00,1.33,0.28,9.24,0.00,0.00,0.00,0.00
2026-06-26 18:16:37.268,994.11,994.09,-2.36,-2.04,0.00,1.33,0.28,9.24,0.00,0.00,0.00,0.00
2026-06-26 18:16:37.269,994.11,994.09,-2.36,-2.04,0.00,1.33,0.28,9.24,0.00,0.00,0.00,0.00
2026-06-26 18:16:37.274,994.11,994.09,-2.36,-2.04,0.00,1.33,0.28,9.24,0.00,0.00,0.00,0.00
2026-06-26 18:16:37.276,994.11,994.09,-2.36,-2.04,0.00,1.31,0.25,9.20,0.00,0.00,-0.00,0.00
2026-06-26 18:16:37.277,994.11,994.09,-2.36,-2.04,0.00,1.31,0.25,9.20,0.00,0.00,-0.00,0.00
2026-06-26 18:16:37.278,994.11,994.09,-2.36,-2.04,0.00,1.31,0.25,9.20,0.00,0.00,-0.00,0.00
2026-06-26 18:16:37.280,994.11,994.09,-2.36,-2.04,0.00,1.31,0.25,9.20,0.00,0.00,-0.00,0.00
2026-06-26 18:16:37.285,994.11,994.09,-2.36,-2.04,0.00,1.31,0.25,9.20,0.00,0.00,-0.00,0.00
2026-06-26 18:16:37.286,994.11,994.09,-2.36,-2.04,0.00,1.34,0.26,9.23,0.00,-0.00,0.00,0.00
2026-06-26 18:16:37.287,994.11,994.09,-2.36,-2.04,0.00,1.34,0.26,9.23,0.00,-0.00,0.00,0.00
2026-06-26 18:16:37.288,994.11,994.09,-2.36,-2.04,0.00,1.34,0.26,9.23,0.00,-0.00,0.00,0.00
2026-06-26 18:16:37.289,994.11,994.09,-2.36,-2.04,0.00,1.34,0.26,9.23,0.00,-0.00,0.00,0.00
2026-06-26 18:16:37.295,994.11,994.09,-2.36,-2.04,0.00,1.34,0.26,9.23,0.00,-0.00,0.00,0.00
2026-06-26 18:16:37.376,994.11,994.09,-1.79,-1.77,0.00,1.32,0.27,9.22,0.00,0.00,-0.00,0.00
2026-06-26 18:16:37.378,994.11,994.09,-1.79,-1.77,0.00,1.32,0.27,9.22,0.00,0.00,-0.00,0.00
2026-06-26 18:16:37.381,994.11,994.09,-1.79,-1.77,0.00,1.32,0.27,9.22,0.00,0.00,-0.00,0.00
2026-06-26 18:16:37.385,994.11,994.09,-1.79,-1.77,0.00,1.32,0.27,9.22,-0.00,0.00,-0.00,0.00
2026-06-26 18:16:37.387,994.11,994.09,-1.79,-1.77,0.00,1.34,0.26,9.23,-0.00,0.00,-0.00,0.00
2026-06-26 18:16:37.388,994.11,994.09,-1.79,-1.77,0.00,1.34,0.26,9.23,-0.00,0.00,-0.00,0.00
2026-06-26 18:16:37.389,994.11,994.09,-1.79,-1.77,0.00,1.34,0.26,9.23,-0.00,0.00,-0.00,0.00
2026-06-26 18:16:37.395,994.11,994.09,-1.79,-1.77,0.00,1.34,0.26,9.23,-0.00,0.00,-0.00,0.00
2026-06-26 18:16:37.397,994.11,994.09,-1.79,-1.77,0.00,1.31,0.27,9.22,0.00,-0.00,0.00,0.00
2026-06-26 18:16:37.398,994.11,994.09,-1.79,-1.77,0.00,1.31,0.27,9.22,0.00,-0.00,0.00,0.00
2026-06-26 18:16:37.399,994.11,994.09,-1.79,-1.77,0.00,1.31,0.27,9.22,0.00,-0.00,0.00,0.00
2026-06-26 18:16:37.401,994.11,994.09,-1.79,-1.77,0.00,1.31,0.27,9.22,0.00,-0.00,0.00,0.00
2026-06-26 18:16:37.402,994.11,994.09,-1.79,-1.77,0.00,1.31,0.27,9.22,0.00,-0.00,0.00,0.00
2026-06-26 18:16:37.403,994.11,994.09,-1.79,-1.77,0.00,1.31,0.27,9.22,0.00,-0.00,0.00,0.00
2026-06-26 18:16:37.405,994.11,994.09,-1.79,-1.77,0.00,1.31,0.27,9.22,0.00,0.00,-0.00,0.00
2026-06-26 18:16:37.407,994.11,994.09,-1.79,-1.77,0.00,1.32,0.26,9.24,0.00,0.00,-0.00,0.00
2026-06-26 18:16:37.408,994.11,994.09,-1.79,-1.77,0.00,1.32,0.26,9.24,0.00,0.00,-0.00,0.00
2026-06-26 18:16:37.414,994.11,994.09,-1.79,-1.77,0.00,1.32,0.26,9.24,0.00,0.00,-0.00,0.00
2026-06-26 18:16:37.416,994.11,994.09,-1.79,-1.77,0.00,1.33,0.26,9.20,-0.00,0.00,0.00,0.00
2026-06-26 18:16:37.417,994.11,994.09,-1.79,-1.77,0.00,1.33,0.26,9.20,-0.00,0.00,0.00,0.00
2026-06-26 18:16:37.418,994.11,994.09,-1.79,-1.77,0.00,1.33,0.26,9.20,-0.00,0.00,0.00,0.00
2026-06-26 18:16:37.419,994.11,994.09,-1.79,-1.77,0.00,1.33,0.26,9.20,-0.00,0.00,0.00,0.00
2026-06-26 18:16:37.425,994.11,994.09,-1.79,-1.77,0.00,1.33,0.26,9.20,-0.00,0.00,0.00,0.00
2026-06-26 18:16:37.426,994.11,994.09,-1.79,-1.77,0.00,1.31,0.25,9.21,0.00,0.00,0.00,0.00
2026-06-26 18:16:37.427,994.11,994.09,-1.79,-1.77,0.00,1.31,0.25,9.21,0.00,0.00,0.00,0.00
2026-06-26 18:16:37.428,994.11,994.09,-1.79,-1.77,0.00,1.31,0.25,9.21,0.00,0.00,0.00,0.00
2026-06-26 18:16:37.430,994.11,994.09,-1.79,-1.77,0.00,1.31,0.25,9.21,0.00,0.00,0.00,0.00
2026-06-26 18:16:37.431,994.11,994.09,-1.79,-1.77,0.00,1.31,0.25,9.21,0.00,0.00,0.00,0.00
2026-06-26 18:16:37.435,994.11,994.09,-1.79,-1.77,0.00,1.31,0.25,9.21,0.00,0.00,-0.00,0.00
2026-06-26 18:16:37.436,994.11,994.09,-1.79,-1.77,0.00,1.34,0.26,9.22,0.00,0.00,-0.00,0.00
2026-06-26 18:16:37.518,994.12,994.10,-1.99,-1.87,0.00,1.33,0.28,9.24,0.00,-0.00,0.00,0.00
2026-06-26 18:16:37.521,994.12,994.10,-1.99,-1.87,0.00,1.33,0.28,9.24,0.00,-0.00,0.00,0.00
2026-06-26 18:16:37.525,994.12,994.10,-1.99,-1.87,0.00,1.33,0.28,9.24,0.00,0.00,-0.00,0.00
2026-06-26 18:16:37.527,994.12,994.10,-1.99,-1.87,0.00,1.33,0.25,9.21,0.00,0.00,-0.00,0.00
2026-06-26 18:16:37.528,994.12,994.10,-1.99,-1.87,0.00,1.33,0.25,9.21,0.00,0.00,-0.00,0.00
2026-06-26 18:16:37.529,994.12,994.10,-1.99,-1.87,0.00,1.33,0.25,9.21,0.00,0.00,-0.00,0.00
2026-06-26 18:16:37.531,994.12,994.10,-1.99,-1.87,0.00,1.33,0.25,9.21,0.00,0.00,-0.00,0.00
2026-06-26 18:16:37.535,994.12,994.10,-1.99,-1.87,0.00,1.33,0.25,9.21,0.00,-0.00,0.00,0.00
2026-06-26 18:16:37.536,994.12,994.10,-1.99,-1.87,0.00,1.33,0.27,9.20,0.00,-0.00,0.00,0.00
2026-06-26 18:16:37.538,994.12,994.10,-1.99,-1.87,0.00,1.33,0.27,9.20,0.00,-0.00,0.00,0.00
2026-06-26 18:16:37.539,994.12,994.10,-1.99,-1.87,0.00,1.33,0.27,9.20,0.00,-0.00,0.00,0.00
2026-06-26 18:16:37.540,994.12,994.10,-1.99,-1.87,0.00,1.33,0.27,9.20,0.00,-0.00,0.00,0.00
2026-06-26 18:16:37.545,994.12,994.10,-1.99,-1.87,0.00,1.33,0.27,9.20,0.00,-0.00,0.00,0.00
2026-06-26 18:16:37.547,994.12,994.10,-1.99,-1.87,0.00,1.32,0.27,9.24,0.00,0.00,-0.00,0.00
2026-06-26 18:16:37.548,994.12,994.10,-1.99,-1.87,0.00,1.32,0.27,9.24,0.00,0.00,-0.00,0.00
2026-06-26 18:16:37.549,994.12,994.10,-1.99,-1.87,0.00,1.32,0.27,9.24,0.00,0.00,-0.00,0.00
2026-06-26 18:16:37.550,994.12,994.10,-1.99,-1.87,0.00,1.32,0.27,9.24,0.00,0.00,-0.00,0.00
2026-06-26 18:16:37.552,994.12,994.10,-1.99,-1.87,0.00,1.32,0.27,9.24,0.00,0.00,-0.00,0.00
2026-06-26 18:16:37.553,994.12,994.10,-1.99,-1.87,0.00,1.32,0.27,9.24,0.00,0.00,-0.00,0.00
2026-06-26 18:16:37.555,994.12,994.10,-1.99,-1.87,0.00,1.32,0.27,9.24,0.00,0.00,-0.00,0.00
2026-06-26 18:16:37.556,994.12,994.10,-1.99,-1.87,0.00,1.33,0.27,9.24,-0.00,0.00,0.00,0.00
2026-06-26 18:16:37.558,994.12,994.10,-1.99,-1.87,0.00,1.33,0.27,9.24,-0.00,0.00,0.00,0.00
2026-06-26 18:16:37.559,994.12,994.10,-1.99,-1.87,0.00,1.33,0.27,9.24,-0.00,0.00,0.00,0.00
2026-06-26 18:16:37.560,994.12,994.10,-1.99,-1.87,0.00,1.33,0.27,9.24,-0.00,0.00,0.00,0.00
2026-06-26 18:16:37.565,994.12,994.10,-1.99,-1.87,0.00,1.33,0.27,9.24,-0.00,0.00,0.00,0.00
2026-06-26 18:16:37.566,994.12,994.10,-1.99,-1.87,0.00,1.33,0.27,9.23,-0.00,0.00,0.00,0.00
2026-06-26 18:16:37.568,994.12,994.10,-1.99,-1.87,0.00,1.33,0.27,9.23,-0.00,0.00,0.00,0.00
2026-06-26 18:16:37.569,994.12,994.10,-1.99,-1.87,0.00,1.33,0.27,9.23,-0.00,0.00,0.00,0.00
2026-06-26 18:16:37.570,994.12,994.10,-1.99,-1.87,0.00,1.33,0.27,9.23,-0.00,0.00,0.00,0.00
2026-06-26 18:16:37.575,994.12,994.10,-1.99,-1.87,0.00,1.33,0.27,9.23,-0.00,0.00,0.00,0.00
2026-06-26 18:16:37.576,994.12,994.10,-1.99,-1.87,0.00,1.33,0.25,9.20,0.00,0.00,0.00,0.00
2026-06-26 18:16:37.578,994.12,994.10,-1.99,-1.87,0.00,1.33,0.25,9.20,0.00,0.00,0.00,0.00
2026-06-26 18:16:37.665,994.11,994.10,-1.25,-1.48,0.00,1.32,0.28,9.25,0.00,0.00,-0.00,0.00
2026-06-26 18:16:37.667,994.11,994.10,-1.25,-1.48,0.00,1.32,0.23,9.24,0.00,0.00,0.00,0.00
2026-06-26 18:16:37.668,994.11,994.10,-1.25,-1.48,0.00,1.32,0.23,9.24,0.00,0.00,0.00,0.00
2026-06-26 18:16:37.670,994.11,994.10,-1.25,-1.48,0.00,1.32,0.23,9.24,0.00,0.00,0.00,0.00
2026-06-26 18:16:37.675,994.11,994.10,-1.25,-1.48,0.00,1.32,0.23,9.24,0.00,0.00,0.00,0.00
2026-06-26 18:16:37.677,994.11,994.10,-1.25,-1.48,0.00,1.32,0.28,9.20,0.00,-0.00,-0.00,0.00
2026-06-26 18:16:37.678,994.11,994.10,-1.25,-1.48,0.00,1.32,0.28,9.20,0.00,-0.00,-0.00,0.00
2026-06-26 18:16:37.679,994.11,994.10,-1.25,-1.48,0.00,1.32,0.28,9.20,0.00,-0.00,-0.00,0.00
2026-06-26 18:16:37.682,994.11,994.10,-1.25,-1.48,0.00,1.32,0.28,9.20,0.00,-0.00,-0.00,0.00
2026-06-26 18:16:37.686,994.11,994.10,-1.25,-1.48,0.00,1.32,0.28,9.20,-0.00,0.00,0.00,0.00
2026-06-26 18:16:37.687,994.11,994.10,-1.25,-1.48,0.00,1.32,0.28,9.23,-0.00,0.00,0.00,0.00
2026-06-26 18:16:37.689,994.11,994.10,-1.25,-1.48,0.00,1.32,0.28,9.23,-0.00,0.00,0.00,0.00
2026-06-26 18:16:37.694,994.11,994.10,-1.25,-1.48,0.00,1.32,0.28,9.23,-0.00,0.00,0.00,0.00
2026-06-26 18:16:37.697,994.11,994.10,-1.25,-1.48,0.00,1.33,0.26,9.21,0.00,0.00,-0.00,0.00
2026-06-26 18:16:37.699,994.11,994.10,-1.25,-1.48,0.00,1.33,0.26,9.21,0.00,0.00,-0.00,0.00
2026-06-26 18:16:37.700,994.11,994.10,-1.25,-1.48,0.00,1.33,0.26,9.21,0.00,0.00,-0.00,0.00
2026-06-26 18:16:37.702,994.11,994.10,-1.25,-1.48,0.00,1.33,0.26,9.21,0.00,0.00,-0.00,0.00
2026-06-26 18:16:37.703,994.11,994.10,-1.25,-1.48,0.00,1.33,0.26,9.21,0.00,0.00,-0.00,0.00
2026-06-26 18:16:37.704,994.11,994.10,-1.25,-1.48,0.00,1.33,0.26,9.21,0.00,0.00,-0.00,0.00
2026-06-26 18:16:37.706,994.11,994.10,-1.25,-1.48,0.00,1.31,0.27,9.26,0.00,-0.00,0.00,0.00
2026-06-26 18:16:37.707,994.11,994.10,-1.25,-1.48,0.00,1.31,0.27,9.26,0.00,-0.00,0.00,0.00
2026-06-26 18:16:37.709,994.11,994.10,-1.25,-1.48,0.00,1.31,0.27,9.26,0.00,-0.00,0.00,0.00
2026-06-26 18:16:37.710,994.11,994.10,-1.25,-1.48,0.00,1.31,0.27,9.26,0.00,-0.00,0.00,0.00
2026-06-26 18:16:37.714,994.11,994.10,-1.25,-1.48,0.00,1.31,0.27,9.26,0.00,-0.00,0.00,0.00
2026-06-26 18:16:37.716,994.11,994.10,-1.25,-1.48,0.00,1.31,0.27,9.26,0.00,0.00,0.00,0.00
2026-06-26 18:16:37.717,994.11,994.10,-1.25,-1.48,0.00,1.31,0.26,9.25,0.00,0.00,0.00,0.00
2026-06-26 18:16:37.719,994.11,994.10,-1.25,-1.48,0.00,1.31,0.26,9.25,0.00,0.00,0.00,0.00
2026-06-26 18:16:37.802,994.12,994.10,-1.32,-1.52,0.00,1.33,0.27,9.24,0.00,0.00,0.00,0.00
2026-06-26 18:16:37.804,994.12,994.10,-1.32,-1.52,0.00,1.33,0.27,9.24,0.00,0.00,0.00,0.00
2026-06-26 18:16:37.806,994.12,994.10,-1.32,-1.52,0.00,1.33,0.27,9.21,0.00,0.00,0.00,0.00
2026-06-26 18:16:37.808,994.12,994.10,-1.32,-1.52,0.00,1.33,0.27,9.21,0.00,0.00,0.00,0.00
2026-06-26 18:16:37.809,994.12,994.10,-1.32,-1.52,0.00,1.33,0.27,9.21,0.00,0.00,0.00,0.00
2026-06-26 18:16:37.810,994.12,994.10,-1.32,-1.52,0.00,1.33,0.27,9.21,0.00,0.00,0.00,0.00
2026-06-26 18:16:37.814,994.12,994.10,-1.32,-1.52,0.00,1.33,0.27,9.21,0.00,0.00,0.00,0.00
2026-06-26 18:16:37.818,994.12,994.10,-1.32,-1.52,0.00,1.33,0.27,9.21,-0.00,0.00,0.00,0.00
2026-06-26 18:16:37.819,994.12,994.10,-1.32,-1.52,0.00,1.32,0.24,9.22,-0.00,0.00,0.00,0.00
2026-06-26 18:16:37.822,994.12,994.10,-1.32,-1.52,0.00,1.32,0.24,9.22,-0.00,0.00,0.00,0.00
2026-06-26 18:16:37.826,994.12,994.10,-1.32,-1.52,0.00,1.32,0.24,9.22,-0.00,0.00,-0.00,0.00
2026-06-26 18:16:37.828,994.12,994.10,-1.32,-1.52,0.00,1.33,0.26,9.20,-0.00,0.00,-0.00,0.00
2026-06-26 18:16:37.830,994.12,994.10,-1.32,-1.52,0.00,1.33,0.26,9.20,-0.00,0.00,-0.00,0.00
2026-06-26 18:16:37.831,994.12,994.10,-1.32,-1.52,0.00,1.33,0.26,9.20,-0.00,0.00,-0.00,0.00
2026-06-26 18:16:37.836,994.12,994.10,-1.32,-1.52,0.00,1.33,0.26,9.20,-0.00,0.00,-0.00,0.00
2026-06-26 18:16:37.837,994.12,994.10,-1.32,-1.52,0.00,1.34,0.25,9.23,0.00,-0.00,-0.00,0.00
2026-06-26 18:16:37.838,994.12,994.10,-1.32,-1.52,0.00,1.34,0.25,9.23,0.00,-0.00,-0.00,0.00
2026-06-26 18:16:37.839,994.12,994.10,-1.32,-1.52,0.00,1.34,0.25,9.23,0.00,-0.00,-0.00,0.00
2026-06-26 18:16:37.841,994.12,994.10,-1.32,-1.52,0.00,1.34,0.25,9.23,0.00,-0.00,-0.00,0.00
2026-06-26 18:16:37.846,994.12,994.10,-1.32,-1.52,0.00,1.34,0.25,9.23,0.00,0.00,0.00,0.00
2026-06-26 18:16:37.847,994.12,994.10,-1.32,-1.52,0.00,1.31,0.27,9.22,0.00,0.00,0.00,0.00
2026-06-26 18:16:37.849,994.12,994.10,-1.32,-1.52,0.00,1.31,0.27,9.22,0.00,0.00,0.00,0.00
2026-06-26 18:16:37.850,994.12,994.10,-1.32,-1.52,0.00,1.31,0.27,9.22,0.00,0.00,0.00,0.00
2026-06-26 18:16:37.851,994.12,994.10,-1.32,-1.52,0.00,1.31,0.27,9.22,0.00,0.00,0.00,0.00
2026-06-26 18:16:37.852,994.12,994.10,-1.32,-1.52,0.00,1.31,0.27,9.22,0.00,0.00,0.00,0.00
2026-06-26 18:16:37.854,994.12,994.10,-1.32,-1.52,0.00,1.31,0.27,9.22,0.00,0.00,0.00,0.00
2026-06-26 18:16:37.856,994.12,994.10,-1.32,-1.52,0.00,1.31,0.27,9.22,0.00,0.00,0.00,0.00
2026-06-26 18:16:37.858,994.12,994.10,-1.32,-1.52,0.00,1.32,0.25,9.22,0.00,0.00,0.00,0.00
2026-06-26 18:16:37.859,994.12,994.10,-1.32,-1.52,0.00,1.32,0.25,9.22,0.00,0.00,0.00,0.00
2026-06-26 18:16:37.946,994.12,994.10,-2.14,-1.94,0.00,1.32,0.24,9.24,-0.00,0.00,0.00,0.00
2026-06-26 18:16:37.948,994.12,994.10,-2.14,-1.94,0.00,1.33,0.27,9.23,0.00,-0.00,0.00,0.00
2026-06-26 18:16:37.949,994.12,994.10,-2.14,-1.94,0.00,1.33,0.27,9.23,0.00,-0.00,0.00,0.00
2026-06-26 18:16:37.950,994.12,994.10,-2.14,-1.94,0.00,1.33,0.27,9.23,0.00,-0.00,0.00,0.00
2026-06-26 18:16:37.951,994.12,994.10,-2.14,-1.94,0.00,1.33,0.27,9.23,0.00,-0.00,0.00,0.00
2026-06-26 18:16:37.953,994.12,994.10,-2.14,-1.94,0.00,1.33,0.27,9.23,0.00,-0.00,0.00,0.00
2026-06-26 18:16:37.954,994.12,994.10,-2.14,-1.94,0.00,1.33,0.27,9.23,0.00,-0.00,0.00,0.00
2026-06-26 18:16:37.956,994.12,994.10,-2.14,-1.94,0.00,1.33,0.27,9.23,0.00,-0.00,0.00,0.00
2026-06-26 18:16:37.957,994.12,994.10,-2.14,-1.94,0.00,1.33,0.26,9.24,0.00,0.00,0.00,0.00
2026-06-26 18:16:37.958,994.12,994.10,-2.14,-1.94,0.00,1.33,0.26,9.24,0.00,0.00,0.00,0.00
2026-06-26 18:16:37.960,994.12,994.10,-2.14,-1.94,0.00,1.33,0.26,9.24,0.00,0.00,0.00,0.00
2026-06-26 18:16:37.961,994.12,994.10,-2.14,-1.94,0.00,1.33,0.26,9.24,0.00,0.00,0.00,0.00
2026-06-26 18:16:37.966,994.12,994.10,-2.14,-1.94,0.00,1.33,0.26,9.24,0.00,0.00,0.00,0.00
2026-06-26 18:16:37.971,994.12,994.10,-2.14,-1.94,0.00,1.34,0.25,9.25,0.00,-0.00,-0.00,0.00
2026-06-26 18:16:37.976,994.12,994.10,-2.14,-1.94,0.00,1.34,0.25,9.25,0.00,-0.00,-0.00,0.00
2026-06-26 18:16:37.977,994.12,994.10,-2.14,-1.94,0.00,1.32,0.27,9.21,0.00,0.00,-0.00,0.00
2026-06-26 18:16:37.979,994.12,994.10,-2.14,-1.94,0.00,1.32,0.27,9.21,0.00,0.00,-0.00,0.00
2026-06-26 18:16:37.980,994.12,994.10,-2.14,-1.94,0.00,1.32,0.27,9.21,0.00,0.00,-0.00,0.00
2026-06-26 18:16:37.981,994.12,994.10,-2.14,-1.94,0.00,1.32,0.27,9.21,0.00,0.00,-0.00,0.00
2026-06-26 18:16:37.986,994.12,994.10,-2.14,-1.94,0.00,1.32,0.27,9.21,0.00,0.00,-0.00,0.00
2026-06-26 18:16:37.987,994.12,994.10,-2.14,-1.94,0.00,1.34,0.25,9.24,0.00,0.00,0.00,0.00
2026-06-26 18:16:37.989,994.12,994.10,-2.14,-1.94,0.00,1.34,0.25,9.24,0.00,0.00,0.00,0.00
2026-06-26 18:16:37.990,994.12,994.10,-2.14,-1.94,0.00,1.34,0.25,9.24,0.00,0.00,0.00,0.00
2026-06-26 18:16:37.991,994.12,994.10,-2.14,-1.94,0.00,1.34,0.25,9.24,0.00,0.00,0.00,0.00
2026-06-26 18:16:37.996,994.12,994.10,-2.14,-1.94,0.00,1.34,0.25,9.24,0.00,0.00,0.00,0.00
2026-06-26 18:16:37.999,994.12,994.10,-2.14,-1.94,0.00,1.33,0.26,9.25,0.00,-0.00,0.00,0.00
2026-06-26 18:16:37.000,994.12,994.10,-2.14,-1.94,0.00,1.33,0.26,9.25,0.00,-0.00,0.00,0.00
2026-06-26 18:16:37.001,994.12,994.10,-2.14,-1.94,0.00,1.33,0.26,9.25,0.00,-0.00,0.00,0.00
2026-06-26 18:16:38.083,994.12,994.10,-1.86,-1.81,0.00,1.30,0.27,9.22,-0.00,0.00,-0.00,0.00
2026-06-26 18:16:38.087,994.12,994.10,-1.86,-1.81,0.00,1.30,0.27,9.22,0.00,0.00,-0.00,0.00
2026-06-26 18:16:38.088,994.12,994.10,-1.86,-1.81,0.00,1.35,0.27,9.25,0.00,0.00,-0.00,0.00
2026-06-26 18:16:38.089,994.12,994.10,-1.86,-1.81,0.00,1.35,0.27,9.25,0.00,0.00,-0.00,0.00
2026-06-26 18:16:38.092,994.12,994.10,-1.86,-1.81,0.00,1.35,0.27,9.25,0.00,0.00,-0.00,0.00
2026-06-26 18:16:38.097,994.12,994.10,-1.86,-1.81,0.00,1.35,0.27,9.25,0.00,0.00,-0.00,0.00
2026-06-26 18:16:38.098,994.12,994.10,-1.86,-1.81,0.00,1.31,0.25,9.24,0.00,0.00,-0.00,0.00
2026-06-26 18:16:38.099,994.12,994.10,-1.86,-1.81,0.00,1.31,0.25,9.24,0.00,0.00,-0.00,0.00
2026-06-26 18:16:38.100,994.12,994.10,-1.86,-1.81,0.00,1.31,0.25,9.24,0.00,0.00,-0.00,0.00
2026-06-26 18:16:38.102,994.12,994.10,-1.86,-1.81,0.00,1.31,0.25,9.24,0.00,0.00,-0.00,0.00
2026-06-26 18:16:38.103,994.12,994.10,-1.86,-1.81,0.00,1.31,0.25,9.24,0.00,0.00,-0.00,0.00
2026-06-26 18:16:38.104,994.12,994.10,-1.86,-1.81,0.00,1.31,0.25,9.24,0.00,0.00,-0.00,0.00
2026-06-26 18:16:38.106,994.12,994.10,-1.86,-1.81,0.00,1.31,0.25,9.24,0.00,0.00,-0.00,0.00
2026-06-26 18:16:38.107,994.12,994.10,-1.86,-1.81,0.00,1.33,0.24,9.24,0.00,-0.00,0.00,0.00
2026-06-26 18:16:38.109,994.12,994.10,-1.86,-1.81,0.00,1.33,0.24,9.24,0.00,-0.00,0.00,0.00
2026-06-26 18:16:38.110,994.12,994.10,-1.86,-1.81,0.00,1.33,0.24,9.24,0.00,-0.00,0.00,0.00
2026-06-26 18:16:38.111,994.12,994.10,-1.86,-1.81,0.00,1.33,0.24,9.24,0.00,-0.00,0.00,0.00
2026-06-26 18:16:38.116,994.12,994.10,-1.86,-1.81,0.00,1.33,0.24,9.24,0.00,-0.00,0.00,0.00
2026-06-26 18:16:38.117,994.12,994.10,-1.86,-1.81,0.00,1.33,0.26,9.23,0.00,0.00,0.00,0.00
2026-06-26 18:16:38.120,994.12,994.10,-1.86,-1.81,0.00,1.33,0.26,9.23,0.00,0.00,0.00,0.00
2026-06-26 18:16:38.124,994.12,994.10,-1.86,-1.81,0.00,1.33,0.26,9.23,0.00,0.00,0.00,0.00
2026-06-26 18:16:38.127,994.12,994.10,-1.86,-1.81,0.00,1.33,0.26,9.23,0.00,0.00,0.00,0.00
2026-06-26 18:16:38.128,994.12,994.10,-1.86,-1.81,0.00,1.34,0.26,9.22,0.00,0.00,0.00,0.00
2026-06-26 18:16:38.129,994.12,994.10,-1.86,-1.81,0.00,1.34,0.26,9.22,0.00,0.00,0.00,0.00
2026-06-26 18:16:38.131,994.12,994.10,-1.86,-1.81,0.00,1.34,0.26,9.22,0.00,0.00,0.00,0.00
2026-06-26 18:16:38.132,994.12,994.10,-1.86,-1.81,0.00,1.34,0.26,9.22,0.00,0.00,0.00,0.00
2026-06-26 18:16:38.136,994.12,994.10,-1.86,-1.81,0.00,1.34,0.26,9.22,0.00,0.00,0.00,0.00
2026-06-26 18:16:38.138,994.12,994.10,-1.86,-1.81,0.00,1.32,0.27,9.23,0.00,-0.00,-0.00,0.00
2026-06-26 18:16:38.139,994.12,994.10,-1.86,-1.81,0.00,1.32,0.27,9.23,0.00,-0.00,-0.00,0.00
2026-06-26 18:16:38.140,994.12,994.10,-1.86,-1.81,0.00,1.32,0.27,9.23,0.00,-0.00,-0.00,0.00
2026-06-26 18:16:38.146,994.12,994.10,-1.86,-1.81,0.00,1.32,0.27,9.23,0.00,-0.00,-0.00,0.00
2026-06-26 18:16:38.228,994.12,994.10,-2.22,-1.97,0.00,1.32,0.26,9.22,0.00,0.00,0.00,0.00
2026-06-26 18:16:38.230,994.12,994.10,-2.22,-1.97,0.00,1.32,0.26,9.22,0.00,0.00,0.00,0.00
2026-06-26 18:16:38.231,994.12,994.10,-2.22,-1.97,0.00,1.32,0.26,9.22,0.00,0.00,0.00,0.00
2026-06-26 18:16:38.232,994.12,994.10,-2.22,-1.97,0.00,1.32,0.26,9.22,0.00,0.00,0.00,0.00
2026-06-26 18:16:38.237,994.12,994.10,-2.22,-1.97,0.00,1.32,0.26,9.22,0.00,0.00,0.00,0.00
2026-06-26 18:16:38.238,994.12,994.10,-2.22,-1.97,0.00,1.33,0.25,9.22,0.00,0.00,-0.00,0.00
2026-06-26 18:16:38.239,994.12,994.10,-2.22,-1.97,0.00,1.33,0.25,9.22,0.00,0.00,-0.00,0.00
2026-06-26 18:16:38.240,994.12,994.10,-2.22,-1.97,0.00,1.33,0.25,9.22,0.00,0.00,-0.00,0.00
2026-06-26 18:16:38.247,994.12,994.10,-2.22,-1.97,0.00,1.33,0.25,9.22,0.00,0.00,-0.00,0.00
2026-06-26 18:16:38.248,994.12,994.10,-2.22,-1.97,0.00,1.34,0.26,9.23,-0.00,0.00,-0.00,0.00
2026-06-26 18:16:38.250,994.12,994.10,-2.22,-1.97,0.00,1.34,0.26,9.23,-0.00,0.00,-0.00,0.00
2026-06-26 18:16:38.251,994.12,994.10,-2.22,-1.97,0.00,1.34,0.26,9.23,-0.00,0.00,-0.00,0.00
2026-06-26 18:16:38.252,994.12,994.10,-2.22,-1.97,0.00,1.34,0.26,9.23,-0.00,0.00,-0.00,0.00
2026-06-26 18:16:38.254,994.12,994.10,-2.22,-1.97,0.00,1.34,0.26,9.23,-0.00,0.00,-0.00,0.00
2026-06-26 18:16:38.255,994.12,994.10,-2.22,-1.97,0.00,1.34,0.26,9.23,-0.00,0.00,-0.00,0.00
2026-06-26 18:16:38.257,994.12,994.10,-2.22,-1.97,0.00,1.34,0.26,9.23,0.00,-0.00,-0.00,0.00
2026-06-26 18:16:38.258,994.12,994.10,-2.22,-1.97,0.00,1.32,0.25,9.23,0.00,-0.00,-0.00,0.00
2026-06-26 18:16:38.260,994.12,994.10,-2.22,-1.97,0.00,1.32,0.25,9.23,0.00,-0.00,-0.00,0.00
2026-06-26 18:16:38.262,994.12,994.10,-2.22,-1.97,0.00,1.32,0.25,9.23,0.00,-0.00,-0.00,0.00
2026-06-26 18:16:38.267,994.12,994.10,-2.22,-1.97,0.00,1.32,0.25,9.23,0.00,-0.00,-0.00,0.00
2026-06-26 18:16:38.268,994.12,994.10,-2.22,-1.97,0.00,1.33,0.27,9.22,0.00,-0.00,0.00,0.00
2026-06-26 18:16:38.269,994.12,994.10,-2.22,-1.97,0.00,1.33,0.27,9.22,0.00,-0.00,0.00,0.00
2026-06-26 18:16:38.271,994.12,994.10,-2.22,-1.97,0.00,1.33,0.27,9.22,0.00,-0.00,0.00,0.00
2026-06-26 18:16:38.273,994.12,994.10,-2.22,-1.97,0.00,1.33,0.27,9.22,0.00,-0.00,0.00,0.00
2026-06-26 18:16:38.277,994.12,994.10,-2.22,-1.97,0.00,1.33,0.27,9.22,0.00,-0.00,0.00,0.00
2026-06-26 18:16:38.280,994.12,994.10,-2.22,-1.97,0.00,1.29,0.28,9.23,0.00,-0.00,0.00,0.00
2026-06-26 18:16:38.281,994.12,994.10,-2.22,-1.97,0.00,1.29,0.28,9.23,0.00,-0.00,0.00,0.00
2026-06-26 18:16:38.287,994.12,994.10,-2.22,-1.97,0.00,1.29,0.28,9.23,0.00,-0.00,0.00,0.00
2026-06-26 18:16:38.369,994.12,994.10,-2.02,-1.88,0.00,1.32,0.25,9.24,-0.00,0.00,0.00,0.00
2026-06-26 18:16:38.370,994.12,994.10,-2.02,-1.88,0.00,1.32,0.25,9.24,-0.00,0.00,0.00,0.00
2026-06-26 18:16:38.371,994.12,994.10,-2.02,-1.88,0.00,1.32,0.25,9.24,-0.00,0.00,0.00,0.00
2026-06-26 18:16:38.375,994.12,994.10,-2.02,-1.88,0.00,1.32,0.25,9.24,-0.00,0.00,0.00,0.00
2026-06-26 18:16:38.378,994.12,994.10,-2.02,-1.88,0.00,1.32,0.25,9.24,-0.00,0.00,0.00,0.00
2026-06-26 18:16:38.379,994.12,994.10,-2.02,-1.88,0.00,1.32,0.27,9.22,-0.00,0.00,0.00,0.00
2026-06-26 18:16:38.381,994.12,994.10,-2.02,-1.88,0.00,1.32,0.27,9.22,-0.00,0.00,0.00,0.00
2026-06-26 18:16:38.387,994.12,994.10,-2.02,-1.88,0.00,1.32,0.27,9.22,-0.00,0.00,0.00,0.00
2026-06-26 18:16:38.389,994.12,994.10,-2.02,-1.88,0.00,1.33,0.26,9.24,-0.00,0.00,-0.00,0.00
2026-06-26 18:16:38.391,994.12,994.10,-2.02,-1.88,0.00,1.33,0.26,9.24,-0.00,0.00,-0.00,0.00
2026-06-26 18:16:38.397,994.12,994.10,-2.02,-1.88,0.00,1.33,0.26,9.24,-0.00,0.00,-0.00,0.00
2026-06-26 18:16:38.398,994.12,994.10,-2.02,-1.88,0.00,1.32,0.26,9.23,-0.00,0.00,0.00,0.00
2026-06-26 18:16:38.400,994.12,994.10,-2.02,-1.88,0.00,1.32,0.26,9.23,-0.00,0.00,0.00,0.00
2026-06-26 18:16:38.401,994.12,994.10,-2.02,-1.88,0.00,1.32,0.26,9.23,-0.00,0.00,0.00,0.00
2026-06-26 18:16:38.402,994.12,994.10,-2.02,-1.88,0.00,1.32,0.26,9.23,-0.00,0.00,0.00,0.00
2026-06-26 18:16:38.403,994.12,994.10,-2.02,-1.88,0.00,1.32,0.26,9.23,-0.00,0.00,0.00,0.00
2026-06-26 18:16:38.407,994.12,994.10,-2.02,-1.88,0.00,1.32,0.26,9.23,-0.00,0.00,0.00,0.00
2026-06-26 18:16:38.408,994.12,994.10,-2.02,-1.88,0.00,1.32,0.24,9.24,-0.00,0.00,0.00,0.00
2026-06-26 18:16:38.410,994.12,994.10,-2.02,-1.88,0.00,1.32,0.24,9.24,-0.00,0.00,0.00,0.00
2026-06-26 18:16:38.411,994.12,994.10,-2.02,-1.88,0.00,1.32,0.24,9.24,-0.00,0.00,0.00,0.00
2026-06-26 18:16:38.414,994.12,994.10,-2.02,-1.88,0.00,1.32,0.24,9.24,-0.00,0.00,0.00,0.00
2026-06-26 18:16:38.418,994.12,994.10,-2.02,-1.88,0.00,1.32,0.24,9.24,-0.00,-0.00,0.00,0.00
2026-06-26 18:16:38.419,994.12,994.10,-2.02,-1.88,0.00,1.29,0.26,9.23,-0.00,-0.00,0.00,0.00
2026-06-26 18:16:38.420,994.12,994.10,-2.02,-1.88,0.00,1.29,0.26,9.23,-0.00,-0.00,0.00,0.00
2026-06-26 18:16:38.422,994.12,994.10,-2.02,-1.88,0.00,1.29,0.26,9.23,-0.00,-0.00,0.00,0.00
2026-06-26 18:16:38.426,994.12,994.10,-2.02,-1.88,0.00,1.29,0.26,9.23,-0.00,-0.00,0.00,0.00
2026-06-26 18:16:38.428,994.12,994.10,-2.02,-1.88,0.00,1.32,0.27,9.21,0.00,0.00,0.00,0.00
2026-06-26 18:16:38.518,994.12,994.10,-1.51,-1.63,0.00,1.33,0.27,9.23,-0.00,0.00,0.00,0.00
2026-06-26 18:16:38.520,994.12,994.10,-1.51,-1.63,0.00,1.33,0.26,9.21,-0.00,0.00,0.00,0.00
2026-06-26 18:16:38.524,994.12,994.10,-1.51,-1.63,0.00,1.33,0.26,9.21,-0.00,0.00,0.00,0.00
2026-06-26 18:16:38.528,994.12,994.10,-1.51,-1.63,0.00,1.33,0.26,9.21,-0.00,0.00,-0.00,0.00
2026-06-26 18:16:38.529,994.12,994.10,-1.51,-1.63,0.00,1.33,0.26,9.22,-0.00,0.00,-0.00,0.00
2026-06-26 18:16:38.531,994.12,994.10,-1.51,-1.63,0.00,1.33,0.26,9.22,-0.00,0.00,-0.00,0.00
2026-06-26 18:16:38.534,994.12,994.10,-1.51,-1.63,0.00,1.33,0.26,9.22,-0.00,0.00,-0.00,0.00
2026-06-26 18:16:38.538,994.12,994.10,-1.51,-1.63,0.00,1.33,0.26,9.22,0.00,0.00,0.00,0.00
2026-06-26 18:16:38.539,994.12,994.10,-1.51,-1.63,0.00,1.34,0.28,9.24,0.00,0.00,0.00,0.00
2026-06-26 18:16:38.541,994.12,994.10,-1.51,-1.63,0.00,1.34,0.28,9.24,0.00,0.00,0.00,0.00
2026-06-26 18:16:38.545,994.12,994.10,-1.51,-1.63,0.00,1.34,0.28,9.24,0.00,0.00,0.00,0.00
2026-06-26 18:16:38.548,994.12,994.10,-1.51,-1.63,0.00,1.34,0.28,9.24,0.00,0.00,0.00,0.00
2026-06-26 18:16:38.550,994.12,994.10,-1.51,-1.63,0.00,1.34,0.25,9.23,0.00,0.00,0.00,0.00
2026-06-26 18:16:38.551,994.12,994.10,-1.51,-1.63,0.00,1.34,0.25,9.23,0.00,0.00,0.00,0.00
2026-06-26 18:16:38.555,994.12,994.10,-1.51,-1.63,0.00,1.34,0.25,9.23,0.00,0.00,0.00,0.00
2026-06-26 18:16:38.559,994.12,994.10,-1.51,-1.63,0.00,1.34,0.25,9.23,-0.00,-0.00,0.00,0.00
2026-06-26 18:16:38.565,994.12,994.10,-1.51,-1.63,0.00,1.33,0.26,9.24,-0.00,-0.00,0.00,0.00
2026-06-26 18:16:38.568,994.12,994.10,-1.51,-1.63,0.00,1.33,0.26,9.24,0.00,-0.00,0.00,0.00
2026-06-26 18:16:38.570,994.12,994.10,-1.51,-1.63,0.00,1.34,0.25,9.23,0.00,-0.00,0.00,0.00
2026-06-26 18:16:38.655,994.11,994.10,-1.26,-1.49,0.00,1.32,0.24,9.23,-0.00,0.00,0.00,0.00
2026-06-26 18:16:38.660,994.11,994.10,-1.26,-1.49,0.00,1.32,0.24,9.23,-0.00,0.00,-0.00,0.00
2026-06-26 18:16:38.663,994.11,994.10,-1.26,-1.49,0.00,1.33,0.26,9.24,-0.00,0.00,-0.00,0.00
2026-06-26 18:16:38.668,994.11,994.10,-1.26,-1.49,0.00,1.33,0.26,9.24,-0.00,0.00,0.00,0.00
2026-06-26 18:16:38.669,994.11,994.10,-1.26,-1.49,0.00,1.34,0.25,9.24,-0.00,0.00,0.00,0.00
2026-06-26 18:16:38.671,994.11,994.10,-1.26,-1.49,0.00,1.34,0.25,9.24,-0.00,0.00,0.00,0.00
2026-06-26 18:16:38.674,994.11,994.10,-1.26,-1.49,0.00,1.34,0.25,9.24,-0.00,0.00,0.00,0.00
2026-06-26 18:16:38.678,994.11,994.10,-1.26,-1.49,0.00,1.34,0.25,9.24,-0.00,0.00,0.00,0.00
2026-06-26 18:16:38.680,994.11,994.10,-1.26,-1.49,0.00,1.35,0.26,9.25,-0.00,0.00,0.00,0.00
2026-06-26 18:16:38.688,994.11,994.10,-1.26,-1.49,0.00,1.35,0.26,9.25,0.00,0.00,-0.00,0.00
2026-06-26 18:16:38.691,994.11,994.10,-1.26,-1.49,0.00,1.31,0.25,9.21,0.00,0.00,-0.00,0.00
2026-06-26 18:16:38.698,994.11,994.10,-1.26,-1.49,0.00,1.31,0.25,9.21,0.00,0.00,-0.00,0.00
2026-06-26 18:16:38.700,994.11,994.10,-1.26,-1.49,0.00,1.31,0.28,9.23,-0.00,0.00,0.00,0.00
2026-06-26 18:16:38.701,994.11,994.10,-1.26,-1.49,0.00,1.31,0.28,9.23,-0.00,0.00,0.00,0.00
2026-06-26 18:16:38.703,994.11,994.10,-1.26,-1.49,0.00,1.31,0.28,9.23,-0.00,0.00,0.00,0.00
2026-06-26 18:16:38.705,994.11,994.10,-1.26,-1.49,0.00,1.31,0.28,9.23,-0.00,0.00,0.00,0.00
2026-06-26 18:16:38.707,994.11,994.10,-1.26,-1.49,0.00,1.31,0.28,9.23,-0.00,0.00,0.00,0.00
2026-06-26 18:16:38.709,994.11,994.10,-1.26,-1.49,0.00,1.34,0.25,9.23,-0.00,-0.00,0.00,0.00
2026-06-26 18:16:38.713,994.11,994.10,-1.26,-1.49,0.00,1.34,0.25,9.23,-0.00,-0.00,0.00,0.00
2026-06-26 18:16:38.753,994.11,994.10,-1.26,-1.49,0.00,1.32,0.25,9.24,0.00,0.00,0.00,0.00
2026-06-26 18:16:38.799,994.11,994.10,-1.20,-1.45,0.00,1.32,0.26,9.24,0.00,0.00,0.00,0.00
2026-06-26 18:16:38.801,994.11,994.10,-1.20,-1.45,0.00,1.31,0.25,9.23,0.00,0.00,0.00,0.00
2026-06-26 18:16:38.802,994.11,994.10,-1.20,-1.45,0.00,1.31,0.25,9.23,0.00,0.00,0.00,0.00
2026-06-26 18:16:38.803,994.11,994.10,-1.20,-1.45,0.00,1.31,0.25,9.23,0.00,0.00,0.00,0.00
2026-06-26 18:16:38.805,994.11,994.10,-1.20,-1.45,0.00,1.31,0.25,9.23,0.00,0.00,0.00,0.00
2026-06-26 18:16:38.808,994.11,994.10,-1.20,-1.45,0.00,1.31,0.25,9.23,0.00,0.00,0.00,0.00
2026-06-26 18:16:38.810,994.11,994.10,-1.20,-1.45,0.00,1.33,0.26,9.23,0.00,0.00,0.00,0.00
2026-06-26 18:16:38.812,994.11,994.10,-1.20,-1.45,0.00,1.33,0.26,9.23,0.00,0.00,0.00,0.00
2026-06-26 18:16:38.818,994.11,994.10,-1.20,-1.45,0.00,1.33,0.26,9.23,0.00,0.00,0.00,0.00
2026-06-26 18:16:38.820,994.11,994.10,-1.20,-1.45,0.00,1.33,0.27,9.22,-0.00,0.00,0.00,0.00
2026-06-26 18:16:38.821,994.11,994.10,-1.20,-1.45,0.00,1.33,0.27,9.22,-0.00,0.00,0.00,0.00
2026-06-26 18:16:38.828,994.11,994.10,-1.20,-1.45,0.00,1.33,0.27,9.22,-0.00,0.00,0.00,0.00
2026-06-26 18:16:38.830,994.11,994.10,-1.20,-1.45,0.00,1.32,0.27,9.23,0.00,-0.00,0.00,0.00
2026-06-26 18:16:38.831,994.11,994.10,-1.20,-1.45,0.00,1.32,0.27,9.23,0.00,-0.00,0.00,0.00
2026-06-26 18:16:38.833,994.11,994.10,-1.20,-1.45,0.00,1.32,0.27,9.23,0.00,-0.00,0.00,0.00
2026-06-26 18:16:38.838,994.11,994.10,-1.20,-1.45,0.00,1.32,0.27,9.23,0.00,-0.00,0.00,0.00
2026-06-26 18:16:38.839,994.11,994.10,-1.20,-1.45,0.00,1.32,0.25,9.24,0.00,0.00,0.00,0.00
2026-06-26 18:16:38.841,994.11,994.10,-1.20,-1.45,0.00,1.32,0.25,9.24,0.00,0.00,0.00,0.00
2026-06-26 18:16:38.842,994.11,994.10,-1.20,-1.45,0.00,1.32,0.25,9.24,0.00,0.00,0.00,0.00
2026-06-26 18:16:38.848,994.11,994.10,-1.20,-1.45,0.00,1.32,0.25,9.24,0.00,0.00,0.00,0.00
2026-06-26 18:16:38.850,994.11,994.10,-1.20,-1.45,0.00,1.32,0.26,9.22,0.00,-0.00,0.00,0.00
2026-06-26 18:16:38.851,994.11,994.10,-1.20,-1.45,0.00,1.32,0.26,9.22,0.00,-0.00,0.00,0.00
2026-06-26 18:16:38.853,994.11,994.10,-1.20,-1.45,0.00,1.32,0.26,9.22,0.00,-0.00,0.00,0.00
2026-06-26 18:16:38.900,994.11,994.10,-1.84,-1.80,0.00,1.32,0.27,9.21,-0.00,-0.00,-0.00,0.00
2026-06-26 18:16:38.945,994.11,994.10,-1.57,-1.66,0.00,1.31,0.26,9.23,-0.00,0.00,0.00,0.00
2026-06-26 18:16:38.949,994.11,994.10,-1.57,-1.66,0.00,1.31,0.26,9.23,0.00,-0.00,0.00,0.00
2026-06-26 18:16:38.951,994.11,994.10,-1.57,-1.66,0.00,1.33,0.26,9.22,0.00,-0.00,0.00,0.00
2026-06-26 18:16:38.952,994.11,994.10,-1.57,-1.66,0.00,1.33,0.26,9.22,0.00,-0.00,0.00,0.00
2026-06-26 18:16:38.954,994.11,994.10,-1.57,-1.66,0.00,1.33,0.26,9.22,0.00,-0.00,0.00,0.00
2026-06-26 18:16:38.956,994.11,994.10,-1.57,-1.66,0.00,1.33,0.26,9.22,0.00,-0.00,0.00,0.00
2026-06-26 18:16:38.959,994.11,994.10,-1.57,-1.66,0.00,1.33,0.26,9.22,-0.00,0.00,0.00,0.00
2026-06-26 18:16:38.961,994.11,994.10,-1.57,-1.66,0.00,1.33,0.25,9.23,-0.00,0.00,0.00,0.00
2026-06-26 18:16:38.963,994.11,994.10,-1.57,-1.66,0.00,1.33,0.25,9.23,-0.00,0.00,0.00,0.00
2026-06-26 18:16:38.968,994.11,994.10,-1.57,-1.66,0.00,1.33,0.25,9.23,-0.00,0.00,0.00,0.00
2026-06-26 18:16:38.970,994.11,994.10,-1.57,-1.66,0.00,1.32,0.25,9.20,0.00,-0.01,-0.00,0.00
2026-06-26 18:16:38.971,994.11,994.10,-1.57,-1.66,0.00,1.32,0.25,9.20,0.00,-0.01,-0.00,0.00
2026-06-26 18:16:38.973,994.11,994.10,-1.57,-1.66,0.00,1.32,0.25,9.20,0.00,-0.01,-0.00,0.00
2026-06-26 18:16:38.978,994.11,994.10,-1.57,-1.66,0.00,1.32,0.25,9.20,0.00,-0.01,-0.00,0.00
2026-06-26 18:16:38.980,994.11,994.10,-1.57,-1.66,0.00,1.33,0.27,9.22,0.00,-0.00,-0.00,0.00
2026-06-26 18:16:38.982,994.11,994.10,-1.57,-1.66,0.00,1.33,0.27,9.22,0.00,-0.00,-0.00,0.00
2026-06-26 18:16:38.983,994.11,994.10,-1.57,-1.66,0.00,1.33,0.27,9.22,0.00,-0.00,-0.00,0.00
2026-06-26 18:16:38.989,994.11,994.10,-1.57,-1.66,0.00,1.33,0.27,9.22,0.00,-0.00,-0.00,0.00
2026-06-26 18:16:38.991,994.11,994.10,-1.57,-1.66,0.00,1.31,0.26,9.25,0.00,0.00,-0.00,0.00
2026-06-26 18:16:38.994,994.11,994.10,-1.57,-1.66,0.00,1.31,0.26,9.25,0.00,0.00,-0.00,0.00
2026-06-26 18:16:38.999,994.11,994.10,-1.57,-1.66,0.00,1.31,0.26,9.25,0.00,0.00,0.00,0.00
2026-06-26 18:16:39.039,994.11,994.09,-1.89,-1.82,0.00,1.32,0.26,9.22,0.00,0.00,-0.00,0.00
2026-06-26 18:16:39.041,994.11,994.09,-1.89,-1.82,0.00,1.33,0.27,9.19,0.00,0.00,-0.00,0.00
2026-06-26 18:16:39.043,994.11,994.09,-1.89,-1.82,0.00,1.33,0.27,9.19,0.00,0.00,-0.00,0.00
2026-06-26 18:16:39.089,994.11,994.09,-1.69,-1.72,0.00,1.33,0.26,9.23,0.00,-0.00,0.00,0.00
2026-06-26 18:16:39.092,994.11,994.09,-1.69,-1.72,0.00,1.32,0.25,9.23,0.00,-0.00,0.00,0.00
2026-06-26 18:16:39.097,994.11,994.09,-1.69,-1.72,0.00,1.32,0.25,9.23,0.00,-0.00,0.00,0.00
2026-06-26 18:16:39.100,994.11,994.09,-1.69,-1.72,0.00,1.32,0.25,9.23,0.00,0.00,0.00,0.00
2026-06-26 18:16:39.101,994.11,994.09,-1.69,-1.72,0.00,1.32,0.25,9.27,0.00,0.00,0.00,0.00
2026-06-26 18:16:39.103,994.11,994.09,-1.69,-1.72,0.00,1.32,0.25,9.27,0.00,0.00,0.00,0.00
2026-06-26 18:16:39.104,994.11,994.09,-1.69,-1.72,0.00,1.32,0.25,9.27,0.00,0.00,0.00,0.00
2026-06-26 18:16:39.106,994.11,994.09,-1.69,-1.72,0.00,1.32,0.25,9.27,0.00,0.00,0.00,0.00
2026-06-26 18:16:39.109,994.11,994.09,-1.69,-1.72,0.00,1.32,0.25,9.27,0.00,0.00,0.00,0.00
2026-06-26 18:16:39.110,994.11,994.09,-1.69,-1.72,0.00,1.33,0.25,9.24,0.00,-0.00,0.00,0.00
2026-06-26 18:16:39.112,994.11,994.09,-1.69,-1.72,0.00,1.33,0.25,9.24,0.00,-0.00,0.00,0.00
2026-06-26 18:16:39.113,994.11,994.09,-1.69,-1.72,0.00,1.33,0.25,9.24,0.00,-0.00,0.00,0.00
2026-06-26 18:16:39.119,994.11,994.09,-1.69,-1.72,0.00,1.33,0.25,9.24,0.00,-0.00,0.00,0.00
2026-06-26 18:16:39.120,994.11,994.09,-1.69,-1.72,0.00,1.34,0.28,9.24,0.00,-0.00,-0.00,0.00
2026-06-26 18:16:39.122,994.11,994.09,-1.69,-1.72,0.00,1.34,0.28,9.24,0.00,-0.00,-0.00,0.00
2026-06-26 18:16:39.123,994.11,994.09,-1.69,-1.72,0.00,1.34,0.28,9.24,0.00,-0.00,-0.00,0.00
2026-06-26 18:16:39.129,994.11,994.09,-1.69,-1.72,0.00,1.34,0.28,9.24,0.00,-0.00,-0.00,0.00
2026-06-26 18:16:39.131,994.11,994.09,-1.69,-1.72,0.00,1.29,0.25,9.21,0.00,0.00,-0.00,0.00
2026-06-26 18:16:39.133,994.11,994.09,-1.69,-1.72,0.00,1.29,0.25,9.21,0.00,0.00,-0.00,0.00
2026-06-26 18:16:39.135,994.11,994.09,-1.69,-1.72,0.00,1.29,0.25,9.21,0.00,0.00,-0.00,0.00
2026-06-26 18:16:39.139,994.11,994.09,-1.69,-1.72,0.00,1.29,0.25,9.21,-0.00,0.00,0.00,0.00
2026-06-26 18:16:39.181,994.11,994.09,-1.63,-1.69,0.00,1.32,0.25,9.21,-0.00,-0.00,-0.00,0.00
2026-06-26 18:16:39.183,994.11,994.09,-1.63,-1.69,0.00,1.32,0.25,9.21,-0.00,-0.00,-0.00,0.00
2026-06-26 18:16:39.190,994.11,994.09,-1.63,-1.69,0.00,1.32,0.25,9.21,-0.00,-0.00,-0.00,0.00
2026-06-26 18:16:39.233,994.11,994.09,-1.74,-1.75,0.00,1.33,0.27,9.25,-0.00,0.00,-0.00,0.00
2026-06-26 18:16:39.239,994.11,994.09,-1.74,-1.75,0.00,1.33,0.27,9.25,-0.00,0.00,-0.00,0.00
2026-06-26 18:16:39.240,994.11,994.09,-1.74,-1.75,0.00,1.34,0.26,9.23,0.00,-0.00,0.00,0.00
2026-06-26 18:16:39.242,994.11,994.09,-1.74,-1.75,0.00,1.34,0.26,9.23,0.00,-0.00,0.00,0.00
2026-06-26 18:16:39.244,994.11,994.09,-1.74,-1.75,0.00,1.34,0.26,9.23,0.00,-0.00,0.00,0.00
2026-06-26 18:16:39.249,994.11,994.09,-1.74,-1.75,0.00,1.34,0.26,9.23,0.00,-0.00,0.00,0.00
2026-06-26 18:16:39.251,994.11,994.09,-1.74,-1.75,0.00,1.32,0.27,9.21,-0.00,0.00,0.00,0.00
2026-06-26 18:16:39.253,994.11,994.09,-1.74,-1.75,0.00,1.32,0.27,9.21,-0.00,0.00,0.00,0.00
2026-06-26 18:16:39.254,994.11,994.09,-1.74,-1.75,0.00,1.32,0.27,9.21,-0.00,0.00,0.00,0.00
2026-06-26 18:16:39.256,994.11,994.09,-1.74,-1.75,0.00,1.32,0.27,9.21,-0.00,0.00,0.00,0.00
2026-06-26 18:16:39.259,994.11,994.09,-1.74,-1.75,0.00,1.32,0.27,9.21,-0.00,0.00,0.00,0.00
2026-06-26 18:16:39.260,994.11,994.09,-1.74,-1.75,0.00,1.33,0.26,9.25,-0.00,0.00,0.00,0.00
2026-06-26 18:16:39.262,994.11,994.09,-1.74,-1.75,0.00,1.33,0.26,9.25,-0.00,0.00,0.00,0.00
2026-06-26 18:16:39.263,994.11,994.09,-1.74,-1.75,0.00,1.33,0.26,9.25,-0.00,0.00,0.00,0.00
2026-06-26 18:16:39.269,994.11,994.09,-1.74,-1.75,0.00,1.33,0.26,9.25,-0.00,0.00,0.00,0.00
2026-06-26 18:16:39.270,994.11,994.09,-1.74,-1.75,0.00,1.31,0.26,9.23,0.00,0.00,-0.00,0.00
2026-06-26 18:16:39.272,994.11,994.09,-1.74,-1.75,0.00,1.31,0.26,9.23,0.00,0.00,-0.00,0.00
2026-06-26 18:16:39.277,994.11,994.09,-1.74,-1.75,0.00,1.31,0.26,9.23,0.00,0.00,-0.00,0.00
2026-06-26 18:16:39.282,994.11,994.09,-1.74,-1.75,0.00,1.32,0.24,9.24,0.00,0.00,0.00,0.00
2026-06-26 18:16:39.329,994.11,994.09,-1.80,-1.78,0.00,1.32,0.27,9.23,0.00,0.00,-0.00,0.00
2026-06-26 18:16:39.333,994.11,994.09,-1.80,-1.78,0.00,1.31,0.26,9.21,-0.00,0.00,-0.00,0.00
2026-06-26 18:16:39.379,994.11,994.09,-1.54,-1.64,0.00,1.32,0.23,9.22,-0.00,0.00,-0.00,0.00
2026-06-26 18:16:39.381,994.11,994.09,-1.54,-1.64,0.00,1.34,0.26,9.24,-0.00,0.00,-0.00,0.00
2026-06-26 18:16:39.383,994.11,994.09,-1.54,-1.64,0.00,1.34,0.26,9.24,-0.00,0.00,-0.00,0.00
2026-06-26 18:16:39.386,994.11,994.09,-1.54,-1.64,0.00,1.34,0.26,9.24,-0.00,0.00,-0.00,0.00
2026-06-26 18:16:39.390,994.11,994.09,-1.54,-1.64,0.00,1.34,0.26,9.24,0.00,-0.00,0.00,0.00
2026-06-26 18:16:39.391,994.11,994.09,-1.54,-1.64,0.00,1.31,0.25,9.23,0.00,-0.00,0.00,0.00
2026-06-26 18:16:39.397,994.11,994.09,-1.54,-1.64,0.00,1.31,0.25,9.23,0.00,-0.00,0.00,0.00
2026-06-26 18:16:39.401,994.11,994.09,-1.54,-1.64,0.00,1.31,0.25,9.23,0.00,-0.00,0.00,0.00
2026-06-26 18:16:39.403,994.11,994.09,-1.54,-1.64,0.00,1.31,0.25,9.26,0.00,-0.00,0.00,0.00
2026-06-26 18:16:39.404,994.11,994.09,-1.54,-1.64,0.00,1.31,0.25,9.26,0.00,-0.00,0.00,0.00
2026-06-26 18:16:39.406,994.11,994.09,-1.54,-1.64,0.00,1.31,0.25,9.26,0.00,-0.00,0.00,0.00
2026-06-26 18:16:39.409,994.11,994.09,-1.54,-1.64,0.00,1.31,0.25,9.26,0.00,-0.00,0.00,0.00
2026-06-26 18:16:39.411,994.11,994.09,-1.54,-1.64,0.00,1.33,0.26,9.20,0.00,0.00,0.00,0.00
2026-06-26 18:16:39.413,994.11,994.09,-1.54,-1.64,0.00,1.33,0.26,9.20,0.00,0.00,0.00,0.00
2026-06-26 18:16:39.414,994.11,994.09,-1.54,-1.64,0.00,1.33,0.26,9.20,0.00,0.00,0.00,0.00
2026-06-26 18:16:39.419,994.11,994.09,-1.54,-1.64,0.00,1.33,0.26,9.20,0.00,0.00,0.00,0.00
2026-06-26 18:16:39.421,994.11,994.09,-1.54,-1.64,0.00,1.32,0.26,9.20,0.00,-0.00,0.00,0.00
2026-06-26 18:16:39.422,994.11,994.09,-1.54,-1.64,0.00,1.32,0.26,9.20,0.00,-0.00,0.00,0.00
2026-06-26 18:16:39.424,994.11,994.09,-1.54,-1.64,0.00,1.32,0.26,9.20,0.00,-0.00,0.00,0.00
2026-06-26 18:16:39.470,994.11,994.10,-1.20,-1.45,0.00,1.32,0.25,9.23,-0.00,0.00,-0.00,0.00
2026-06-26 18:16:39.472,994.11,994.10,-1.20,-1.45,0.00,1.33,0.27,9.20,0.00,0.00,-0.00,0.00
2026-06-26 18:16:39.476,994.11,994.10,-1.20,-1.45,0.00,1.33,0.27,9.20,0.00,0.00,-0.00,0.00
2026-06-26 18:16:39.520,994.11,994.10,-1.56,-1.65,0.00,1.32,0.26,9.24,0.00,0.00,0.00,0.00
2026-06-26 18:16:39.522,994.11,994.10,-1.56,-1.65,0.00,1.33,0.26,9.24,0.00,0.00,0.00,0.00
2026-06-26 18:16:39.523,994.11,994.10,-1.56,-1.65,0.00,1.33,0.26,9.24,0.00,0.00,0.00,0.00
2026-06-26 18:16:39.529,994.11,994.10,-1.56,-1.65,0.00,1.33,0.26,9.24,0.00,0.00,0.00,0.00
2026-06-26 18:16:39.531,994.11,994.10,-1.56,-1.65,0.00,1.34,0.27,9.19,-0.00,-0.00,0.00,0.00
2026-06-26 18:16:39.532,994.11,994.10,-1.56,-1.65,0.00,1.34,0.27,9.19,-0.00,-0.00,0.00,0.00
2026-06-26 18:16:39.534,994.11,994.10,-1.56,-1.65,0.00,1.34,0.27,9.19,-0.00,-0.00,0.00,0.00
2026-06-26 18:16:39.536,994.11,994.10,-1.56,-1.65,0.00,1.34,0.27,9.19,-0.00,-0.00,0.00,0.00
2026-06-26 18:16:39.540,994.11,994.10,-1.56,-1.65,0.00,1.34,0.27,9.19,-0.00,-0.00,0.00,0.00
2026-06-26 18:16:39.542,994.11,994.10,-1.56,-1.65,0.00,1.33,0.28,9.22,-0.00,-0.00,0.00,0.00
2026-06-26 18:16:39.543,994.11,994.10,-1.56,-1.65,0.00,1.33,0.28,9.22,-0.00,-0.00,0.00,0.00
2026-06-26 18:16:39.546,994.11,994.10,-1.56,-1.65,0.00,1.33,0.28,9.22,-0.00,-0.00,0.00,0.00
2026-06-26 18:16:39.552,994.11,994.10,-1.56,-1.65,0.00,1.33,0.28,9.22,0.00,0.00,0.00,0.00
2026-06-26 18:16:39.553,994.11,994.10,-1.56,-1.65,0.00,1.33,0.27,9.25,0.00,0.00,0.00,0.00
2026-06-26 18:16:39.555,994.11,994.10,-1.56,-1.65,0.00,1.33,0.27,9.25,0.00,0.00,0.00,0.00
2026-06-26 18:16:39.557,994.11,994.10,-1.56,-1.65,0.00,1.33,0.27,9.25,0.00,0.00,0.00,0.00
2026-06-26 18:16:39.563,994.11,994.10,-1.56,-1.65,0.00,1.33,0.27,9.25,-0.00,0.00,0.00,0.00
2026-06-26 18:16:39.606,994.11,994.09,-1.94,-1.85,0.00,1.31,0.26,9.22,0.00,-0.00,0.00,0.00
2026-06-26 18:16:39.610,994.11,994.09,-1.94,-1.85,0.00,1.31,0.26,9.22,-0.00,-0.00,0.00,0.00
2026-06-26 18:16:39.612,994.11,994.09,-1.94,-1.85,0.00,1.31,0.26,9.23,-0.00,-0.00,0.00,0.00
2026-06-26 18:16:39.613,994.11,994.09,-1.94,-1.85,0.00,1.31,0.26,9.23,-0.00,-0.00,0.00,0.00
2026-06-26 18:16:39.616,994.11,994.09,-1.94,-1.85,0.00,1.31,0.26,9.23,-0.00,-0.00,0.00,0.00
2026-06-26 18:16:39.620,994.11,994.09,-1.94,-1.85,0.00,1.31,0.26,9.23,-0.00,-0.00,-0.00,0.00
2026-06-26 18:16:39.660,994.11,994.09,-1.64,-1.70,0.00,1.33,0.26,9.24,0.00,0.00,0.00,0.00
2026-06-26 18:16:39.662,994.11,994.09,-1.64,-1.70,0.00,1.33,0.26,9.23,0.00,0.00,0.00,0.00
2026-06-26 18:16:39.664,994.11,994.09,-1.64,-1.70,0.00,1.33,0.26,9.23,0.00,0.00,0.00,0.00
2026-06-26 18:16:39.670,994.11,994.09,-1.64,-1.70,0.00,1.33,0.26,9.23,0.00,0.00,0.00,0.00
2026-06-26 18:16:39.674,994.11,994.09,-1.64,-1.70,0.00,1.32,0.26,9.22,0.00,0.00,0.00,0.00
2026-06-26 18:16:39.680,994.11,994.09,-1.64,-1.70,0.00,1.32,0.26,9.22,0.00,0.00,0.00,0.00
2026-06-26 18:16:39.681,994.11,994.09,-1.64,-1.70,0.00,1.31,0.26,9.22,-0.00,-0.00,0.00,0.00
2026-06-26 18:16:39.683,994.11,994.09,-1.64,-1.70,0.00,1.31,0.26,9.22,-0.00,-0.00,0.00,0.00
2026-06-26 18:16:39.685,994.11,994.09,-1.64,-1.70,0.00,1.31,0.26,9.22,-0.00,-0.00,0.00,0.00
2026-06-26 18:16:39.690,994.11,994.09,-1.64,-1.70,0.00,1.31,0.26,9.22,-0.00,-0.00,0.00,0.00
2026-06-26 18:16:39.692,994.11,994.09,-1.64,-1.70,0.00,1.32,0.26,9.23,-0.00,0.00,-0.00,0.00
2026-06-26 18:16:39.693,994.11,994.09,-1.64,-1.70,0.00,1.32,0.26,9.23,-0.00,0.00,-0.00,0.00
2026-06-26 18:16:39.696,994.11,994.09,-1.64,-1.70,0.00,1.32,0.26,9.23,-0.00,0.00,-0.00,0.00
2026-06-26 18:16:39.701,994.11,994.09,-1.64,-1.70,0.00,1.32,0.26,9.23,0.00,0.00,0.00,0.00
2026-06-26 18:16:39.702,994.11,994.09,-1.64,-1.70,0.00,1.31,0.26,9.24,0.00,0.00,0.00,0.00
2026-06-26 18:16:39.705,994.11,994.09,-1.64,-1.70,0.00,1.31,0.26,9.24,0.00,0.00,0.00,0.00
2026-06-26 18:16:39.751,994.11,994.09,-2.17,-1.95,0.00,1.30,0.25,9.23,0.00,0.00,0.00,0.00
2026-06-26 18:16:39.754,994.11,994.09,-2.17,-1.95,0.00,1.32,0.27,9.23,0.00,0.00,0.00,0.00
2026-06-26 18:16:39.756,994.11,994.09,-2.17,-1.95,0.00,1.32,0.27,9.23,0.00,0.00,0.00,0.00
2026-06-26 18:16:39.758,994.11,994.09,-2.17,-1.95,0.00,1.32,0.27,9.23,0.00,0.00,0.00,0.00
2026-06-26 18:16:39.801,994.11,994.09,-2.28,-2.00,0.00,1.32,0.26,9.22,-0.00,0.00,-0.00,0.00
2026-06-26 18:16:39.803,994.11,994.09,-2.28,-2.00,0.00,1.32,0.26,9.21,-0.00,0.00,-0.00,0.00
2026-06-26 18:16:39.804,994.11,994.09,-2.28,-2.00,0.00,1.32,0.26,9.21,-0.00,0.00,-0.00,0.00
2026-06-26 18:16:39.806,994.11,994.09,-2.28,-2.00,0.00,1.32,0.26,9.21,-0.00,0.00,-0.00,0.00
2026-06-26 18:16:39.808,994.11,994.09,-2.28,-2.00,0.00,1.32,0.26,9.21,-0.00,0.00,-0.00,0.00
2026-06-26 18:16:39.812,994.11,994.09,-2.28,-2.00,0.00,1.31,0.26,9.21,-0.00,-0.00,0.00,0.00
2026-06-26 18:16:39.814,994.11,994.09,-2.28,-2.00,0.00,1.31,0.26,9.21,-0.00,-0.00,0.00,0.00
2026-06-26 18:16:39.818,994.11,994.09,-2.28,-2.00,0.00,1.31,0.26,9.21,-0.00,-0.00,0.00,0.00
2026-06-26 18:16:39.821,994.11,994.09,-2.28,-2.00,0.00,1.31,0.26,9.21,-0.00,0.00,0.00,0.00
2026-06-26 18:16:39.823,994.11,994.09,-2.28,-2.00,0.00,1.33,0.25,9.20,-0.00,0.00,0.00,0.00
2026-06-26 18:16:39.827,994.11,994.09,-2.28,-2.00,0.00,1.33,0.25,9.20,-0.00,0.00,0.00,0.00
2026-06-26 18:16:39.831,994.11,994.09,-2.28,-2.00,0.00,1.33,0.25,9.20,0.00,-0.00,0.00,0.00
2026-06-26 18:16:39.833,994.11,994.09,-2.28,-2.00,0.00,1.33,0.28,9.20,0.00,-0.00,0.00,0.00
2026-06-26 18:16:39.834,994.11,994.09,-2.28,-2.00,0.00,1.33,0.28,9.20,0.00,-0.00,0.00,0.00
2026-06-26 18:16:39.840,994.11,994.09,-2.28,-2.00,0.00,1.33,0.28,9.20,0.00,-0.00,0.00,0.00
2026-06-26 18:16:39.842,994.11,994.09,-2.28,-2.00,0.00,1.31,0.25,9.23,-0.00,-0.00,-0.00,0.00
2026-06-26 18:16:39.844,994.11,994.09,-2.28,-2.00,0.00,1.31,0.25,9.23,-0.00,-0.00,-0.00,0.00
2026-06-26 18:16:39.848,994.11,994.09,-2.28,-2.00,0.00,1.31,0.25,9.23,-0.00,-0.00,-0.00,0.00
2026-06-26 18:16:39.890,994.11,994.09,-1.90,-1.83,0.00,1.32,0.25,9.21,-0.00,0.00,0.00,0.00
2026-06-26 18:16:39.892,994.11,994.09,-1.90,-1.83,0.00,1.32,0.25,9.21,-0.00,0.00,0.00,0.00
2026-06-26 18:16:39.894,994.11,994.09,-1.90,-1.83,0.00,1.32,0.25,9.21,-0.00,0.00,0.00,0.00
2026-06-26 18:16:39.895,994.11,994.09,-1.90,-1.83,0.00,1.32,0.25,9.21,-0.00,0.00,0.00,0.00
2026-06-26 18:16:39.901,994.11,994.09,-1.90,-1.83,0.00,1.32,0.25,9.21,-0.00,0.00,0.00,0.00
2026-06-26 18:16:39.943,994.11,994.09,-2.07,-1.91,0.00,1.32,0.25,9.22,0.00,0.00,0.00,0.00
2026-06-26 18:16:39.945,994.11,994.09,-2.07,-1.91,0.00,1.32,0.25,9.22,0.00,0.00,0.00,0.00
2026-06-26 18:16:39.951,994.11,994.09,-2.07,-1.91,0.00,1.32,0.25,9.22,0.00,0.00,0.00,0.00
2026-06-26 18:16:39.952,994.11,994.09,-2.07,-1.91,0.00,1.33,0.23,9.22,0.00,0.00,0.00,0.00
2026-06-26 18:16:39.957,994.11,994.09,-2.07,-1.91,0.00,1.33,0.23,9.22,0.00,0.00,0.00,0.00
2026-06-26 18:16:39.961,994.11,994.09,-2.07,-1.91,0.00,1.33,0.23,9.22,0.00,0.00,0.00,0.00
2026-06-26 18:16:39.968,994.11,994.09,-2.07,-1.91,0.00,1.31,0.24,9.24,0.00,0.00,-0.00,0.00
2026-06-26 18:16:39.972,994.11,994.09,-2.07,-1.91,0.00,1.31,0.24,9.24,0.00,-0.00,-0.00,0.00
2026-06-26 18:16:39.974,994.11,994.09,-2.07,-1.91,0.00,1.33,0.24,9.22,0.00,-0.00,-0.00,0.00
2026-06-26 18:16:39.980,994.11,994.09,-2.07,-1.91,0.00,1.33,0.24,9.22,0.00,-0.00,-0.00,0.00
2026-06-26 18:16:39.983,994.11,994.09,-2.07,-1.91,0.00,1.33,0.26,9.23,0.00,0.00,-0.00,0.00
2026-06-26 18:16:39.985,994.11,994.09,-2.07,-1.91,0.00,1.33,0.26,9.23,0.00,0.00,-0.00,0.00
2026-06-26 18:16:39.991,994.11,994.09,-2.07,-1.91,0.00,1.33,0.26,9.23,0.00,0.00,-0.00,0.00
2026-06-26 18:16:40.034,994.11,994.09,-2.25,-1.99,0.00,1.36,0.28,9.25,-0.00,-0.00,-0.00,0.00
2026-06-26 18:16:40.041,994.11,994.09,-2.25,-1.99,0.00,1.36,0.28,9.25,-0.00,-0.00,-0.00,0.00
2026-06-26 18:16:40.043,994.11,994.09,-2.25,-1.99,0.00,1.36,0.25,9.23,-0.00,0.00,0.00,0.00
2026-06-26 18:16:40.091,994.11,994.09,-2.15,-1.94,0.00,1.29,0.27,9.19,0.00,0.00,0.00,0.00
2026-06-26 18:16:40.094,994.11,994.09,-2.15,-1.94,0.00,1.29,0.27,9.23,-0.00,-0.00,0.00,0.00
2026-06-26 18:16:40.099,994.11,994.09,-2.15,-1.94,0.00,1.29,0.27,9.23,-0.00,-0.00,0.00,0.00
2026-06-26 18:16:40.102,994.11,994.09,-2.15,-1.94,0.00,1.30,0.26,9.26,0.00,0.00,0.00,0.00
2026-06-26 18:16:40.103,994.11,994.09,-2.15,-1.94,0.00,1.30,0.26,9.26,0.00,0.00,0.00,0.00
2026-06-26 18:16:40.105,994.11,994.09,-2.15,-1.94,0.00,1.30,0.26,9.26,0.00,0.00,0.00,0.00
2026-06-26 18:16:40.106,994.11,994.09,-2.15,-1.94,0.00,1.30,0.26,9.26,0.00,0.00,0.00,0.00
2026-06-26 18:16:40.108,994.11,994.09,-2.15,-1.94,0.00,1.30,0.26,9.26,0.00,0.00,0.00,0.00
2026-06-26 18:16:40.111,994.11,994.09,-2.15,-1.94,0.00,1.30,0.26,9.26,0.00,0.00,0.00,0.00
2026-06-26 18:16:40.112,994.11,994.09,-2.15,-1.94,0.00,1.30,0.25,9.26,0.00,0.00,-0.00,0.00
2026-06-26 18:16:40.114,994.11,994.09,-2.15,-1.94,0.00,1.30,0.25,9.26,0.00,0.00,-0.00,0.00
2026-06-26 18:16:40.115,994.11,994.09,-2.15,-1.94,0.00,1.30,0.25,9.26,0.00,0.00,-0.00,0.00
2026-06-26 18:16:40.122,994.11,994.09,-2.15,-1.94,0.00,1.30,0.25,9.26,0.00,0.00,-0.00,0.00
2026-06-26 18:16:40.125,994.11,994.09,-2.15,-1.94,0.00,1.31,0.27,9.24,0.00,0.00,-0.00,0.00
2026-06-26 18:16:40.131,994.11,994.09,-2.15,-1.94,0.00,1.31,0.27,9.24,0.00,0.00,-0.00,0.00
2026-06-26 18:16:40.133,994.11,994.09,-2.15,-1.94,0.00,1.33,0.25,9.21,0.00,0.00,-0.00,0.00
2026-06-26 18:16:40.181,994.11,994.09,-1.91,-1.83,0.00,1.34,0.25,9.22,0.00,-0.00,0.00,0.00
2026-06-26 18:16:40.183,994.11,994.09,-1.91,-1.83,0.00,1.33,0.23,9.23,0.00,-0.00,0.00,0.00
2026-06-26 18:16:40.184,994.11,994.09,-1.91,-1.83,0.00,1.33,0.23,9.23,0.00,-0.00,0.00,0.00
2026-06-26 18:16:40.187,994.11,994.09,-1.91,-1.83,0.00,1.33,0.23,9.23,0.00,-0.00,0.00,0.00
2026-06-26 18:16:40.232,994.11,994.09,-2.02,-1.88,0.00,1.29,0.24,9.23,-0.00,0.00,-0.00,0.00
2026-06-26 18:16:40.233,994.11,994.09,-2.02,-1.88,0.00,1.27,0.26,9.24,-0.00,0.00,-0.00,0.00
2026-06-26 18:16:40.235,994.11,994.09,-2.02,-1.88,0.00,1.27,0.26,9.24,-0.00,0.00,-0.00,0.00
2026-06-26 18:16:40.236,994.11,994.09,-2.02,-1.88,0.00,1.27,0.26,9.24,-0.00,0.00,-0.00,0.00
2026-06-26 18:16:40.242,994.11,994.09,-2.02,-1.88,0.00,1.27,0.26,9.24,0.00,0.00,0.00,0.00
2026-06-26 18:16:40.244,994.11,994.09,-2.02,-1.88,0.00,1.32,0.27,9.22,0.00,0.00,0.00,0.00
2026-06-26 18:16:40.246,994.11,994.09,-2.02,-1.88,0.00,1.32,0.27,9.22,0.00,0.00,0.00,0.00
2026-06-26 18:16:40.251,994.11,994.09,-2.02,-1.88,0.00,1.32,0.27,9.22,0.00,0.00,0.00,0.00
2026-06-26 18:16:40.253,994.11,994.09,-2.02,-1.88,0.00,1.32,0.26,9.24,-0.00,0.00,-0.00,0.00
2026-06-26 18:16:40.255,994.11,994.09,-2.02,-1.88,0.00,1.32,0.26,9.24,-0.00,0.00,-0.00,0.00
2026-06-26 18:16:40.256,994.11,994.09,-2.02,-1.88,0.00,1.32,0.26,9.24,-0.00,0.00,-0.00,0.00
2026-06-26 18:16:40.258,994.11,994.09,-2.02,-1.88,0.00,1.32,0.26,9.24,-0.00,0.00,-0.00,0.00
2026-06-26 18:16:40.262,994.11,994.09,-2.02,-1.88,0.00,1.32,0.26,9.24,-0.00,0.00,-0.00,0.00
2026-06-26 18:16:40.264,994.11,994.09,-2.02,-1.88,0.00,1.33,0.25,9.26,0.00,-0.00,0.00,0.00
2026-06-26 18:16:40.266,994.11,994.09,-2.02,-1.88,0.00,1.33,0.25,9.26,0.00,-0.00,0.00,0.00
2026-06-26 18:16:40.271,994.11,994.09,-2.02,-1.88,0.00,1.33,0.25,9.26,0.00,-0.00,0.00,0.00
2026-06-26 18:16:40.273,994.11,994.09,-2.02,-1.88,0.00,1.35,0.24,9.22,0.00,0.00,-0.00,0.00
2026-06-26 18:16:40.275,994.11,994.09,-2.02,-1.88,0.00,1.35,0.24,9.22,0.00,0.00,-0.00,0.00
2026-06-26 18:16:40.280,994.11,994.09,-2.02,-1.88,0.00,1.35,0.24,9.22,0.00,0.00,-0.00,0.00
2026-06-26 18:16:40.322,994.11,994.09,-2.37,-2.04,0.00,1.33,0.26,9.23,-0.00,0.00,0.00,0.00
2026-06-26 18:16:40.324,994.11,994.09,-2.37,-2.04,0.00,1.33,0.27,9.22,-0.00,0.00,0.00,0.00
2026-06-26 18:16:40.325,994.11,994.09,-2.37,-2.04,0.00,1.33,0.27,9.22,-0.00,0.00,0.00,0.00
2026-06-26 18:16:40.331,994.11,994.09,-2.37,-2.04,0.00,1.33,0.27,9.22,-0.00,0.00,0.00,0.00
2026-06-26 18:16:40.374,994.11,994.09,-2.43,-2.07,0.00,1.33,0.26,9.21,-0.00,0.00,0.00,0.00
2026-06-26 18:16:40.375,994.11,994.09,-2.43,-2.07,0.00,1.33,0.26,9.21,-0.00,0.00,0.00,0.00
2026-06-26 18:16:40.381,994.11,994.09,-2.43,-2.07,0.00,1.33,0.26,9.21,-0.00,0.00,0.00,0.00
2026-06-26 18:16:40.383,994.11,994.09,-2.43,-2.07,0.00,1.35,0.25,9.21,-0.00,0.00,0.00,0.00
2026-06-26 18:16:40.385,994.11,994.09,-2.43,-2.07,0.00,1.35,0.25,9.21,-0.00,0.00,0.00,0.00
2026-06-26 18:16:40.389,994.11,994.09,-2.43,-2.07,0.00,1.35,0.25,9.21,-0.00,0.00,0.00,0.00
2026-06-26 18:16:40.392,994.11,994.09,-2.43,-2.07,0.00,1.35,0.25,9.21,0.00,0.01,0.00,0.00
2026-06-26 18:16:40.396,994.11,994.09,-2.43,-2.07,0.00,1.35,0.27,9.23,0.00,0.01,0.00,0.00
2026-06-26 18:16:40.402,994.11,994.09,-2.43,-2.07,0.00,1.35,0.27,9.23,0.00,0.01,0.00,0.00
2026-06-26 18:16:40.404,994.11,994.09,-2.43,-2.07,0.00,1.33,0.26,9.22,0.00,-0.00,0.00,0.00
2026-06-26 18:16:40.405,994.11,994.09,-2.43,-2.07,0.00,1.33,0.26,9.22,0.00,-0.00,0.00,0.00
2026-06-26 18:16:40.407,994.11,994.09,-2.43,-2.07,0.00,1.33,0.26,9.22,0.00,-0.00,0.00,0.00
2026-06-26 18:16:40.408,994.11,994.09,-2.43,-2.07,0.00,1.33,0.26,9.22,0.00,-0.00,0.00,0.00
2026-06-26 18:16:40.411,994.11,994.09,-2.43,-2.07,0.00,1.33,0.26,9.22,0.00,-0.00,0.00,0.00
2026-06-26 18:16:40.413,994.11,994.09,-2.43,-2.07,0.00,1.28,0.28,9.27,-0.00,-0.00,0.00,0.00
2026-06-26 18:16:40.414,994.11,994.09,-2.43,-2.07,0.00,1.28,0.28,9.27,-0.00,-0.00,0.00,0.00
2026-06-26 18:16:40.416,994.11,994.09,-2.43,-2.07,0.00,1.28,0.28,9.27,-0.00,-0.00,0.00,0.00
2026-06-26 18:16:40.421,994.11,994.09,-2.43,-2.07,0.00,1.28,0.28,9.27,-0.00,-0.00,0.00,0.00
2026-06-26 18:16:40.462,994.11,994.09,-1.91,-1.83,0.00,1.35,0.27,9.26,-0.00,0.00,0.00,0.00
2026-06-26 18:16:40.464,994.11,994.09,-1.91,-1.83,0.00,1.34,0.26,9.26,-0.00,0.00,0.00,0.00
2026-06-26 18:16:40.466,994.11,994.09,-1.91,-1.83,0.00,1.34,0.26,9.26,-0.00,0.00,0.00,0.00
2026-06-26 18:16:40.470,994.11,994.09,-1.91,-1.83,0.00,1.34,0.26,9.26,-0.00,0.00,0.00,0.00
2026-06-26 18:16:40.472,994.11,994.09,-1.91,-1.83,0.00,1.34,0.26,9.26,-0.00,0.00,0.00,0.00
2026-06-26 18:16:40.515,994.11,994.09,-1.80,-1.78,0.00,1.33,0.24,9.24,0.00,0.00,0.00,0.00
2026-06-26 18:16:40.518,994.11,994.09,-1.80,-1.78,0.00,1.33,0.24,9.24,0.00,0.00,0.00,0.00
2026-06-26 18:16:40.522,994.11,994.09,-1.80,-1.78,0.00,1.33,0.24,9.24,0.00,-0.00,0.00,0.00
2026-06-26 18:16:40.524,994.11,994.09,-1.80,-1.78,0.00,1.28,0.27,9.21,0.00,-0.00,0.00,0.00
2026-06-26 18:16:40.525,994.11,994.09,-1.80,-1.78,0.00,1.28,0.27,9.21,0.00,-0.00,0.00,0.00
2026-06-26 18:16:40.529,994.11,994.09,-1.80,-1.78,0.00,1.28,0.27,9.21,0.00,-0.00,0.00,0.00
2026-06-26 18:16:40.533,994.11,994.09,-1.80,-1.78,0.00,1.28,0.27,9.21,-0.00,0.00,0.00,0.00
2026-06-26 18:16:40.535,994.11,994.09,-1.80,-1.78,0.00,1.33,0.28,9.19,-0.00,0.00,0.00,0.00
2026-06-26 18:16:40.540,994.11,994.09,-1.80,-1.78,0.00,1.33,0.28,9.19,-0.00,0.00,0.00,0.00
2026-06-26 18:16:40.543,994.11,994.09,-1.80,-1.78,0.00,1.32,0.27,9.21,0.00,0.00,0.00,0.00
2026-06-26 18:16:40.545,994.11,994.09,-1.80,-1.78,0.00,1.32,0.27,9.21,0.00,0.00,0.00,0.00
2026-06-26 18:16:40.547,994.11,994.09,-1.80,-1.78,0.00,1.32,0.27,9.21,0.00,0.00,0.00,0.00
2026-06-26 18:16:40.552,994.11,994.09,-1.80,-1.78,0.00,1.32,0.27,9.21,0.00,0.00,0.00,0.00
2026-06-26 18:16:40.554,994.11,994.09,-1.80,-1.78,0.00,1.31,0.26,9.22,0.00,0.00,-0.00,0.00
2026-06-26 18:16:40.555,994.11,994.09,-1.80,-1.78,0.00,1.31,0.26,9.22,0.00,0.00,-0.00,0.00
2026-06-26 18:16:40.557,994.11,994.09,-1.80,-1.78,0.00,1.31,0.26,9.22,0.00,0.00,-0.00,0.00
2026-06-26 18:16:40.558,994.11,994.09,-1.80,-1.78,0.00,1.31,0.26,9.22,0.00,0.00,-0.00,0.00
2026-06-26 18:16:40.596,994.11,994.09,-2.12,-1.93,0.00,1.32,0.26,9.21,0.00,-0.00,0.00,0.00
2026-06-26 18:16:40.603,994.11,994.09,-2.12,-1.93,0.00,1.32,0.26,9.21,0.00,0.00,0.00,0.00
2026-06-26 18:16:40.606,994.11,994.09,-2.12,-1.93,0.00,1.33,0.27,9.23,0.00,0.00,0.00,0.00
2026-06-26 18:16:40.609,994.11,994.09,-2.12,-1.93,0.00,1.33,0.27,9.23,0.00,0.00,0.00,0.00
2026-06-26 18:16:40.613,994.11,994.09,-2.12,-1.93,0.00,1.33,0.27,9.23,-0.00,-0.00,0.00,0.00
2026-06-26 18:16:40.619,994.11,994.09,-2.12,-1.93,0.00,1.31,0.29,9.25,-0.00,-0.00,0.00,0.00
2026-06-26 18:16:40.658,994.11,994.09,-2.22,-1.97,0.00,1.29,0.27,9.27,0.00,0.00,0.00,0.00
2026-06-26 18:16:40.659,994.11,994.09,-2.22,-1.97,0.00,1.29,0.27,9.27,0.00,0.00,0.00,0.00
2026-06-26 18:16:40.663,994.11,994.09,-2.22,-1.97,0.00,1.29,0.27,9.27,0.00,0.00,-0.00,0.00
2026-06-26 18:16:40.664,994.11,994.09,-2.22,-1.97,0.00,1.36,0.24,9.23,0.00,0.00,-0.00,0.00
2026-06-26 18:16:40.666,994.11,994.09,-2.22,-1.97,0.00,1.36,0.24,9.23,0.00,0.00,-0.00,0.00
2026-06-26 18:16:40.669,994.11,994.09,-2.22,-1.97,0.00,1.36,0.24,9.23,0.00,0.00,-0.00,0.00
2026-06-26 18:16:40.673,994.11,994.09,-2.22,-1.97,0.00,1.36,0.24,9.23,-0.00,-0.00,0.00,0.00
2026-06-26 18:16:40.676,994.11,994.09,-2.22,-1.97,0.00,1.32,0.27,9.23,-0.00,-0.00,0.00,0.00
2026-06-26 18:16:40.685,994.11,994.09,-2.22,-1.97,0.00,1.31,0.24,9.23,0.00,-0.00,0.00,0.00
2026-06-26 18:16:40.689,994.11,994.09,-2.22,-1.97,0.00,1.31,0.24,9.23,0.00,-0.00,0.00,0.00
2026-06-26 18:16:40.693,994.11,994.09,-2.22,-1.97,0.00,1.31,0.24,9.23,-0.00,0.00,0.00,0.00
2026-06-26 18:16:40.695,994.11,994.09,-2.22,-1.97,0.00,1.33,0.28,9.26,-0.00,0.00,0.00,0.00
2026-06-26 18:16:40.734,994.11,994.09,-2.22,-1.97,0.00,1.34,0.27,9.20,0.00,0.00,-0.00,0.00
2026-06-26 18:16:40.735,994.11,994.09,-2.22,-1.97,0.00,1.34,0.27,9.20,0.00,0.00,-0.00,0.00
2026-06-26 18:16:40.742,994.11,994.09,-2.22,-1.97,0.00,1.34,0.27,9.20,0.00,0.00,-0.00,0.00
2026-06-26 18:16:40.746,994.11,994.09,-2.22,-1.97,0.00,1.33,0.28,9.24,0.00,0.00,0.00,0.00
2026-06-26 18:16:40.751,994.11,994.09,-2.22,-1.97,0.00,1.33,0.28,9.24,0.00,0.00,0.00,0.00
2026-06-26 18:16:40.753,994.11,994.09,-2.22,-1.97,0.00,1.31,0.27,9.23,-0.00,0.00,0.00,0.00
2026-06-26 18:16:40.755,994.11,994.09,-2.22,-1.97,0.00,1.31,0.27,9.23,-0.00,0.00,0.00,0.00
2026-06-26 18:16:40.757,994.11,994.09,-2.22,-1.97,0.00,1.31,0.27,9.23,-0.00,0.00,0.00,0.00
2026-06-26 18:16:40.803,994.11,994.09,-2.38,-2.05,0.00,1.33,0.25,9.25,0.00,0.00,0.00,0.00
2026-06-26 18:16:40.804,994.11,994.09,-2.38,-2.05,0.00,1.29,0.26,9.24,0.00,0.00,0.00,0.00
2026-06-26 18:16:40.807,994.11,994.09,-2.38,-2.05,0.00,1.29,0.26,9.24,0.00,0.00,0.00,0.00
2026-06-26 18:16:40.809,994.11,994.09,-2.38,-2.05,0.00,1.29,0.26,9.24,0.00,0.00,0.00,0.00
2026-06-26 18:16:40.812,994.11,994.09,-2.38,-2.05,0.00,1.29,0.26,9.24,0.00,0.00,0.00,0.00
2026-06-26 18:16:40.815,994.11,994.09,-2.38,-2.05,0.00,1.33,0.27,9.22,-0.00,0.00,0.00,0.00
2026-06-26 18:16:40.817,994.11,994.09,-2.38,-2.05,0.00,1.33,0.27,9.22,-0.00,0.00,0.00,0.00
2026-06-26 18:16:40.821,994.11,994.09,-2.38,-2.05,0.00,1.33,0.27,9.22,-0.00,0.00,0.00,0.00
2026-06-26 18:16:40.823,994.11,994.09,-2.38,-2.05,0.00,1.33,0.27,9.22,0.00,-0.00,-0.00,0.00
2026-06-26 18:16:40.825,994.11,994.09,-2.38,-2.05,0.00,1.32,0.26,9.24,0.00,-0.00,-0.00,0.00
2026-06-26 18:16:40.826,994.11,994.09,-2.38,-2.05,0.00,1.32,0.26,9.24,0.00,-0.00,-0.00,0.00
2026-06-26 18:16:40.830,994.11,994.09,-2.38,-2.05,0.00,1.32,0.26,9.24,0.00,-0.00,-0.00,0.00
2026-06-26 18:16:40.834,994.11,994.09,-2.38,-2.05,0.00,1.30,0.28,9.21,0.00,-0.00,0.00,0.00
2026-06-26 18:16:40.875,994.11,994.09,-2.67,-2.17,0.00,1.32,0.27,9.24,0.00,0.00,-0.00,0.00
2026-06-26 18:16:40.876,994.11,994.09,-2.67,-2.17,0.00,1.32,0.27,9.24,0.00,0.00,-0.00,0.00
2026-06-26 18:16:40.880,994.11,994.09,-2.67,-2.17,0.00,1.32,0.27,9.24,0.00,0.00,-0.00,0.00
2026-06-26 18:16:40.883,994.11,994.09,-2.67,-2.17,0.00,1.32,0.27,9.24,0.00,-0.00,-0.00,0.00
2026-06-26 18:16:40.885,994.11,994.09,-2.67,-2.17,0.00,1.32,0.27,9.18,0.00,-0.00,-0.00,0.00
2026-06-26 18:16:40.886,994.11,994.09,-2.67,-2.17,0.00,1.32,0.27,9.18,0.00,-0.00,-0.00,0.00
2026-06-26 18:16:40.887,994.11,994.09,-2.67,-2.17,0.00,1.32,0.27,9.18,0.00,-0.00,-0.00,0.00
2026-06-26 18:16:40.891,994.11,994.09,-2.67,-2.17,0.00,1.32,0.27,9.18,0.00,-0.00,-0.00,0.00
2026-06-26 18:16:40.893,994.11,994.09,-2.67,-2.17,0.00,1.35,0.25,9.27,-0.00,0.00,0.00,0.00
2026-06-26 18:16:40.895,994.11,994.09,-2.67,-2.17,0.00,1.35,0.25,9.27,-0.00,0.00,0.00,0.00
2026-06-26 18:16:40.896,994.11,994.09,-2.67,-2.17,0.00,1.35,0.25,9.27,-0.00,0.00,0.00,0.00
2026-06-26 18:16:40.897,994.11,994.09,-2.67,-2.17,0.00,1.35,0.25,9.27,-0.00,0.00,0.00,0.00
2026-06-26 18:16:40.903,994.11,994.09,-2.67,-2.17,0.00,1.35,0.25,9.27,-0.00,0.00,0.00,0.00
2026-06-26 18:16:40.944,994.11,994.09,-2.36,-2.04,0.00,1.33,0.26,9.24,0.00,0.00,0.00,0.00
2026-06-26 18:16:40.946,994.11,994.09,-2.36,-2.04,0.00,1.33,0.26,9.24,0.00,0.00,0.00,0.00
2026-06-26 18:16:40.947,994.11,994.09,-2.36,-2.04,0.00,1.33,0.26,9.24,0.00,0.00,0.00,0.00
2026-06-26 18:16:40.953,994.11,994.09,-2.36,-2.04,0.00,1.33,0.26,9.24,0.00,0.00,0.00,0.00
2026-06-26 18:16:40.955,994.11,994.09,-2.36,-2.04,0.00,1.31,0.26,9.25,0.00,0.00,-0.00,0.00
2026-06-26 18:16:40.957,994.11,994.09,-2.36,-2.04,0.00,1.31,0.26,9.25,0.00,0.00,-0.00,0.00
2026-06-26 18:16:40.960,994.11,994.09,-2.36,-2.04,0.00,1.31,0.26,9.25,0.00,0.00,-0.00,0.00
2026-06-26 18:16:40.963,994.11,994.09,-2.36,-2.04,0.00,1.31,0.26,9.25,0.00,0.00,-0.00,0.00
2026-06-26 18:16:40.964,994.11,994.09,-2.36,-2.04,0.00,1.31,0.27,9.22,0.00,-0.00,-0.00,0.00
2026-06-26 18:16:40.965,994.11,994.09,-2.36,-2.04,0.00,1.31,0.27,9.22,0.00,-0.00,-0.00,0.00
2026-06-26 18:16:40.967,994.11,994.09,-2.36,-2.04,0.00,1.31,0.27,9.22,0.00,-0.00,-0.00,0.00
2026-06-26 18:16:40.968,994.11,994.09,-2.36,-2.04,0.00,1.31,0.27,9.22,0.00,-0.00,-0.00,0.00
2026-06-26 18:16:40.973,994.11,994.09,-2.36,-2.04,0.00,1.31,0.27,9.22,0.00,-0.00,-0.00,0.00
2026-06-26 18:16:40.974,994.11,994.09,-2.36,-2.04,0.00,1.32,0.25,9.22,0.00,-0.00,-0.00,0.00
2026-06-26 18:16:41.016,994.11,994.09,-1.77,-1.76,0.00,1.33,0.28,9.24,0.00,0.00,-0.00,0.00
2026-06-26 18:16:41.017,994.11,994.09,-1.77,-1.76,0.00,1.33,0.28,9.24,0.00,0.00,-0.00,0.00
2026-06-26 18:16:41.024,994.11,994.09,-1.77,-1.76,0.00,1.33,0.28,9.24,0.00,0.00,-0.00,0.00
2026-06-26 18:16:41.025,994.11,994.09,-1.77,-1.76,0.00,1.33,0.28,9.21,0.00,0.00,-0.00,0.00
2026-06-26 18:16:41.026,994.11,994.09,-1.77,-1.76,0.00,1.33,0.28,9.21,0.00,0.00,-0.00,0.00
2026-06-26 18:16:41.028,994.11,994.09,-1.77,-1.76,0.00,1.33,0.28,9.21,0.00,0.00,-0.00,0.00
2026-06-26 18:16:41.033,994.11,994.09,-1.77,-1.76,0.00,1.33,0.28,9.21,0.00,0.00,-0.00,0.00
2026-06-26 18:16:41.034,994.11,994.09,-1.77,-1.76,0.00,1.33,0.24,9.22,-0.00,0.00,-0.00,0.00
2026-06-26 18:16:41.035,994.11,994.09,-1.77,-1.76,0.00,1.33,0.24,9.22,-0.00,0.00,-0.00,0.00
2026-06-26 18:16:41.037,994.11,994.09,-1.77,-1.76,0.00,1.33,0.24,9.22,-0.00,0.00,-0.00,0.00
2026-06-26 18:16:41.038,994.11,994.09,-1.77,-1.76,0.00,1.33,0.24,9.22,-0.00,0.00,-0.00,0.00
2026-06-26 18:16:41.039,994.11,994.09,-1.77,-1.76,0.00,1.33,0.24,9.22,-0.00,0.00,-0.00,0.00
2026-06-26 18:16:41.043,994.11,994.09,-1.77,-1.76,0.00,1.33,0.24,9.22,0.00,-0.00,-0.00,0.00
2026-06-26 18:16:41.086,994.11,994.09,-1.56,-1.65,0.00,1.32,0.27,9.22,0.00,-0.00,-0.00,0.00
2026-06-26 18:16:41.087,994.11,994.09,-1.56,-1.65,0.00,1.32,0.27,9.22,0.00,-0.00,-0.00,0.00
2026-06-26 18:16:41.093,994.11,994.09,-1.56,-1.65,0.00,1.32,0.27,9.22,0.00,-0.00,-0.00,0.00
2026-06-26 18:16:41.094,994.11,994.09,-1.56,-1.65,0.00,1.31,0.27,9.23,0.00,0.00,-0.00,0.00
2026-06-26 18:16:41.096,994.11,994.09,-1.56,-1.65,0.00,1.31,0.27,9.23,0.00,0.00,-0.00,0.00
2026-06-26 18:16:41.097,994.11,994.09,-1.56,-1.65,0.00,1.31,0.27,9.23,0.00,0.00,-0.00,0.00
2026-06-26 18:16:41.098,994.11,994.09,-1.56,-1.65,0.00,1.31,0.27,9.23,0.00,0.00,-0.00,0.00
2026-06-26 18:16:41.104,994.11,994.09,-1.56,-1.65,0.00,1.31,0.27,9.23,0.00,0.00,-0.00,0.00
2026-06-26 18:16:41.105,994.11,994.09,-1.56,-1.65,0.00,1.30,0.26,9.24,0.00,0.00,-0.00,0.00
2026-06-26 18:16:41.106,994.11,994.09,-1.56,-1.65,0.00,1.30,0.26,9.24,0.00,0.00,-0.00,0.00
2026-06-26 18:16:41.108,994.11,994.09,-1.56,-1.65,0.00,1.30,0.26,9.24,0.00,0.00,-0.00,0.00
2026-06-26 18:16:41.109,994.11,994.09,-1.56,-1.65,0.00,1.30,0.26,9.24,0.00,0.00,-0.00,0.00
2026-06-26 18:16:41.110,994.11,994.09,-1.56,-1.65,0.00,1.30,0.26,9.24,0.00,0.00,-0.00,0.00
2026-06-26 18:16:41.111,994.11,994.09,-1.56,-1.65,0.00,1.30,0.26,9.24,0.00,0.00,-0.00,0.00
2026-06-26 18:16:41.114,994.11,994.09,-1.56,-1.65,0.00,1.30,0.26,9.24,0.00,0.00,-0.00,0.00
2026-06-26 18:16:41.115,994.11,994.09,-1.56,-1.65,0.00,1.33,0.25,9.25,0.00,0.00,-0.00,0.00
2026-06-26 18:16:41.155,994.11,994.09,-1.91,-1.83,0.00,1.34,0.26,9.22,-0.00,0.00,0.00,0.00
2026-06-26 18:16:41.156,994.11,994.09,-1.91,-1.83,0.00,1.34,0.26,9.22,-0.00,0.00,0.00,0.00
2026-06-26 18:16:41.157,994.11,994.09,-1.91,-1.83,0.00,1.34,0.26,9.22,-0.00,0.00,0.00,0.00
2026-06-26 18:16:41.159,994.11,994.09,-1.91,-1.83,0.00,1.34,0.26,9.22,-0.00,0.00,0.00,0.00
2026-06-26 18:16:41.160,994.11,994.09,-1.91,-1.83,0.00,1.34,0.26,9.22,-0.00,0.00,0.00,0.00
2026-06-26 18:16:41.161,994.11,994.09,-1.91,-1.83,0.00,1.34,0.26,9.22,-0.00,0.00,0.00,0.00
2026-06-26 18:16:41.163,994.11,994.09,-1.91,-1.83,0.00,1.34,0.26,9.22,0.00,0.00,0.00,0.00
2026-06-26 18:16:41.165,994.11,994.09,-1.91,-1.83,0.00,1.32,0.22,9.24,0.00,0.00,0.00,0.00
2026-06-26 18:16:41.166,994.11,994.09,-1.91,-1.83,0.00,1.32,0.22,9.24,0.00,0.00,0.00,0.00
2026-06-26 18:16:41.167,994.11,994.09,-1.91,-1.83,0.00,1.32,0.22,9.24,0.00,0.00,0.00,0.00
2026-06-26 18:16:41.168,994.11,994.09,-1.91,-1.83,0.00,1.32,0.22,9.24,0.00,0.00,0.00,0.00
2026-06-26 18:16:41.173,994.11,994.09,-1.91,-1.83,0.00,1.32,0.22,9.24,0.00,0.00,0.00,0.00
2026-06-26 18:16:41.175,994.11,994.09,-1.91,-1.83,0.00,1.33,0.25,9.23,0.00,0.00,0.00,0.00
2026-06-26 18:16:41.176,994.11,994.09,-1.91,-1.83,0.00,1.33,0.25,9.23,0.00,0.00,0.00,0.00
2026-06-26 18:16:41.177,994.11,994.09,-1.91,-1.83,0.00,1.33,0.25,9.23,0.00,0.00,0.00,0.00
2026-06-26 18:16:41.178,994.11,994.09,-1.91,-1.83,0.00,1.33,0.25,9.23,0.00,0.00,0.00,0.00
2026-06-26 18:16:41.183,994.11,994.09,-1.91,-1.83,0.00,1.33,0.25,9.23,0.00,0.00,0.00,0.00
2026-06-26 18:16:41.184,994.11,994.09,-1.91,-1.83,0.00,1.33,0.25,9.19,0.00,-0.00,-0.00,0.00
2026-06-26 18:16:41.226,994.11,994.09,-1.84,-1.80,0.00,1.32,0.28,9.22,0.00,-0.00,0.00,0.00
2026-06-26 18:16:41.227,994.11,994.09,-1.84,-1.80,0.00,1.32,0.28,9.22,0.00,-0.00,0.00,0.00
2026-06-26 18:16:41.231,994.11,994.09,-1.84,-1.80,0.00,1.32,0.28,9.22,0.00,-0.00,0.00,0.00
2026-06-26 18:16:41.234,994.11,994.09,-1.84,-1.80,0.00,1.32,0.28,9.22,0.00,-0.00,0.00,0.00
2026-06-26 18:16:41.235,994.11,994.09,-1.84,-1.80,0.00,1.35,0.26,9.22,0.00,-0.00,0.00,0.00
2026-06-26 18:16:41.237,994.11,994.09,-1.84,-1.80,0.00,1.35,0.26,9.22,0.00,-0.00,0.00,0.00
2026-06-26 18:16:41.238,994.11,994.09,-1.84,-1.80,0.00,1.35,0.26,9.22,0.00,-0.00,0.00,0.00
2026-06-26 18:16:41.239,994.11,994.09,-1.84,-1.80,0.00,1.35,0.26,9.22,0.00,-0.00,0.00,0.00
2026-06-26 18:16:41.243,994.11,994.09,-1.84,-1.80,0.00,1.35,0.26,9.22,0.00,-0.00,0.00,0.00
2026-06-26 18:16:41.245,994.11,994.09,-1.84,-1.80,0.00,1.33,0.24,9.23,0.00,0.00,0.00,0.00
2026-06-26 18:16:41.246,994.11,994.09,-1.84,-1.80,0.00,1.33,0.24,9.23,0.00,0.00,0.00,0.00
2026-06-26 18:16:41.247,994.11,994.09,-1.84,-1.80,0.00,1.33,0.24,9.23,0.00,0.00,0.00,0.00
2026-06-26 18:16:41.248,994.11,994.09,-1.84,-1.80,0.00,1.33,0.24,9.23,0.00,0.00,0.00,0.00
2026-06-26 18:16:41.254,994.11,994.09,-1.84,-1.80,0.00,1.33,0.24,9.23,0.00,0.00,0.00,0.00
2026-06-26 18:16:41.295,994.11,994.09,-2.19,-1.96,0.00,1.32,0.27,9.26,0.00,-0.00,0.00,0.00
2026-06-26 18:16:41.297,994.11,994.09,-2.19,-1.96,0.00,1.32,0.27,9.26,0.00,-0.00,0.00,0.00
2026-06-26 18:16:41.298,994.11,994.09,-2.19,-1.96,0.00,1.32,0.27,9.26,0.00,-0.00,0.00,0.00
2026-06-26 18:16:41.302,994.11,994.09,-2.19,-1.96,0.00,1.32,0.27,9.26,0.00,-0.00,0.00,0.00
2026-06-26 18:16:41.305,994.11,994.09,-2.19,-1.96,0.00,1.31,0.28,9.23,0.00,-0.00,-0.00,0.00
2026-06-26 18:16:41.306,994.11,994.09,-2.19,-1.96,0.00,1.31,0.28,9.23,0.00,-0.00,-0.00,0.00
2026-06-26 18:16:41.307,994.11,994.09,-2.19,-1.96,0.00,1.31,0.28,9.23,0.00,-0.00,-0.00,0.00
2026-06-26 18:16:41.308,994.11,994.09,-2.19,-1.96,0.00,1.31,0.28,9.23,0.00,-0.00,-0.00,0.00
2026-06-26 18:16:41.309,994.11,994.09,-2.19,-1.96,0.00,1.31,0.28,9.23,0.00,-0.00,-0.00,0.00
2026-06-26 18:16:41.311,994.11,994.09,-2.19,-1.96,0.00,1.31,0.28,9.23,0.00,-0.00,-0.00,0.00
2026-06-26 18:16:41.312,994.11,994.09,-2.19,-1.96,0.00,1.31,0.28,9.23,0.00,-0.00,-0.00,0.00
2026-06-26 18:16:41.314,994.11,994.09,-2.19,-1.96,0.00,1.31,0.28,9.23,0.00,0.00,0.00,0.00
2026-06-26 18:16:41.316,994.11,994.09,-2.19,-1.96,0.00,1.33,0.26,9.24,0.00,0.00,0.00,0.00
2026-06-26 18:16:41.317,994.11,994.09,-2.19,-1.96,0.00,1.33,0.26,9.24,0.00,0.00,0.00,0.00
2026-06-26 18:16:41.318,994.11,994.09,-2.19,-1.96,0.00,1.33,0.26,9.24,0.00,0.00,0.00,0.00
2026-06-26 18:16:41.321,994.11,994.09,-2.19,-1.96,0.00,1.33,0.26,9.24,0.00,0.00,0.00,0.00
2026-06-26 18:16:41.324,994.11,994.09,-2.19,-1.96,0.00,1.33,0.26,9.24,0.00,0.00,0.00,0.00
2026-06-26 18:16:41.325,994.11,994.09,-2.19,-1.96,0.00,1.31,0.26,9.24,0.00,0.00,0.00,0.00
2026-06-26 18:16:41.364,994.11,994.09,-2.22,-1.97,0.00,1.33,0.27,9.25,0.00,0.00,0.00,0.00
2026-06-26 18:16:41.366,994.11,994.09,-2.22,-1.97,0.00,1.33,0.25,9.24,0.00,0.00,0.00,0.00
2026-06-26 18:16:41.367,994.11,994.09,-2.22,-1.97,0.00,1.33,0.25,9.24,0.00,0.00,0.00,0.00
2026-06-26 18:16:41.368,994.11,994.09,-2.22,-1.97,0.00,1.33,0.25,9.24,0.00,0.00,0.00,0.00
2026-06-26 18:16:41.372,994.11,994.09,-2.22,-1.97,0.00,1.33,0.25,9.24,0.00,0.00,0.00,0.00
2026-06-26 18:16:41.374,994.11,994.09,-2.22,-1.97,0.00,1.30,0.26,9.23,0.00,0.00,-0.00,0.00
2026-06-26 18:16:41.376,994.11,994.09,-2.22,-1.97,0.00,1.30,0.26,9.23,0.00,0.00,-0.00,0.00
2026-06-26 18:16:41.377,994.11,994.09,-2.22,-1.97,0.00,1.30,0.26,9.23,0.00,0.00,-0.00,0.00
2026-06-26 18:16:41.378,994.11,994.09,-2.22,-1.97,0.00,1.30,0.26,9.23,0.00,0.00,-0.00,0.00
2026-06-26 18:16:41.382,994.11,994.09,-2.22,-1.97,0.00,1.30,0.26,9.23,0.00,0.00,-0.00,0.00
2026-06-26 18:16:41.385,994.11,994.09,-2.22,-1.97,0.00,1.30,0.26,9.23,0.00,0.00,0.00,0.00
2026-06-26 18:16:41.386,994.11,994.09,-2.22,-1.97,0.00,1.32,0.26,9.22,0.00,0.00,0.00,0.00
2026-06-26 18:16:41.387,994.11,994.09,-2.22,-1.97,0.00,1.32,0.26,9.22,0.00,0.00,0.00,0.00
2026-06-26 18:16:41.388,994.11,994.09,-2.22,-1.97,0.00,1.32,0.26,9.22,0.00,0.00,0.00,0.00
2026-06-26 18:16:41.394,994.11,994.09,-2.22,-1.97,0.00,1.32,0.26,9.22,0.00,0.00,0.00,0.00
2026-06-26 18:16:41.395,994.11,994.09,-2.22,-1.97,0.00,1.33,0.26,9.22,-0.00,0.00,0.00,0.00
2026-06-26 18:16:41.437,994.11,994.08,-2.39,-2.05,0.00,1.34,0.26,9.23,-0.00,-0.00,-0.00,0.00
2026-06-26 18:16:41.438,994.11,994.08,-2.39,-2.05,0.00,1.34,0.26,9.23,-0.00,-0.00,-0.00,0.00
2026-06-26 18:16:41.439,994.11,994.08,-2.39,-2.05,0.00,1.34,0.26,9.23,-0.00,-0.00,-0.00,0.00
2026-06-26 18:16:41.444,994.11,994.08,-2.39,-2.05,0.00,1.34,0.26,9.23,-0.00,-0.00,-0.00,0.00
2026-06-26 18:16:41.445,994.11,994.08,-2.39,-2.05,0.00,1.32,0.24,9.25,0.00,0.00,0.00,0.00
2026-06-26 18:16:41.446,994.11,994.08,-2.39,-2.05,0.00,1.32,0.24,9.25,0.00,0.00,0.00,0.00
2026-06-26 18:16:41.448,994.11,994.08,-2.39,-2.05,0.00,1.32,0.24,9.25,0.00,0.00,0.00,0.00
2026-06-26 18:16:41.451,994.11,994.08,-2.39,-2.05,0.00,1.32,0.24,9.25,0.00,0.00,0.00,0.00
2026-06-26 18:16:41.454,994.11,994.08,-2.39,-2.05,0.00,1.32,0.24,9.25,0.00,0.00,-0.00,0.00
2026-06-26 18:16:41.456,994.11,994.08,-2.39,-2.05,0.00,1.33,0.25,9.26,0.00,0.00,-0.00,0.00
2026-06-26 18:16:41.457,994.11,994.08,-2.39,-2.05,0.00,1.33,0.25,9.26,0.00,0.00,-0.00,0.00
2026-06-26 18:16:41.458,994.11,994.08,-2.39,-2.05,0.00,1.33,0.25,9.26,0.00,0.00,-0.00,0.00
2026-06-26 18:16:41.459,994.11,994.08,-2.39,-2.05,0.00,1.33,0.25,9.26,0.00,0.00,-0.00,0.00
2026-06-26 18:16:41.461,994.11,994.08,-2.39,-2.05,0.00,1.33,0.25,9.26,0.00,0.00,-0.00,0.00
2026-06-26 18:16:41.462,994.11,994.08,-2.39,-2.05,0.00,1.33,0.25,9.26,0.00,0.00,-0.00,0.00
2026-06-26 18:16:41.505,994.11,994.08,-2.56,-2.12,0.00,1.31,0.26,9.26,0.00,0.00,0.00,0.00
2026-06-26 18:16:41.506,994.11,994.08,-2.56,-2.12,0.00,1.31,0.26,9.26,0.00,0.00,0.00,0.00
2026-06-26 18:16:41.508,994.11,994.08,-2.56,-2.12,0.00,1.31,0.26,9.26,0.00,0.00,0.00,0.00
2026-06-26 18:16:41.509,994.11,994.08,-2.56,-2.12,0.00,1.31,0.26,9.26,0.00,0.00,0.00,0.00
2026-06-26 18:16:41.510,994.11,994.08,-2.56,-2.12,0.00,1.31,0.26,9.26,0.00,0.00,0.00,0.00
2026-06-26 18:16:41.511,994.11,994.08,-2.56,-2.12,0.00,1.31,0.26,9.26,0.00,0.00,0.00,0.00
2026-06-26 18:16:41.515,994.11,994.08,-2.56,-2.12,0.00,1.31,0.26,9.26,0.00,0.00,0.00,0.00
2026-06-26 18:16:41.517,994.11,994.08,-2.56,-2.12,0.00,1.32,0.27,9.22,0.00,0.00,0.00,0.00
2026-06-26 18:16:41.518,994.11,994.08,-2.56,-2.12,0.00,1.32,0.27,9.22,0.00,0.00,0.00,0.00
2026-06-26 18:16:41.522,994.11,994.08,-2.56,-2.12,0.00,1.32,0.27,9.22,0.00,0.00,0.00,0.00
2026-06-26 18:16:41.526,994.11,994.08,-2.56,-2.12,0.00,1.32,0.27,9.22,-0.00,0.00,0.00,0.00
2026-06-26 18:16:41.531,994.11,994.08,-2.56,-2.12,0.00,1.32,0.25,9.24,-0.00,0.00,0.00,0.00
2026-06-26 18:16:41.535,994.11,994.08,-2.56,-2.12,0.00,1.32,0.25,9.24,0.00,0.00,-0.00,0.00
2026-06-26 18:16:41.536,994.11,994.08,-2.56,-2.12,0.00,1.33,0.24,9.22,0.00,0.00,-0.00,0.00
2026-06-26 18:16:41.577,994.11,994.08,-2.80,-2.22,0.00,1.32,0.28,9.23,0.00,0.00,0.00,0.00
2026-06-26 18:16:41.579,994.11,994.08,-2.80,-2.22,0.00,1.32,0.28,9.23,0.00,0.00,0.00,0.00
2026-06-26 18:16:41.584,994.11,994.08,-2.80,-2.22,0.00,1.32,0.28,9.23,0.00,0.00,0.00,0.00
2026-06-26 18:16:41.585,994.11,994.08,-2.80,-2.22,0.00,1.34,0.24,9.21,0.00,0.00,0.00,0.00
2026-06-26 18:16:41.587,994.11,994.08,-2.80,-2.22,0.00,1.34,0.24,9.21,0.00,0.00,0.00,0.00
