timestamp,pressure_bag,pressure_bme,diff_pressure,v_wind_est,speed,accel_x,accel_y,accel_z,gyro_x,gyro_y,gyro_z,power
2026-06-27 11:02:08.426,994.68,994.66,-2.03,-1.88,0.00,-0.03,0.76,9.66,-0.00,0.00,-0.00,0.00
2026-06-27 11:02:08.429,994.68,994.66,-2.03,-1.88,0.00,-0.02,0.77,9.68,-0.00,0.00,-0.00,0.00
2026-06-27 11:02:08.436,994.68,994.66,-2.03,-1.88,0.00,-0.02,0.77,9.68,-0.00,0.00,-0.00,0.00
2026-06-27 11:02:08.437,994.68,994.66,-2.03,-1.88,0.00,-0.02,0.77,9.68,-0.00,-0.00,-0.00,0.00
2026-06-27 11:02:08.439,994.68,994.66,-2.03,-1.88,0.00,-0.02,0.77,9.68,-0.00,-0.00,-0.00,0.00
2026-06-27 11:02:08.442,994.68,994.66,-2.03,-1.88,0.00,-0.02,0.77,9.68,-0.00,-0.00,-0.00,0.00
2026-06-27 11:02:08.446,994.68,994.66,-2.03,-1.88,0.00,-0.02,0.77,9.68,-0.00,-0.00,-0.00,0.00
2026-06-27 11:02:08.447,994.68,994.66,-2.03,-1.88,0.00,-0.02,0.77,9.72,-0.00,-0.00,-0.00,0.00
2026-06-27 11:02:08.448,994.68,994.66,-2.03,-1.88,0.00,-0.02,0.77,9.72,-0.00,-0.00,-0.00,0.00
2026-06-27 11:02:08.450,994.68,994.66,-2.03,-1.88,0.00,-0.02,0.77,9.72,-0.00,-0.00,-0.00,0.00
2026-06-27 11:02:08.456,994.68,994.66,-2.03,-1.88,0.00,-0.02,0.77,9.72,-0.00,-0.00,-0.00,0.00
2026-06-27 11:02:08.457,994.68,994.66,-2.03,-1.88,0.00,-0.01,0.77,9.68,-0.00,0.00,0.00,0.00
2026-06-27 11:02:08.597,994.69,994.67,-1.79,-1.77,0.00,-0.01,0.77,9.70,-0.00,0.00,0.00,0.00
2026-06-27 11:02:08.598,994.69,994.67,-1.79,-1.77,0.00,-0.02,0.76,9.69,-0.00,0.00,0.00,0.00
2026-06-27 11:02:08.599,994.69,994.67,-1.79,-1.77,0.00,-0.02,0.76,9.69,-0.00,0.00,0.00,0.00
2026-06-27 11:02:08.606,994.69,994.67,-1.79,-1.77,0.00,-0.02,0.76,9.69,-0.00,0.00,0.00,0.00
2026-06-27 11:02:08.609,994.69,994.67,-1.79,-1.77,0.00,-0.01,0.76,9.70,-0.00,-0.00,0.00,0.00
2026-06-27 11:02:08.613,994.69,994.67,-1.79,-1.77,0.00,-0.01,0.76,9.70,-0.00,-0.00,0.00,0.00
2026-06-27 11:02:08.617,994.69,994.67,-1.79,-1.77,0.00,-0.01,0.76,9.70,-0.01,-0.00,0.00,0.00
2026-06-27 11:02:08.618,994.69,994.67,-1.79,-1.77,0.00,0.00,0.78,9.69,-0.01,-0.00,0.00,0.00
2026-06-27 11:02:08.622,994.69,994.67,-1.79,-1.77,0.00,0.00,0.78,9.69,-0.01,-0.00,0.00,0.00
2026-06-27 11:02:08.627,994.69,994.67,-1.79,-1.77,0.00,0.00,0.78,9.69,-0.00,0.00,-0.00,0.00
2026-06-27 11:02:08.628,994.69,994.67,-1.79,-1.77,0.00,-0.03,0.76,9.69,-0.00,0.00,-0.00,0.00
2026-06-27 11:02:08.631,994.69,994.67,-1.79,-1.77,0.00,-0.03,0.76,9.69,-0.00,0.00,-0.00,0.00
2026-06-27 11:02:08.636,994.69,994.67,-1.79,-1.77,0.00,-0.03,0.76,9.69,-0.00,0.00,0.00,0.00
2026-06-27 11:02:08.777,994.70,994.70,-0.16,-0.52,0.00,-0.02,0.76,9.68,-0.00,-0.00,0.00,0.00
2026-06-27 11:02:08.778,994.70,994.70,-0.16,-0.52,0.00,-0.02,0.76,9.68,-0.00,-0.00,0.00,0.00
2026-06-27 11:02:08.780,994.70,994.70,-0.16,-0.52,0.00,-0.02,0.76,9.68,-0.00,-0.00,0.00,0.00
2026-06-27 11:02:08.782,994.70,994.70,-0.16,-0.52,0.00,-0.02,0.76,9.68,-0.00,-0.00,0.00,0.00
2026-06-27 11:02:08.787,994.70,994.70,-0.16,-0.52,0.00,-0.02,0.76,9.68,-0.00,-0.00,-0.00,0.00
2026-06-27 11:02:08.788,994.70,994.70,-0.16,-0.52,0.00,-0.02,0.76,9.67,-0.00,-0.00,-0.00,0.00
2026-06-27 11:02:08.789,994.70,994.70,-0.16,-0.52,0.00,-0.02,0.76,9.67,-0.00,-0.00,-0.00,0.00
2026-06-27 11:02:08.790,994.70,994.70,-0.16,-0.52,0.00,-0.02,0.76,9.67,-0.00,-0.00,-0.00,0.00
2026-06-27 11:02:08.794,994.70,994.70,-0.16,-0.52,0.00,-0.02,0.76,9.67,-0.00,-0.00,-0.00,0.00
2026-06-27 11:02:08.797,994.70,994.70,-0.16,-0.52,0.00,-0.02,0.76,9.67,-0.00,0.00,0.00,0.00
2026-06-27 11:02:08.798,994.70,994.70,-0.16,-0.52,0.00,-0.01,0.75,9.69,-0.00,0.00,0.00,0.00
2026-06-27 11:02:08.799,994.70,994.70,-0.16,-0.52,0.00,-0.01,0.75,9.69,-0.00,0.00,0.00,0.00
2026-06-27 11:02:08.801,994.70,994.70,-0.16,-0.52,0.00,-0.01,0.75,9.69,-0.00,0.00,0.00,0.00
2026-06-27 11:02:08.804,994.70,994.70,-0.16,-0.52,0.00,-0.01,0.75,9.69,-0.00,0.00,0.00,0.00
2026-06-27 11:02:08.807,994.70,994.70,-0.16,-0.52,0.00,-0.01,0.75,9.69,-0.00,0.00,-0.00,0.00
2026-06-27 11:02:08.808,994.70,994.70,-0.16,-0.52,0.00,-0.02,0.76,9.71,-0.00,0.00,-0.00,0.00
2026-06-27 11:02:08.809,994.70,994.70,-0.16,-0.52,0.00,-0.02,0.76,9.71,-0.00,0.00,-0.00,0.00
2026-06-27 11:02:08.811,994.70,994.70,-0.16,-0.52,0.00,-0.02,0.76,9.71,-0.00,0.00,-0.00,0.00
2026-06-27 11:02:08.816,994.70,994.70,-0.16,-0.52,0.00,-0.02,0.76,9.71,-0.00,0.00,-0.00,0.00
2026-06-27 11:02:08.957,994.72,994.66,-5.70,-3.16,0.00,-0.01,0.77,9.70,-0.00,0.00,-0.00,0.00
2026-06-27 11:02:08.958,994.72,994.66,-5.70,-3.16,0.00,-0.02,0.77,9.70,-0.00,-0.00,0.00,0.00
2026-06-27 11:02:08.963,994.72,994.66,-5.70,-3.16,0.00,-0.02,0.77,9.70,-0.00,-0.00,0.00,0.00
2026-06-27 11:02:08.967,994.72,994.66,-5.70,-3.16,0.00,-0.02,0.77,9.70,-0.00,-0.00,0.00,0.00
2026-06-27 11:02:08.968,994.72,994.66,-5.70,-3.16,0.00,-0.02,0.77,9.66,-0.00,-0.00,0.00,0.00
2026-06-27 11:02:08.970,994.72,994.66,-5.70,-3.16,0.00,-0.02,0.77,9.66,-0.00,-0.00,0.00,0.00
2026-06-27 11:02:08.971,994.72,994.66,-5.70,-3.16,0.00,-0.02,0.77,9.66,-0.00,-0.00,0.00,0.00
2026-06-27 11:02:08.976,994.72,994.66,-5.70,-3.16,0.00,-0.02,0.77,9.66,-0.00,-0.00,0.00,0.00
2026-06-27 11:02:08.978,994.72,994.66,-5.70,-3.16,0.00,0.00,0.78,9.70,-0.00,-0.00,0.00,0.00
2026-06-27 11:02:08.979,994.72,994.66,-5.70,-3.16,0.00,0.00,0.78,9.70,-0.00,-0.00,0.00,0.00
2026-06-27 11:02:08.980,994.72,994.66,-5.70,-3.16,0.00,0.00,0.78,9.70,-0.00,-0.00,0.00,0.00
2026-06-27 11:02:08.981,994.72,994.66,-5.70,-3.16,0.00,0.00,0.78,9.70,-0.00,-0.00,0.00,0.00
2026-06-27 11:02:08.986,994.72,994.66,-5.70,-3.16,0.00,0.00,0.78,9.70,-0.00,-0.00,0.00,0.00
2026-06-27 11:02:08.988,994.72,994.66,-5.70,-3.16,0.00,-0.04,0.77,9.68,-0.00,-0.00,0.00,0.00
2026-06-27 11:02:08.989,994.72,994.66,-5.70,-3.16,0.00,-0.04,0.77,9.68,-0.00,-0.00,0.00,0.00
2026-06-27 11:02:08.990,994.72,994.66,-5.70,-3.16,0.00,-0.04,0.77,9.68,-0.00,-0.00,0.00,0.00
2026-06-27 11:02:09.128,994.71,994.69,-2.61,-2.14,0.00,-0.05,0.77,9.69,0.00,0.00,0.00,0.00
2026-06-27 11:02:09.130,994.71,994.69,-2.61,-2.14,0.00,-0.05,0.77,9.69,0.00,0.00,0.00,0.00
2026-06-27 11:02:09.131,994.71,994.69,-2.61,-2.14,0.00,-0.05,0.77,9.69,0.00,0.00,0.00,0.00
2026-06-27 11:02:09.132,994.71,994.69,-2.61,-2.14,0.00,-0.05,0.77,9.69,0.00,0.00,0.00,0.00
2026-06-27 11:02:09.137,994.71,994.69,-2.61,-2.14,0.00,-0.05,0.77,9.69,0.00,0.00,0.00,0.00
2026-06-27 11:02:09.138,994.71,994.69,-2.61,-2.14,0.00,0.00,0.76,9.70,0.00,0.00,-0.00,0.00
2026-06-27 11:02:09.140,994.71,994.69,-2.61,-2.14,0.00,0.00,0.76,9.70,0.00,0.00,-0.00,0.00
2026-06-27 11:02:09.141,994.71,994.69,-2.61,-2.14,0.00,0.00,0.76,9.70,0.00,0.00,-0.00,0.00
2026-06-27 11:02:09.142,994.71,994.69,-2.61,-2.14,0.00,0.00,0.76,9.70,0.00,0.00,-0.00,0.00
2026-06-27 11:02:09.148,994.71,994.69,-2.61,-2.14,0.00,0.00,0.76,9.70,0.00,0.00,-0.00,0.00
2026-06-27 11:02:09.150,994.71,994.69,-2.61,-2.14,0.00,0.00,0.75,9.67,0.00,0.00,0.00,0.00
2026-06-27 11:02:09.151,994.71,994.69,-2.61,-2.14,0.00,0.00,0.75,9.67,0.00,0.00,0.00,0.00
2026-06-27 11:02:09.157,994.71,994.69,-2.61,-2.14,0.00,0.00,0.75,9.67,0.00,0.00,0.00,0.00
2026-06-27 11:02:09.158,994.71,994.69,-2.61,-2.14,0.00,-0.01,0.77,9.68,0.00,0.00,-0.00,0.00
2026-06-27 11:02:09.160,994.71,994.69,-2.61,-2.14,0.00,-0.01,0.77,9.68,0.00,0.00,-0.00,0.00
2026-06-27 11:02:09.161,994.71,994.69,-2.61,-2.14,0.00,-0.01,0.77,9.68,0.00,0.00,-0.00,0.00
2026-06-27 11:02:09.163,994.71,994.69,-2.61,-2.14,0.00,-0.01,0.77,9.68,0.00,0.00,-0.00,0.00
2026-06-27 11:02:09.168,994.71,994.69,-2.61,-2.14,0.00,-0.01,0.77,9.68,0.00,0.00,-0.00,0.00
2026-06-27 11:02:09.308,994.72,994.69,-3.44,-2.46,0.00,-0.02,0.76,9.69,0.00,0.00,-0.00,0.00
2026-06-27 11:02:09.309,994.72,994.69,-3.44,-2.46,0.00,-0.02,0.76,9.70,0.00,0.00,-0.00,0.00
2026-06-27 11:02:09.311,994.72,994.69,-3.44,-2.46,0.00,-0.02,0.76,9.70,0.00,0.00,-0.00,0.00
2026-06-27 11:02:09.312,994.72,994.69,-3.44,-2.46,0.00,-0.02,0.76,9.70,0.00,0.00,-0.00,0.00
2026-06-27 11:02:09.316,994.72,994.69,-3.44,-2.46,0.00,-0.02,0.76,9.70,0.00,0.00,-0.00,0.00
2026-06-27 11:02:09.318,994.72,994.69,-3.44,-2.46,0.00,-0.02,0.76,9.70,-0.00,-0.00,0.00,0.00
2026-06-27 11:02:09.320,994.72,994.69,-3.44,-2.46,0.00,-0.03,0.77,9.71,-0.00,-0.00,0.00,0.00
2026-06-27 11:02:09.321,994.72,994.69,-3.44,-2.46,0.00,-0.03,0.77,9.71,-0.00,-0.00,0.00,0.00
2026-06-27 11:02:09.322,994.72,994.69,-3.44,-2.46,0.00,-0.03,0.77,9.71,-0.00,-0.00,0.00,0.00
2026-06-27 11:02:09.326,994.72,994.69,-3.44,-2.46,0.00,-0.03,0.77,9.71,-0.00,-0.00,0.00,0.00
2026-06-27 11:02:09.328,994.72,994.69,-3.44,-2.46,0.00,-0.02,0.77,9.69,0.00,0.00,-0.00,0.00
2026-06-27 11:02:09.330,994.72,994.69,-3.44,-2.46,0.00,-0.02,0.77,9.69,0.00,0.00,-0.00,0.00
2026-06-27 11:02:09.331,994.72,994.69,-3.44,-2.46,0.00,-0.02,0.77,9.69,0.00,0.00,-0.00,0.00
2026-06-27 11:02:09.332,994.72,994.69,-3.44,-2.46,0.00,-0.02,0.77,9.69,0.00,0.00,-0.00,0.00
2026-06-27 11:02:09.333,994.72,994.69,-3.44,-2.46,0.00,-0.02,0.77,9.69,0.00,0.00,-0.00,0.00
2026-06-27 11:02:09.338,994.72,994.69,-3.44,-2.46,0.00,-0.02,0.77,9.69,0.00,0.00,-0.00,0.00
2026-06-27 11:02:09.339,994.72,994.69,-3.44,-2.46,0.00,-0.02,0.77,9.68,-0.00,-0.00,0.00,0.00
2026-06-27 11:02:09.340,994.72,994.69,-3.44,-2.46,0.00,-0.02,0.77,9.68,-0.00,-0.00,0.00,0.00
2026-06-27 11:02:09.341,994.72,994.69,-3.44,-2.46,0.00,-0.02,0.77,9.68,-0.00,-0.00,0.00,0.00
2026-06-27 11:02:09.345,994.72,994.69,-3.44,-2.46,0.00,-0.02,0.77,9.68,-0.00,-0.00,0.00,0.00
2026-06-27 11:02:09.488,994.70,994.67,-2.81,-2.22,0.00,-0.03,0.77,9.71,0.00,0.00,-0.00,0.00
2026-06-27 11:02:09.489,994.70,994.67,-2.81,-2.22,0.00,-0.02,0.75,9.68,0.00,-0.00,0.00,0.00
2026-06-27 11:02:09.491,994.70,994.67,-2.81,-2.22,0.00,-0.02,0.75,9.68,0.00,-0.00,0.00,0.00
2026-06-27 11:02:09.492,994.70,994.67,-2.81,-2.22,0.00,-0.02,0.75,9.68,0.00,-0.00,0.00,0.00
2026-06-27 11:02:09.498,994.70,994.67,-2.81,-2.22,0.00,-0.02,0.75,9.68,0.00,-0.00,0.00,0.00
2026-06-27 11:02:09.500,994.70,994.67,-2.81,-2.22,0.00,-0.02,0.76,9.71,-0.00,0.00,0.00,0.00
2026-06-27 11:02:09.501,994.70,994.67,-2.81,-2.22,0.00,-0.02,0.76,9.71,-0.00,0.00,0.00,0.00
2026-06-27 11:02:09.503,994.70,994.67,-2.81,-2.22,0.00,-0.02,0.76,9.71,-0.00,0.00,0.00,0.00
2026-06-27 11:02:09.508,994.70,994.67,-2.81,-2.22,0.00,-0.02,0.76,9.71,-0.00,0.00,0.00,0.00
2026-06-27 11:02:09.509,994.70,994.67,-2.81,-2.22,0.00,-0.04,0.77,9.71,0.00,-0.00,-0.00,0.00
2026-06-27 11:02:09.511,994.70,994.67,-2.81,-2.22,0.00,-0.04,0.77,9.71,0.00,-0.00,-0.00,0.00
2026-06-27 11:02:09.512,994.70,994.67,-2.81,-2.22,0.00,-0.04,0.77,9.71,0.00,-0.00,-0.00,0.00
2026-06-27 11:02:09.518,994.70,994.67,-2.81,-2.22,0.00,-0.04,0.77,9.71,0.00,0.00,-0.00,0.00
2026-06-27 11:02:09.662,994.69,994.67,-1.83,-1.79,0.00,-0.02,0.75,9.71,0.00,-0.00,-0.00,0.00
2026-06-27 11:02:09.669,994.69,994.67,-1.83,-1.79,0.00,-0.02,0.75,9.71,0.00,-0.00,-0.00,0.00
2026-06-27 11:02:09.670,994.69,994.67,-1.83,-1.79,0.00,-0.01,0.76,9.69,0.00,-0.00,0.00,0.00
2026-06-27 11:02:09.673,994.69,994.67,-1.83,-1.79,0.00,-0.01,0.76,9.69,0.00,-0.00,0.00,0.00
2026-06-27 11:02:09.679,994.69,994.67,-1.83,-1.79,0.00,-0.01,0.76,9.69,0.00,-0.00,0.00,0.00
2026-06-27 11:02:09.680,994.69,994.67,-1.83,-1.79,0.00,-0.04,0.77,9.70,0.00,0.00,0.00,0.00
2026-06-27 11:02:09.682,994.69,994.67,-1.83,-1.79,0.00,-0.04,0.77,9.70,0.00,0.00,0.00,0.00
2026-06-27 11:02:09.689,994.69,994.67,-1.83,-1.79,0.00,-0.04,0.77,9.70,0.00,0.00,0.00,0.00
2026-06-27 11:02:09.690,994.69,994.67,-1.83,-1.79,0.00,-0.03,0.76,9.68,0.00,-0.00,-0.00,0.00
2026-06-27 11:02:09.692,994.69,994.67,-1.83,-1.79,0.00,-0.03,0.76,9.68,0.00,-0.00,-0.00,0.00
2026-06-27 11:02:09.700,994.69,994.67,-1.83,-1.79,0.00,-0.03,0.76,9.68,-0.00,0.00,0.00,0.00
2026-06-27 11:02:09.842,994.70,994.67,-2.84,-2.23,0.00,-0.02,0.77,9.70,-0.00,-0.00,-0.00,0.00
2026-06-27 11:02:09.848,994.70,994.67,-2.84,-2.23,0.00,-0.02,0.77,9.70,-0.00,-0.00,-0.00,0.00
2026-06-27 11:02:09.850,994.70,994.67,-2.84,-2.23,0.00,-0.01,0.77,9.68,0.00,0.00,0.00,0.00
2026-06-27 11:02:09.852,994.70,994.67,-2.84,-2.23,0.00,-0.01,0.77,9.68,0.00,0.00,0.00,0.00
2026-06-27 11:02:09.856,994.70,994.67,-2.84,-2.23,0.00,-0.01,0.77,9.68,0.00,0.00,0.00,0.00
2026-06-27 11:02:09.860,994.70,994.67,-2.84,-2.23,0.00,-0.01,0.77,9.68,0.00,-0.00,0.00,0.00
2026-06-27 11:02:09.861,994.70,994.67,-2.84,-2.23,0.00,0.00,0.74,9.69,0.00,-0.00,0.00,0.00
2026-06-27 11:02:09.863,994.70,994.67,-2.84,-2.23,0.00,0.00,0.74,9.69,0.00,-0.00,0.00,0.00
2026-06-27 11:02:09.869,994.70,994.67,-2.84,-2.23,0.00,0.00,0.74,9.69,0.00,-0.00,0.00,0.00
2026-06-27 11:02:09.872,994.70,994.67,-2.84,-2.23,0.00,-0.02,0.76,9.67,0.00,-0.00,0.00,0.00
2026-06-27 11:02:09.878,994.70,994.67,-2.84,-2.23,0.00,-0.02,0.76,9.67,0.00,-0.00,0.00,0.00
2026-06-27 11:02:10.019,994.70,994.66,-3.71,-2.55,0.00,0.25,0.87,9.66,0.00,0.00,-0.01,0.00
2026-06-27 11:02:10.021,994.70,994.66,-3.71,-2.55,0.00,0.36,0.74,9.70,0.00,0.02,-0.01,0.00
2026-06-27 11:02:10.025,994.70,994.66,-3.71,-2.55,0.00,0.36,0.74,9.70,0.00,0.02,-0.01,0.00
2026-06-27 11:02:10.030,994.70,994.66,-3.71,-2.55,0.00,0.36,0.74,9.70,0.00,0.02,-0.00,0.00
2026-06-27 11:02:10.031,994.70,994.66,-3.71,-2.55,0.00,0.46,0.66,9.61,0.00,0.02,-0.00,0.00
2026-06-27 11:02:10.033,994.70,994.66,-3.71,-2.55,0.00,0.46,0.66,9.61,0.00,0.02,-0.00,0.00
2026-06-27 11:02:10.037,994.70,994.66,-3.71,-2.55,0.00,0.46,0.66,9.61,0.00,0.02,-0.00,0.00
2026-06-27 11:02:10.040,994.70,994.66,-3.71,-2.55,0.00,0.46,0.66,9.61,0.00,0.04,0.01,0.00
2026-06-27 11:02:10.042,994.70,994.66,-3.71,-2.55,0.00,0.37,0.69,9.67,0.00,0.04,0.01,0.00
2026-06-27 11:02:10.043,994.70,994.66,-3.71,-2.55,0.00,0.37,0.69,9.67,0.00,0.04,0.01,0.00
2026-06-27 11:02:10.050,994.70,994.66,-3.71,-2.55,0.00,0.37,0.69,9.67,0.01,0.05,0.01,0.00
2026-06-27 11:02:10.051,994.70,994.66,-3.71,-2.55,0.00,0.49,0.60,9.70,0.01,0.05,0.01,0.00
2026-06-27 11:02:10.053,994.70,994.66,-3.71,-2.55,0.00,0.49,0.60,9.70,0.01,0.05,0.01,0.00
2026-06-27 11:02:10.059,994.70,994.66,-3.71,-2.55,0.00,0.49,0.60,9.70,0.01,0.05,0.01,0.00
2026-06-27 11:02:10.201,994.71,994.66,-4.85,-2.92,0.00,-0.16,0.97,9.76,0.02,0.17,-0.01,0.00
2026-06-27 11:02:10.203,994.71,994.66,-4.85,-2.92,0.00,-0.16,0.97,9.76,0.02,0.17,-0.01,0.00
2026-06-27 11:02:10.208,994.71,994.66,-4.85,-2.92,0.00,-0.16,0.97,9.76,0.02,0.17,-0.01,0.00
2026-06-27 11:02:10.211,994.71,994.66,-4.85,-2.92,0.00,-0.16,0.97,9.76,0.03,0.16,0.01,0.00
2026-06-27 11:02:10.213,994.71,994.66,-4.85,-2.92,0.00,-0.72,0.82,9.61,0.03,0.16,0.01,0.00
2026-06-27 11:02:10.217,994.71,994.66,-4.85,-2.92,0.00,-0.72,0.82,9.61,0.03,0.16,0.01,0.00
2026-06-27 11:02:10.220,994.71,994.66,-4.85,-2.92,0.00,-0.72,0.82,9.61,0.02,0.15,0.02,0.00
2026-06-27 11:02:10.222,994.71,994.66,-4.85,-2.92,0.00,-0.90,0.77,9.51,0.02,0.15,0.02,0.00
2026-06-27 11:02:10.226,994.71,994.66,-4.85,-2.92,0.00,-0.90,0.77,9.51,0.02,0.15,0.02,0.00
2026-06-27 11:02:10.230,994.71,994.66,-4.85,-2.92,0.00,-0.90,0.77,9.51,0.02,0.15,0.03,0.00
2026-06-27 11:02:10.232,994.71,994.66,-4.85,-2.92,0.00,-0.69,0.75,9.59,0.02,0.15,0.03,0.00
2026-06-27 11:02:10.234,994.71,994.66,-4.85,-2.92,0.00,-0.69,0.75,9.59,0.02,0.15,0.03,0.00
2026-06-27 11:02:10.237,994.71,994.66,-4.85,-2.92,0.00,-0.69,0.75,9.59,0.02,0.15,0.03,0.00
2026-06-27 11:02:10.381,994.71,994.68,-3.70,-2.55,0.00,-0.62,0.91,9.83,-0.01,-0.05,0.02,0.00
2026-06-27 11:02:10.384,994.71,994.68,-3.70,-2.55,0.00,-0.75,0.92,9.80,-0.01,-0.05,0.02,0.00
2026-06-27 11:02:10.388,994.71,994.68,-3.70,-2.55,0.00,-0.75,0.92,9.80,-0.01,-0.05,0.02,0.00
2026-06-27 11:02:10.391,994.71,994.68,-3.70,-2.55,0.00,-0.75,0.92,9.80,-0.01,-0.05,0.02,0.00
2026-06-27 11:02:10.393,994.71,994.68,-3.70,-2.55,0.00,-0.86,0.85,9.67,-0.01,-0.05,0.02,0.00
2026-06-27 11:02:10.399,994.71,994.68,-3.70,-2.55,0.00,-0.86,0.85,9.67,-0.01,-0.05,0.02,0.00
2026-06-27 11:02:10.402,994.71,994.68,-3.70,-2.55,0.00,-0.73,0.97,9.52,-0.01,-0.05,0.02,0.00
2026-06-27 11:02:10.405,994.71,994.68,-3.70,-2.55,0.00,-0.73,0.97,9.52,-0.01,-0.05,0.02,0.00
2026-06-27 11:02:10.410,994.71,994.68,-3.70,-2.55,0.00,-0.73,0.97,9.52,-0.01,-0.05,0.02,0.00
2026-06-27 11:02:10.412,994.71,994.68,-3.70,-2.55,0.00,-0.29,0.88,9.69,-0.01,-0.06,0.02,0.00
2026-06-27 11:02:10.414,994.71,994.68,-3.70,-2.55,0.00,-0.29,0.88,9.69,-0.01,-0.06,0.02,0.00
2026-06-27 11:02:10.561,994.70,994.65,-4.21,-2.71,0.00,-0.34,1.05,9.75,-0.02,-0.12,0.00,0.00
2026-06-27 11:02:10.564,994.70,994.65,-4.21,-2.71,0.00,-0.14,1.05,9.68,-0.01,-0.12,-0.00,0.00
2026-06-27 11:02:10.568,994.70,994.65,-4.21,-2.71,0.00,-0.14,1.05,9.68,-0.01,-0.12,-0.00,0.00
2026-06-27 11:02:10.571,994.70,994.65,-4.21,-2.71,0.00,-0.14,1.05,9.68,-0.02,-0.11,-0.00,0.00
2026-06-27 11:02:10.573,994.70,994.65,-4.21,-2.71,0.00,0.07,1.07,9.57,-0.02,-0.11,-0.00,0.00
2026-06-27 11:02:10.575,994.70,994.65,-4.21,-2.71,0.00,0.07,1.07,9.57,-0.02,-0.11,-0.00,0.00
2026-06-27 11:02:10.581,994.70,994.65,-4.21,-2.71,0.00,0.07,1.07,9.57,-0.02,-0.11,-0.00,0.00
2026-06-27 11:02:10.583,994.70,994.65,-4.21,-2.71,0.00,-0.03,1.14,9.57,-0.02,-0.12,0.00,0.00
2026-06-27 11:02:10.584,994.70,994.65,-4.21,-2.71,0.00,-0.03,1.14,9.57,-0.02,-0.12,0.00,0.00
2026-06-27 11:02:10.590,994.70,994.65,-4.21,-2.71,0.00,-0.03,1.14,9.57,-0.02,-0.12,0.00,0.00
2026-06-27 11:02:10.592,994.70,994.65,-4.21,-2.71,0.00,-0.07,1.16,9.61,-0.02,-0.12,0.01,0.00
2026-06-27 11:02:10.733,994.71,994.67,-3.69,-2.54,0.00,0.43,0.88,9.67,-0.00,-0.03,-0.01,0.00
2026-06-27 11:02:10.738,994.71,994.67,-3.69,-2.54,0.00,0.43,0.88,9.67,-0.00,-0.03,-0.01,0.00
2026-06-27 11:02:10.742,994.71,994.67,-3.69,-2.54,0.00,0.43,0.88,9.67,-0.00,-0.02,-0.02,0.00
2026-06-27 11:02:10.744,994.71,994.67,-3.69,-2.54,0.00,0.50,0.95,9.69,-0.00,-0.02,-0.02,0.00
2026-06-27 11:02:10.748,994.71,994.67,-3.69,-2.54,0.00,0.50,0.95,9.69,-0.00,-0.02,-0.02,0.00
2026-06-27 11:02:10.752,994.71,994.67,-3.69,-2.54,0.00,0.50,0.95,9.69,0.00,-0.00,-0.03,0.00
2026-06-27 11:02:10.754,994.71,994.67,-3.69,-2.54,0.00,0.70,0.92,9.65,0.00,-0.00,-0.03,0.00
2026-06-27 11:02:10.757,994.71,994.67,-3.69,-2.54,0.00,0.70,0.92,9.65,0.00,-0.00,-0.03,0.00
2026-06-27 11:02:10.762,994.71,994.67,-3.69,-2.54,0.00,0.70,0.92,9.65,0.00,0.01,-0.04,0.00
2026-06-27 11:02:10.763,994.71,994.67,-3.69,-2.54,0.00,0.63,0.99,9.63,0.00,0.01,-0.04,0.00
2026-06-27 11:02:10.767,994.71,994.67,-3.69,-2.54,0.00,0.63,0.99,9.63,0.00,0.01,-0.04,0.00
2026-06-27 11:02:10.772,994.71,994.67,-3.69,-2.54,0.00,0.63,0.99,9.63,0.01,0.02,-0.04,0.00
2026-06-27 11:02:10.908,994.71,994.66,-4.92,-2.94,0.00,-0.44,0.51,9.69,0.02,0.12,-0.03,0.00
2026-06-27 11:02:10.912,994.71,994.66,-4.92,-2.94,0.00,-0.44,0.51,9.69,0.02,0.11,-0.03,0.00
2026-06-27 11:02:10.914,994.71,994.66,-4.92,-2.94,0.00,-0.37,0.44,9.73,0.02,0.11,-0.03,0.00
2026-06-27 11:02:10.915,994.71,994.66,-4.92,-2.94,0.00,-0.37,0.44,9.73,0.02,0.11,-0.03,0.00
2026-06-27 11:02:10.921,994.71,994.66,-4.92,-2.94,0.00,-0.37,0.44,9.73,0.02,0.11,-0.03,0.00
2026-06-27 11:02:10.923,994.71,994.66,-4.92,-2.94,0.00,-0.50,0.52,9.77,0.02,0.10,-0.02,0.00
2026-06-27 11:02:10.925,994.71,994.66,-4.92,-2.94,0.00,-0.50,0.52,9.77,0.02,0.10,-0.02,0.00
2026-06-27 11:02:10.931,994.71,994.66,-4.92,-2.94,0.00,-0.50,0.52,9.77,0.02,0.10,-0.02,0.00
2026-06-27 11:02:10.933,994.71,994.66,-4.92,-2.94,0.00,-0.69,0.45,9.69,0.01,0.09,-0.02,0.00
2026-06-27 11:02:10.935,994.71,994.66,-4.92,-2.94,0.00,-0.69,0.45,9.69,0.01,0.09,-0.02,0.00
2026-06-27 11:02:10.939,994.71,994.66,-4.92,-2.94,0.00,-0.69,0.45,9.69,0.01,0.09,-0.02,0.00
2026-06-27 11:02:10.943,994.71,994.66,-4.92,-2.94,0.00,-0.69,0.45,9.69,0.01,0.08,-0.02,0.00
2026-06-27 11:02:10.944,994.71,994.66,-4.92,-2.94,0.00,-0.70,0.41,9.68,0.01,0.08,-0.02,0.00
2026-06-27 11:02:11.086,994.71,994.69,-1.67,-1.71,0.00,-0.43,0.83,9.70,-0.02,-0.12,0.01,0.00
2026-06-27 11:02:11.092,994.71,994.69,-1.67,-1.71,0.00,-0.43,0.83,9.70,-0.02,-0.12,0.01,0.00
2026-06-27 11:02:11.094,994.71,994.69,-1.67,-1.71,0.00,-0.35,0.75,9.70,-0.01,-0.13,0.00,0.00
2026-06-27 11:02:11.095,994.71,994.69,-1.67,-1.71,0.00,-0.35,0.75,9.70,-0.01,-0.13,0.00,0.00
2026-06-27 11:02:11.099,994.71,994.69,-1.67,-1.71,0.00,-0.35,0.75,9.70,-0.01,-0.13,0.00,0.00
2026-06-27 11:02:11.103,994.71,994.69,-1.67,-1.71,0.00,-0.35,0.75,9.70,-0.02,-0.14,0.01,0.00
2026-06-27 11:02:11.110,994.71,994.69,-1.67,-1.71,0.00,-0.31,0.80,9.68,-0.02,-0.14,0.01,0.00
2026-06-27 11:02:11.113,994.71,994.69,-1.67,-1.71,0.00,-0.31,0.80,9.68,-0.02,-0.15,0.01,0.00
2026-06-27 11:02:11.114,994.71,994.69,-1.67,-1.71,0.00,-0.31,0.81,9.65,-0.02,-0.15,0.01,0.00
2026-06-27 11:02:11.116,994.71,994.69,-1.67,-1.71,0.00,-0.31,0.81,9.65,-0.02,-0.15,0.01,0.00
2026-06-27 11:02:11.122,994.71,994.69,-1.67,-1.71,0.00,-0.31,0.81,9.65,-0.02,-0.15,0.01,0.00
2026-06-27 11:02:11.265,994.71,994.66,-4.31,-2.75,0.00,0.63,1.04,9.68,-0.02,-0.10,-0.00,0.00
2026-06-27 11:02:11.267,994.71,994.66,-4.31,-2.75,0.00,0.63,1.04,9.68,-0.02,-0.10,-0.00,0.00
2026-06-27 11:02:11.273,994.71,994.66,-4.31,-2.75,0.00,0.63,1.04,9.68,-0.01,-0.09,-0.01,0.00
2026-06-27 11:02:11.275,994.71,994.66,-4.31,-2.75,0.00,0.68,1.00,9.67,-0.01,-0.09,-0.01,0.00
2026-06-27 11:02:11.277,994.71,994.66,-4.31,-2.75,0.00,0.68,1.00,9.67,-0.01,-0.09,-0.01,0.00
2026-06-27 11:02:11.283,994.71,994.66,-4.31,-2.75,0.00,0.68,1.00,9.67,-0.01,-0.09,-0.01,0.00
2026-06-27 11:02:11.286,994.71,994.66,-4.31,-2.75,0.00,0.64,1.02,9.66,-0.01,-0.07,-0.02,0.00
2026-06-27 11:02:11.293,994.71,994.66,-4.31,-2.75,0.00,0.64,1.02,9.66,-0.01,-0.07,-0.02,0.00
2026-06-27 11:02:11.294,994.71,994.66,-4.31,-2.75,0.00,0.65,1.04,9.66,-0.01,-0.06,-0.02,0.00
2026-06-27 11:02:11.298,994.71,994.66,-4.31,-2.75,0.00,0.65,1.04,9.66,-0.01,-0.06,-0.02,0.00
2026-06-27 11:02:11.303,994.71,994.66,-4.31,-2.75,0.00,0.65,1.04,9.66,-0.00,-0.04,-0.03,0.00
2026-06-27 11:02:11.444,994.71,994.68,-3.02,-2.30,0.00,0.30,0.34,9.65,0.02,0.14,-0.03,0.00
2026-06-27 11:02:11.446,994.71,994.68,-3.02,-2.30,0.00,0.30,0.34,9.65,0.02,0.14,-0.03,0.00
2026-06-27 11:02:11.453,994.71,994.68,-3.02,-2.30,0.00,0.30,0.34,9.65,0.02,0.14,-0.03,0.00
2026-06-27 11:02:11.455,994.71,994.68,-3.02,-2.30,0.00,0.39,0.22,9.77,0.02,0.15,-0.03,0.00
2026-06-27 11:02:11.459,994.71,994.68,-3.02,-2.30,0.00,0.39,0.22,9.77,0.02,0.15,-0.03,0.00
2026-06-27 11:02:11.463,994.71,994.68,-3.02,-2.30,0.00,0.39,0.22,9.77,0.02,0.15,-0.02,0.00
2026-06-27 11:02:11.471,994.71,994.68,-3.02,-2.30,0.00,-0.39,-0.32,9.95,0.02,0.15,-0.02,0.00
2026-06-27 11:02:11.474,994.71,994.68,-3.02,-2.30,0.00,-0.39,-0.32,9.95,0.02,0.15,-0.00,0.00
2026-06-27 11:02:11.475,994.71,994.68,-3.02,-2.30,0.00,-0.35,-0.57,9.53,0.02,0.15,-0.00,0.00
2026-06-27 11:02:11.479,994.71,994.68,-3.02,-2.30,0.00,-0.35,-0.57,9.53,0.02,0.15,-0.00,0.00
2026-06-27 11:02:11.624,994.71,994.68,-3.20,-2.37,0.00,-0.60,0.46,9.67,0.01,0.07,0.04,0.00
2026-06-27 11:02:11.625,994.71,994.68,-3.20,-2.37,0.00,-1.10,0.38,9.79,0.01,0.07,0.04,0.00
2026-06-27 11:02:11.629,994.71,994.68,-3.20,-2.37,0.00,-1.10,0.38,9.79,0.01,0.07,0.04,0.00
2026-06-27 11:02:11.634,994.71,994.68,-3.20,-2.37,0.00,-1.10,0.38,9.79,0.01,0.06,0.03,0.00
2026-06-27 11:02:11.635,994.71,994.68,-3.20,-2.37,0.00,-1.50,0.56,9.94,0.01,0.06,0.03,0.00
2026-06-27 11:02:11.637,994.71,994.68,-3.20,-2.37,0.00,-1.50,0.56,9.94,0.01,0.06,0.03,0.00
2026-06-27 11:02:11.642,994.71,994.68,-3.20,-2.37,0.00,-1.50,0.56,9.94,0.01,0.06,0.03,0.00
2026-06-27 11:02:11.644,994.71,994.68,-3.20,-2.37,0.00,-0.58,0.53,9.71,0.01,0.06,0.02,0.00
2026-06-27 11:02:11.646,994.71,994.68,-3.20,-2.37,0.00,-0.58,0.53,9.71,0.01,0.06,0.02,0.00
2026-06-27 11:02:11.651,994.71,994.68,-3.20,-2.37,0.00,-0.58,0.53,9.71,0.01,0.06,0.02,0.00
2026-06-27 11:02:11.654,994.71,994.68,-3.20,-2.37,0.00,-0.58,0.53,9.71,0.01,0.03,0.02,0.00
2026-06-27 11:02:11.656,994.71,994.68,-3.20,-2.37,0.00,-0.63,0.49,9.38,0.01,0.03,0.02,0.00
2026-06-27 11:02:11.803,994.69,994.67,-1.65,-1.70,0.00,-0.39,1.09,9.68,-0.02,-0.13,0.03,0.00
2026-06-27 11:02:11.805,994.69,994.67,-1.65,-1.70,0.00,-0.37,1.10,9.62,-0.02,-0.13,0.03,0.00
2026-06-27 11:02:11.807,994.69,994.67,-1.65,-1.70,0.00,-0.37,1.10,9.62,-0.02,-0.13,0.03,0.00
2026-06-27 11:02:11.808,994.69,994.67,-1.65,-1.70,0.00,-0.37,1.10,9.62,-0.02,-0.13,0.03,0.00
2026-06-27 11:02:11.814,994.69,994.67,-1.65,-1.70,0.00,-0.37,1.10,9.62,-0.02,-0.13,0.03,0.00
2026-06-27 11:02:11.815,994.69,994.67,-1.65,-1.70,0.00,0.16,1.03,9.65,-0.02,-0.12,0.03,0.00
2026-06-27 11:02:11.817,994.69,994.67,-1.65,-1.70,0.00,0.16,1.03,9.65,-0.02,-0.12,0.03,0.00
2026-06-27 11:02:11.819,994.69,994.67,-1.65,-1.70,0.00,0.16,1.03,9.65,-0.02,-0.12,0.03,0.00
2026-06-27 11:02:11.824,994.69,994.67,-1.65,-1.70,0.00,0.16,1.03,9.65,-0.02,-0.12,0.03,0.00
2026-06-27 11:02:11.826,994.69,994.67,-1.65,-1.70,0.00,0.19,1.01,9.69,-0.02,-0.13,0.04,0.00
2026-06-27 11:02:11.827,994.69,994.67,-1.65,-1.70,0.00,0.19,1.01,9.69,-0.02,-0.13,0.04,0.00
2026-06-27 11:02:11.834,994.69,994.67,-1.65,-1.70,0.00,0.19,1.01,9.69,-0.02,-0.13,0.04,0.00
2026-06-27 11:02:11.975,994.69,994.65,-3.78,-2.57,0.00,0.37,0.90,9.69,-0.00,-0.02,-0.00,0.00
2026-06-27 11:02:11.977,994.69,994.65,-3.78,-2.57,0.00,0.37,0.90,9.69,-0.00,-0.02,-0.00,0.00
2026-06-27 11:02:11.981,994.69,994.65,-3.78,-2.57,0.00,0.37,0.90,9.69,-0.00,-0.02,-0.00,0.00
2026-06-27 11:02:11.985,994.69,994.65,-3.78,-2.57,0.00,0.37,0.90,9.69,-0.00,-0.01,-0.01,0.00
2026-06-27 11:02:11.987,994.69,994.65,-3.78,-2.57,0.00,0.44,0.96,9.67,-0.00,-0.01,-0.01,0.00
2026-06-27 11:02:11.988,994.69,994.65,-3.78,-2.57,0.00,0.44,0.96,9.67,-0.00,-0.01,-0.01,0.00
2026-06-27 11:02:11.994,994.69,994.65,-3.78,-2.57,0.00,0.44,0.96,9.67,-0.00,-0.01,-0.01,0.00
2026-06-27 11:02:11.996,994.69,994.65,-3.78,-2.57,0.00,0.69,0.95,9.60,0.00,0.01,-0.01,0.00
2026-06-27 11:02:11.998,994.69,994.65,-3.78,-2.57,0.00,0.69,0.95,9.60,0.00,0.01,-0.01,0.00
2026-06-27 11:02:11.002,994.69,994.65,-3.78,-2.57,0.00,0.69,0.95,9.60,0.00,0.01,-0.01,0.00
2026-06-27 11:02:12.005,994.69,994.65,-3.78,-2.57,0.00,0.69,0.95,9.60,0.00,0.02,-0.01,0.00
2026-06-27 11:02:12.013,994.69,994.65,-3.78,-2.57,0.00,0.57,1.00,9.63,0.00,0.02,-0.01,0.00
2026-06-27 11:02:12.156,994.69,994.65,-4.31,-2.75,0.00,-0.10,0.71,9.71,0.02,0.15,-0.03,0.00
2026-06-27 11:02:12.158,994.69,994.65,-4.31,-2.75,0.00,-0.10,0.71,9.71,0.02,0.15,-0.03,0.00
2026-06-27 11:02:12.163,994.69,994.65,-4.31,-2.75,0.00,-0.10,0.71,9.71,0.02,0.15,-0.03,0.00
2026-06-27 11:02:12.165,994.69,994.65,-4.31,-2.75,0.00,-0.16,0.71,9.69,0.02,0.14,-0.03,0.00
2026-06-27 11:02:12.167,994.69,994.65,-4.31,-2.75,0.00,-0.16,0.71,9.69,0.02,0.14,-0.03,0.00
2026-06-27 11:02:12.169,994.69,994.65,-4.31,-2.75,0.00,-0.16,0.71,9.69,0.02,0.14,-0.03,0.00
2026-06-27 11:02:12.174,994.69,994.65,-4.31,-2.75,0.00,-0.16,0.71,9.69,0.02,0.14,-0.03,0.00
2026-06-27 11:02:12.176,994.69,994.65,-4.31,-2.75,0.00,-0.27,0.69,9.70,0.02,0.14,-0.03,0.00
2026-06-27 11:02:12.177,994.69,994.65,-4.31,-2.75,0.00,-0.27,0.69,9.70,0.02,0.14,-0.03,0.00
2026-06-27 11:02:12.179,994.69,994.65,-4.31,-2.75,0.00,-0.27,0.69,9.70,0.02,0.14,-0.03,0.00
2026-06-27 11:02:12.185,994.69,994.65,-4.31,-2.75,0.00,-0.27,0.69,9.70,0.02,0.14,-0.03,0.00
2026-06-27 11:02:12.186,994.69,994.65,-4.31,-2.75,0.00,-0.45,0.70,9.68,0.02,0.13,-0.03,0.00
2026-06-27 11:02:12.188,994.69,994.65,-4.31,-2.75,0.00,-0.45,0.70,9.68,0.02,0.13,-0.03,0.00
2026-06-27 11:02:12.194,994.69,994.65,-4.31,-2.75,0.00,-0.45,0.70,9.68,0.02,0.13,-0.03,0.00
2026-06-27 11:02:12.336,994.70,994.68,-2.22,-1.97,0.00,-0.59,0.59,9.70,-0.01,-0.06,0.01,0.00
2026-06-27 11:02:12.338,994.70,994.68,-2.22,-1.97,0.00,-0.59,0.59,9.70,-0.01,-0.06,0.01,0.00
2026-06-27 11:02:12.340,994.70,994.68,-2.22,-1.97,0.00,-0.59,0.59,9.70,-0.01,-0.06,0.01,0.00
2026-06-27 11:02:12.345,994.70,994.68,-2.22,-1.97,0.00,-0.59,0.59,9.70,-0.01,-0.06,0.01,0.00
2026-06-27 11:02:12.347,994.70,994.68,-2.22,-1.97,0.00,-0.64,0.60,9.75,-0.01,-0.08,0.01,0.00
2026-06-27 11:02:12.349,994.70,994.68,-2.22,-1.97,0.00,-0.64,0.60,9.75,-0.01,-0.08,0.01,0.00
2026-06-27 11:02:12.355,994.70,994.68,-2.22,-1.97,0.00,-0.64,0.60,9.75,-0.01,-0.08,0.01,0.00
2026-06-27 11:02:12.358,994.70,994.68,-2.22,-1.97,0.00,-0.57,0.63,9.75,-0.01,-0.09,0.01,0.00
2026-06-27 11:02:12.360,994.70,994.68,-2.22,-1.97,0.00,-0.57,0.63,9.75,-0.01,-0.09,0.01,0.00
2026-06-27 11:02:12.367,994.70,994.68,-2.22,-1.97,0.00,-0.57,0.63,9.75,-0.01,-0.10,0.01,0.00
2026-06-27 11:02:12.370,994.70,994.68,-2.22,-1.97,0.00,-0.48,0.61,9.69,-0.01,-0.10,0.01,0.00
2026-06-27 11:02:12.514,994.71,994.66,-4.71,-2.87,0.00,0.50,0.97,9.64,-0.02,-0.11,-0.00,0.00
2026-06-27 11:02:12.517,994.71,994.66,-4.71,-2.87,0.00,0.54,0.99,9.64,-0.01,-0.10,-0.00,0.00
2026-06-27 11:02:12.518,994.71,994.66,-4.71,-2.87,0.00,0.54,0.99,9.64,-0.01,-0.10,-0.00,0.00
2026-06-27 11:02:12.522,994.71,994.66,-4.71,-2.87,0.00,0.54,0.99,9.64,-0.01,-0.10,-0.00,0.00
2026-06-27 11:02:12.526,994.71,994.66,-4.71,-2.87,0.00,0.54,0.99,9.64,-0.01,-0.09,-0.00,0.00
2026-06-27 11:02:12.528,994.71,994.66,-4.71,-2.87,0.00,0.58,1.02,9.66,-0.01,-0.09,-0.00,0.00
2026-06-27 11:02:12.529,994.71,994.66,-4.71,-2.87,0.00,0.58,1.02,9.66,-0.01,-0.09,-0.00,0.00
2026-06-27 11:02:12.535,994.71,994.66,-4.71,-2.87,0.00,0.58,1.02,9.66,-0.01,-0.09,-0.00,0.00
2026-06-27 11:02:12.537,994.71,994.66,-4.71,-2.87,0.00,0.63,1.02,9.63,-0.01,-0.07,-0.00,0.00
2026-06-27 11:02:12.538,994.71,994.66,-4.71,-2.87,0.00,0.63,1.02,9.63,-0.01,-0.07,-0.00,0.00
2026-06-27 11:02:12.542,994.71,994.66,-4.71,-2.87,0.00,0.63,1.02,9.63,-0.01,-0.07,-0.00,0.00
2026-06-27 11:02:12.546,994.71,994.66,-4.71,-2.87,0.00,0.63,1.02,9.63,-0.01,-0.05,-0.00,0.00
2026-06-27 11:02:12.687,994.69,994.69,0.10,0.43,0.00,0.29,0.84,9.70,0.02,0.12,-0.03,0.00
2026-06-27 11:02:12.689,994.69,994.69,0.10,0.43,0.00,0.29,0.84,9.70,0.02,0.12,-0.03,0.00
2026-06-27 11:02:12.691,994.69,994.69,0.10,0.43,0.00,0.29,0.84,9.70,0.02,0.12,-0.03,0.00
2026-06-27 11:02:12.696,994.69,994.69,0.10,0.43,0.00,0.29,0.84,9.70,0.02,0.12,-0.03,0.00
2026-06-27 11:02:12.698,994.69,994.69,0.10,0.43,0.00,0.27,0.83,9.66,0.02,0.13,-0.03,0.00
2026-06-27 11:02:12.699,994.69,994.69,0.10,0.43,0.00,0.27,0.83,9.66,0.02,0.13,-0.03,0.00
2026-06-27 11:02:12.702,994.69,994.69,0.10,0.43,0.00,0.27,0.83,9.66,0.02,0.13,-0.03,0.00
2026-06-27 11:02:12.706,994.69,994.69,0.10,0.43,0.00,0.27,0.83,9.66,0.02,0.14,-0.03,0.00
2026-06-27 11:02:12.708,994.69,994.69,0.10,0.43,0.00,0.25,0.80,9.65,0.02,0.14,-0.03,0.00
2026-06-27 11:02:12.710,994.69,994.69,0.10,0.43,0.00,0.25,0.80,9.65,0.02,0.14,-0.03,0.00
2026-06-27 11:02:12.713,994.69,994.69,0.10,0.43,0.00,0.25,0.80,9.65,0.02,0.14,-0.03,0.00
2026-06-27 11:02:12.717,994.69,994.69,0.10,0.43,0.00,0.25,0.80,9.65,0.02,0.15,-0.03,0.00
2026-06-27 11:02:12.718,994.69,994.69,0.10,0.43,0.00,0.23,0.80,9.69,0.02,0.15,-0.03,0.00
2026-06-27 11:02:12.720,994.69,994.69,0.10,0.43,0.00,0.23,0.80,9.69,0.02,0.15,-0.03,0.00
2026-06-27 11:02:12.726,994.69,994.69,0.10,0.43,0.00,0.23,0.80,9.69,0.02,0.15,-0.03,0.00
2026-06-27 11:02:12.867,994.70,994.68,-2.16,-1.95,0.00,-0.48,0.17,9.76,0.00,0.05,0.03,0.00
2026-06-27 11:02:12.869,994.70,994.68,-2.16,-1.95,0.00,-0.48,0.17,9.76,0.00,0.05,0.03,0.00
2026-06-27 11:02:12.876,994.70,994.68,-2.16,-1.95,0.00,-0.48,0.17,9.76,0.00,0.05,0.03,0.00
2026-06-27 11:02:12.884,994.70,994.68,-2.16,-1.95,0.00,-0.69,0.20,9.84,0.00,0.02,0.03,0.00
2026-06-27 11:02:12.887,994.70,994.68,-2.16,-1.95,0.00,-0.69,0.20,9.84,0.00,0.01,0.02,0.00
2026-06-27 11:02:12.889,994.70,994.68,-2.16,-1.95,0.00,-1.13,0.52,9.77,0.00,0.01,0.02,0.00
2026-06-27 11:02:12.895,994.70,994.68,-2.16,-1.95,0.00,-1.13,0.52,9.77,0.00,0.01,0.02,0.00
2026-06-27 11:02:12.898,994.70,994.68,-2.16,-1.95,0.00,-0.81,0.76,9.95,-0.00,0.00,0.00,0.00
2026-06-27 11:02:12.899,994.70,994.68,-2.16,-1.95,0.00,-0.81,0.76,9.95,-0.00,0.00,0.00,0.00
2026-06-27 11:02:12.906,994.70,994.68,-2.16,-1.95,0.00,-0.81,0.76,9.95,-0.00,0.00,0.00,0.00
2026-06-27 11:02:13.049,994.70,994.67,-2.95,-2.27,0.00,-0.13,0.75,9.70,-0.02,-0.16,0.02,0.00
2026-06-27 11:02:13.053,994.70,994.67,-2.95,-2.27,0.00,-0.13,0.75,9.70,-0.02,-0.16,0.02,0.00
2026-06-27 11:02:13.076,994.70,994.67,-2.95,-2.27,0.00,-0.13,0.75,9.70,-0.02,-0.16,0.02,0.00
2026-06-27 11:02:13.078,994.70,994.67,-2.95,-2.27,0.00,0.03,0.86,9.68,-0.02,-0.16,0.01,0.00
2026-06-27 11:02:13.082,994.70,994.67,-2.95,-2.27,0.00,0.03,0.86,9.68,-0.02,-0.16,0.01,0.00
2026-06-27 11:02:13.227,994.69,994.67,-1.30,-1.51,0.00,0.48,0.88,9.68,-0.01,-0.06,-0.00,0.00
2026-06-27 11:02:13.229,994.69,994.67,-1.30,-1.51,0.00,0.52,0.86,9.67,-0.01,-0.04,-0.00,0.00
2026-06-27 11:02:13.239,994.69,994.67,-1.30,-1.51,0.00,0.52,0.86,9.67,-0.01,-0.03,-0.01,0.00
2026-06-27 11:02:13.241,994.69,994.67,-1.30,-1.51,0.00,0.50,0.88,9.67,-0.01,-0.03,-0.01,0.00
2026-06-27 11:02:13.246,994.69,994.67,-1.30,-1.51,0.00,0.50,0.88,9.67,-0.01,-0.03,-0.01,0.00
2026-06-27 11:02:13.248,994.69,994.67,-1.30,-1.51,0.00,0.74,0.84,9.67,-0.00,-0.01,-0.01,0.00
2026-06-27 11:02:13.250,994.69,994.67,-1.30,-1.51,0.00,0.74,0.84,9.67,-0.00,-0.01,-0.01,0.00
2026-06-27 11:02:13.253,994.69,994.67,-1.30,-1.51,0.00,0.74,0.84,9.67,-0.00,-0.01,-0.01,0.00
2026-06-27 11:02:13.258,994.69,994.67,-1.30,-1.51,0.00,0.74,0.84,9.67,0.00,0.00,-0.01,0.00
2026-06-27 11:02:13.400,994.70,994.66,-3.09,-2.33,0.00,-0.25,0.67,9.75,0.03,0.17,-0.01,0.00
2026-06-27 11:02:13.407,994.70,994.66,-3.09,-2.33,0.00,-0.25,0.67,9.75,0.03,0.17,-0.01,0.00
2026-06-27 11:02:13.409,994.70,994.66,-3.09,-2.33,0.00,-0.27,0.58,9.72,0.03,0.17,-0.01,0.00
2026-06-27 11:02:13.411,994.70,994.66,-3.09,-2.33,0.00,-0.27,0.58,9.72,0.03,0.17,-0.01,0.00
2026-06-27 11:02:13.416,994.70,994.66,-3.09,-2.33,0.00,-0.27,0.58,9.72,0.03,0.17,-0.01,0.00
2026-06-27 11:02:13.419,994.70,994.66,-3.09,-2.33,0.00,-0.27,0.58,9.72,0.03,0.17,-0.01,0.00
2026-06-27 11:02:13.420,994.70,994.66,-3.09,-2.33,0.00,-0.26,0.51,9.70,0.03,0.17,-0.01,0.00
2026-06-27 11:02:13.423,994.70,994.66,-3.09,-2.33,0.00,-0.26,0.51,9.70,0.03,0.17,-0.01,0.00
2026-06-27 11:02:13.428,994.70,994.66,-3.09,-2.33,0.00,-0.26,0.51,9.70,0.03,0.17,-0.01,0.00
2026-06-27 11:02:13.430,994.70,994.66,-3.09,-2.33,0.00,-0.29,0.44,9.73,0.03,0.17,-0.01,0.00
2026-06-27 11:02:13.431,994.70,994.66,-3.09,-2.33,0.00,-0.29,0.44,9.73,0.03,0.17,-0.01,0.00
2026-06-27 11:02:13.438,994.70,994.66,-3.09,-2.33,0.00,-0.29,0.44,9.73,0.03,0.17,-0.01,0.00
2026-06-27 11:02:13.580,994.67,994.67,-0.32,-0.75,0.00,-0.62,0.66,9.69,-0.01,-0.09,0.03,0.00
2026-06-27 11:02:13.584,994.67,994.67,-0.32,-0.75,0.00,-0.62,0.66,9.69,-0.01,-0.09,0.03,0.00
2026-06-27 11:02:13.588,994.67,994.67,-0.32,-0.75,0.00,-0.62,0.66,9.69,-0.01,-0.11,0.04,0.00
2026-06-27 11:02:13.590,994.67,994.67,-0.32,-0.75,0.00,-0.45,0.58,9.68,-0.01,-0.11,0.04,0.00
2026-06-27 11:02:13.594,994.67,994.67,-0.32,-0.75,0.00,-0.45,0.58,9.68,-0.01,-0.11,0.04,0.00
2026-06-27 11:02:13.599,994.67,994.67,-0.32,-0.75,0.00,-0.45,0.58,9.68,-0.02,-0.13,0.04,0.00
2026-06-27 11:02:13.601,994.67,994.67,-0.32,-0.75,0.00,-0.44,0.61,9.69,-0.02,-0.13,0.04,0.00
2026-06-27 11:02:13.607,994.67,994.67,-0.32,-0.75,0.00,-0.44,0.61,9.69,-0.02,-0.13,0.04,0.00
2026-06-27 11:02:13.609,994.67,994.67,-0.32,-0.75,0.00,-0.47,0.63,9.75,-0.02,-0.14,0.03,0.00
2026-06-27 11:02:13.612,994.67,994.67,-0.32,-0.75,0.00,-0.47,0.63,9.75,-0.02,-0.14,0.03,0.00
2026-06-27 11:02:13.618,994.67,994.67,-0.32,-0.75,0.00,-0.47,0.63,9.75,-0.02,-0.14,0.03,0.00
2026-06-27 11:02:13.760,994.70,994.66,-4.07,-2.67,0.00,1.62,0.91,9.81,-0.02,-0.15,-0.00,0.00
2026-06-27 11:02:13.762,994.70,994.66,-4.07,-2.67,0.00,1.62,0.91,9.81,-0.02,-0.15,-0.00,0.00
2026-06-27 11:02:13.767,994.70,994.66,-4.07,-2.67,0.00,1.62,0.91,9.81,-0.02,-0.15,-0.00,0.00
2026-06-27 11:02:13.770,994.70,994.66,-4.07,-2.67,0.00,0.84,1.07,9.67,-0.02,-0.13,-0.02,0.00
2026-06-27 11:02:13.771,994.70,994.66,-4.07,-2.67,0.00,0.84,1.07,9.67,-0.02,-0.13,-0.02,0.00
2026-06-27 11:02:13.777,994.70,994.66,-4.07,-2.67,0.00,0.84,1.07,9.67,-0.02,-0.13,-0.02,0.00
2026-06-27 11:02:13.780,994.70,994.66,-4.07,-2.67,0.00,0.84,1.07,9.67,-0.02,-0.12,-0.00,0.00
2026-06-27 11:02:13.781,994.70,994.66,-4.07,-2.67,0.00,0.09,1.23,9.36,-0.02,-0.12,-0.00,0.00
2026-06-27 11:02:13.785,994.70,994.66,-4.07,-2.67,0.00,0.09,1.23,9.36,-0.02,-0.12,-0.00,0.00
2026-06-27 11:02:13.789,994.70,994.66,-4.07,-2.67,0.00,0.09,1.23,9.36,-0.01,-0.09,0.01,0.00
2026-06-27 11:02:13.791,994.70,994.66,-4.07,-2.67,0.00,1.28,0.75,9.46,-0.01,-0.09,0.01,0.00
2026-06-27 11:02:13.794,994.70,994.66,-4.07,-2.67,0.00,1.28,0.75,9.46,-0.01,-0.09,0.01,0.00
2026-06-27 11:02:13.939,994.71,994.67,-4.02,-2.65,0.00,0.51,0.87,9.68,0.02,0.11,-0.02,0.00
2026-06-27 11:02:13.941,994.71,994.67,-4.02,-2.65,0.00,0.61,0.76,9.66,0.02,0.11,-0.02,0.00
2026-06-27 11:02:13.943,994.71,994.67,-4.02,-2.65,0.00,0.61,0.76,9.66,0.02,0.11,-0.02,0.00
2026-06-27 11:02:13.947,994.71,994.67,-4.02,-2.65,0.00,0.61,0.76,9.66,0.02,0.11,-0.02,0.00
2026-06-27 11:02:13.950,994.71,994.67,-4.02,-2.65,0.00,0.61,0.76,9.66,0.02,0.13,-0.02,0.00
2026-06-27 11:02:13.952,994.71,994.67,-4.02,-2.65,0.00,0.60,0.65,9.69,0.02,0.13,-0.02,0.00
2026-06-27 11:02:13.956,994.71,994.67,-4.02,-2.65,0.00,0.60,0.65,9.69,0.02,0.13,-0.02,0.00
2026-06-27 11:02:13.960,994.71,994.67,-4.02,-2.65,0.00,0.60,0.65,9.69,0.02,0.14,-0.02,0.00
2026-06-27 11:02:13.961,994.71,994.67,-4.02,-2.65,0.00,0.21,0.84,9.67,0.02,0.14,-0.02,0.00
2026-06-27 11:02:13.965,994.71,994.67,-4.02,-2.65,0.00,0.21,0.84,9.67,0.02,0.14,-0.02,0.00
2026-06-27 11:02:13.969,994.71,994.67,-4.02,-2.65,0.00,0.21,0.84,9.67,0.02,0.15,-0.01,0.00
2026-06-27 11:02:13.971,994.71,994.67,-4.02,-2.65,0.00,0.39,0.71,9.61,0.02,0.15,-0.01,0.00
2026-06-27 11:02:14.112,994.70,994.67,-2.97,-2.28,0.00,-0.47,0.63,9.68,0.02,0.14,-0.00,0.00
2026-06-27 11:02:14.119,994.70,994.67,-2.97,-2.28,0.00,-0.47,0.63,9.68,0.02,0.14,-0.00,0.00
2026-06-27 11:02:14.121,994.70,994.67,-2.97,-2.28,0.00,-0.64,0.56,9.68,0.02,0.13,0.01,0.00
2026-06-27 11:02:14.122,994.70,994.67,-2.97,-2.28,0.00,-0.64,0.56,9.68,0.02,0.13,0.01,0.00
2026-06-27 11:02:14.125,994.70,994.67,-2.97,-2.28,0.00,-0.64,0.56,9.68,0.02,0.13,0.01,0.00
2026-06-27 11:02:14.130,994.70,994.67,-2.97,-2.28,0.00,-0.64,0.56,9.68,0.02,0.11,0.03,0.00
2026-06-27 11:02:14.132,994.70,994.67,-2.97,-2.28,0.00,-0.74,0.43,9.64,0.02,0.11,0.03,0.00
2026-06-27 11:02:14.135,994.70,994.67,-2.97,-2.28,0.00,-0.74,0.43,9.64,0.02,0.11,0.03,0.00
2026-06-27 11:02:14.140,994.70,994.67,-2.97,-2.28,0.00,-0.74,0.43,9.64,0.01,0.08,0.04,0.00
2026-06-27 11:02:14.141,994.70,994.67,-2.97,-2.28,0.00,-1.09,0.32,9.79,0.01,0.08,0.04,0.00
2026-06-27 11:02:14.143,994.70,994.67,-2.97,-2.28,0.00,-1.09,0.32,9.79,0.01,0.08,0.04,0.00
2026-06-27 11:02:14.149,994.70,994.67,-2.97,-2.28,0.00,-1.09,0.32,9.79,0.01,0.08,0.04,0.00
2026-06-27 11:02:14.292,994.68,994.67,-0.82,-1.20,0.00,-0.21,0.80,9.67,-0.02,-0.15,0.02,0.00
2026-06-27 11:02:14.294,994.68,994.67,-0.82,-1.20,0.00,-0.21,0.80,9.67,-0.02,-0.15,0.02,0.00
2026-06-27 11:02:14.300,994.68,994.67,-0.82,-1.20,0.00,-0.21,0.80,9.67,-0.02,-0.15,0.02,0.00
2026-06-27 11:02:14.302,994.68,994.67,-0.82,-1.20,0.00,-0.22,0.85,9.71,-0.02,-0.16,0.02,0.00
2026-06-27 11:02:14.303,994.68,994.67,-0.82,-1.20,0.00,-0.22,0.85,9.71,-0.02,-0.16,0.02,0.00
2026-06-27 11:02:14.310,994.68,994.67,-0.82,-1.20,0.00,-0.22,0.85,9.71,-0.02,-0.16,0.02,0.00
2026-06-27 11:02:14.312,994.68,994.67,-0.82,-1.20,0.00,-0.21,0.86,9.69,-0.03,-0.16,0.02,0.00
2026-06-27 11:02:14.314,994.68,994.67,-0.82,-1.20,0.00,-0.21,0.86,9.69,-0.03,-0.16,0.02,0.00
2026-06-27 11:02:14.320,994.68,994.67,-0.82,-1.20,0.00,-0.21,0.86,9.69,-0.03,-0.16,0.02,0.00
2026-06-27 11:02:14.321,994.68,994.67,-0.82,-1.20,0.00,0.10,0.96,9.65,-0.03,-0.17,0.02,0.00
2026-06-27 11:02:14.323,994.68,994.67,-0.82,-1.20,0.00,0.10,0.96,9.65,-0.03,-0.17,0.02,0.00
2026-06-27 11:02:14.329,994.68,994.67,-0.82,-1.20,0.00,0.10,0.96,9.65,-0.03,-0.17,0.02,0.00
2026-06-27 11:02:14.480,994.69,994.67,-2.08,-1.91,0.00,0.74,0.83,9.84,-0.01,-0.07,0.02,0.00
2026-06-27 11:02:14.482,994.69,994.67,-2.08,-1.91,0.00,0.55,0.81,9.90,-0.01,-0.05,0.01,0.00
2026-06-27 11:02:14.487,994.69,994.67,-2.08,-1.91,0.00,0.55,0.81,9.90,-0.01,-0.05,0.01,0.00
2026-06-27 11:02:14.492,994.69,994.67,-2.08,-1.91,0.00,0.55,0.81,9.90,-0.01,-0.04,-0.01,0.00
2026-06-27 11:02:14.494,994.69,994.67,-2.08,-1.91,0.00,0.83,0.67,9.60,-0.01,-0.04,-0.01,0.00
2026-06-27 11:02:14.501,994.69,994.67,-2.08,-1.91,0.00,0.83,0.67,9.60,-0.01,-0.04,-0.01,0.00
2026-06-27 11:02:14.503,994.69,994.67,-2.08,-1.91,0.00,0.16,0.81,9.59,-0.00,-0.03,-0.01,0.00
2026-06-27 11:02:14.507,994.69,994.67,-2.08,-1.91,0.00,0.16,0.81,9.59,-0.00,-0.03,-0.01,0.00
2026-06-27 11:02:14.645,994.70,994.67,-2.86,-2.24,0.00,0.37,0.69,9.63,0.02,0.11,-0.01,0.00
2026-06-27 11:02:14.651,994.70,994.67,-2.86,-2.24,0.00,0.37,0.69,9.63,0.02,0.11,-0.01,0.00
2026-06-27 11:02:14.653,994.70,994.67,-2.86,-2.24,0.00,0.36,0.75,9.70,0.02,0.12,-0.01,0.00
2026-06-27 11:02:14.655,994.70,994.67,-2.86,-2.24,0.00,0.36,0.75,9.70,0.02,0.12,-0.01,0.00
2026-06-27 11:02:14.661,994.70,994.67,-2.86,-2.24,0.00,0.36,0.75,9.70,0.02,0.12,-0.01,0.00
2026-06-27 11:02:14.663,994.70,994.67,-2.86,-2.24,0.00,0.32,0.79,9.71,0.02,0.12,-0.00,0.00
2026-06-27 11:02:14.664,994.70,994.67,-2.86,-2.24,0.00,0.32,0.79,9.71,0.02,0.12,-0.00,0.00
2026-06-27 11:02:14.669,994.70,994.67,-2.86,-2.24,0.00,0.32,0.79,9.71,0.02,0.12,-0.00,0.00
2026-06-27 11:02:14.672,994.70,994.67,-2.86,-2.24,0.00,0.47,0.74,9.68,0.02,0.13,-0.00,0.00
2026-06-27 11:02:14.674,994.70,994.67,-2.86,-2.24,0.00,0.47,0.74,9.68,0.02,0.13,-0.00,0.00
2026-06-27 11:02:14.680,994.70,994.67,-2.86,-2.24,0.00,0.47,0.74,9.68,0.02,0.13,-0.00,0.00
2026-06-27 11:02:14.822,994.71,994.65,-6.00,-3.24,0.00,-0.63,0.56,9.68,0.02,0.12,-0.00,0.00
2026-06-27 11:02:14.824,994.71,994.65,-6.00,-3.24,0.00,-0.63,0.56,9.68,0.02,0.12,-0.00,0.00
2026-06-27 11:02:14.830,994.71,994.65,-6.00,-3.24,0.00,-0.63,0.56,9.68,0.02,0.12,-0.00,0.00
2026-06-27 11:02:14.832,994.71,994.65,-6.00,-3.24,0.00,-0.67,0.55,9.71,0.01,0.11,0.00,0.00
2026-06-27 11:02:14.834,994.71,994.65,-6.00,-3.24,0.00,-0.67,0.55,9.71,0.01,0.11,0.00,0.00
2026-06-27 11:02:14.840,994.71,994.65,-6.00,-3.24,0.00,-0.67,0.55,9.71,0.01,0.11,0.00,0.00
2026-06-27 11:02:14.842,994.71,994.65,-6.00,-3.24,0.00,-0.85,0.57,9.76,0.01,0.09,0.00,0.00
2026-06-27 11:02:14.844,994.71,994.65,-6.00,-3.24,0.00,-0.85,0.57,9.76,0.01,0.09,0.00,0.00
2026-06-27 11:02:14.848,994.71,994.65,-6.00,-3.24,0.00,-0.85,0.57,9.76,0.01,0.09,0.00,0.00
2026-06-27 11:02:14.852,994.71,994.65,-6.00,-3.24,0.00,-0.85,0.57,9.76,0.01,0.07,0.01,0.00
2026-06-27 11:02:14.854,994.71,994.65,-6.00,-3.24,0.00,-0.82,0.54,9.79,0.01,0.07,0.01,0.00
2026-06-27 11:02:14.858,994.71,994.65,-6.00,-3.24,0.00,-0.82,0.54,9.79,0.01,0.07,0.01,0.00
2026-06-27 11:02:14.002,994.71,994.67,-3.92,-2.62,0.00,-0.21,0.77,9.67,-0.02,-0.13,0.02,0.00
2026-06-27 11:02:15.007,994.71,994.67,-3.92,-2.62,0.00,-0.12,0.83,9.73,-0.02,-0.13,0.02,0.00
2026-06-27 11:02:15.012,994.71,994.67,-3.92,-2.62,0.00,-0.12,0.83,9.73,-0.01,-0.13,0.03,0.00
2026-06-27 11:02:15.013,994.71,994.67,-3.92,-2.62,0.00,-0.03,0.82,9.69,-0.01,-0.13,0.03,0.00
2026-06-27 11:02:15.015,994.71,994.67,-3.92,-2.62,0.00,-0.03,0.82,9.69,-0.01,-0.13,0.03,0.00
2026-06-27 11:02:15.018,994.71,994.67,-3.92,-2.62,0.00,-0.03,0.82,9.69,-0.01,-0.13,0.03,0.00
2026-06-27 11:02:15.022,994.71,994.67,-3.92,-2.62,0.00,-0.03,0.82,9.69,-0.02,-0.13,0.03,0.00
2026-06-27 11:02:15.024,994.71,994.67,-3.92,-2.62,0.00,0.00,0.81,9.68,-0.02,-0.13,0.03,0.00
2026-06-27 11:02:15.025,994.71,994.67,-3.92,-2.62,0.00,0.00,0.81,9.68,-0.02,-0.13,0.03,0.00
2026-06-27 11:02:15.030,994.71,994.67,-3.92,-2.62,0.00,0.00,0.81,9.68,-0.02,-0.13,0.03,0.00
2026-06-27 11:02:15.032,994.71,994.67,-3.92,-2.62,0.00,-0.05,0.80,9.68,-0.02,-0.13,0.03,0.00
2026-06-27 11:02:15.034,994.71,994.67,-3.92,-2.62,0.00,-0.05,0.80,9.68,-0.02,-0.13,0.03,0.00
2026-06-27 11:02:15.036,994.71,994.67,-3.92,-2.62,0.00,-0.05,0.80,9.68,-0.02,-0.13,0.03,0.00
2026-06-27 11:02:15.173,994.70,994.67,-3.04,-2.31,0.00,0.57,0.85,9.66,-0.01,-0.05,0.00,0.00
2026-06-27 11:02:15.175,994.70,994.67,-3.04,-2.31,0.00,0.57,0.85,9.66,-0.01,-0.05,0.00,0.00
2026-06-27 11:02:15.179,994.70,994.67,-3.04,-2.31,0.00,0.57,0.85,9.66,-0.01,-0.05,0.00,0.00
2026-06-27 11:02:15.183,994.70,994.67,-3.04,-2.31,0.00,0.57,0.85,9.66,-0.01,-0.04,0.00,0.00
2026-06-27 11:02:15.185,994.70,994.67,-3.04,-2.31,0.00,0.55,0.89,9.66,-0.01,-0.04,0.00,0.00
2026-06-27 11:02:15.186,994.70,994.67,-3.04,-2.31,0.00,0.55,0.89,9.66,-0.01,-0.04,0.00,0.00
2026-06-27 11:02:15.192,994.70,994.67,-3.04,-2.31,0.00,0.55,0.89,9.66,-0.01,-0.04,0.00,0.00
2026-06-27 11:02:15.194,994.70,994.67,-3.04,-2.31,0.00,0.65,0.86,9.66,-0.00,-0.03,0.00,0.00
2026-06-27 11:02:15.196,994.70,994.67,-3.04,-2.31,0.00,0.65,0.86,9.66,-0.00,-0.03,0.00,0.00
2026-06-27 11:02:15.200,994.70,994.67,-3.04,-2.31,0.00,0.65,0.86,9.66,-0.00,-0.03,0.00,0.00
2026-06-27 11:02:15.204,994.70,994.67,-3.04,-2.31,0.00,0.65,0.83,9.66,-0.00,-0.02,-0.00,0.00
2026-06-27 11:02:15.206,994.70,994.67,-3.04,-2.31,0.00,0.65,0.83,9.66,-0.00,-0.02,-0.00,0.00
2026-06-27 11:02:15.212,994.70,994.67,-3.04,-2.31,0.00,0.65,0.83,9.66,-0.00,-0.02,-0.00,0.00
2026-06-27 11:02:15.355,994.70,994.67,-3.40,-2.44,0.00,0.33,0.76,9.68,0.02,0.10,-0.02,0.00
2026-06-27 11:02:15.359,994.70,994.67,-3.40,-2.44,0.00,0.33,0.76,9.68,0.02,0.10,-0.02,0.00
2026-06-27 11:02:15.363,994.70,994.67,-3.40,-2.44,0.00,0.33,0.76,9.68,0.01,0.10,-0.02,0.00
2026-06-27 11:02:15.365,994.70,994.67,-3.40,-2.44,0.00,0.11,0.79,9.65,0.01,0.10,-0.02,0.00
2026-06-27 11:02:15.367,994.70,994.67,-3.40,-2.44,0.00,0.11,0.79,9.65,0.01,0.10,-0.02,0.00
2026-06-27 11:02:15.372,994.70,994.67,-3.40,-2.44,0.00,0.11,0.79,9.65,0.01,0.10,-0.02,0.00
2026-06-27 11:02:15.374,994.70,994.67,-3.40,-2.44,0.00,0.04,0.78,9.68,0.01,0.10,-0.01,0.00
2026-06-27 11:02:15.376,994.70,994.67,-3.40,-2.44,0.00,0.04,0.78,9.68,0.01,0.10,-0.01,0.00
2026-06-27 11:02:15.379,994.70,994.67,-3.40,-2.44,0.00,0.04,0.78,9.68,0.01,0.10,-0.01,0.00
2026-06-27 11:02:15.383,994.70,994.67,-3.40,-2.44,0.00,0.04,0.78,9.68,0.02,0.11,-0.01,0.00
2026-06-27 11:02:15.385,994.70,994.67,-3.40,-2.44,0.00,0.12,0.78,9.68,0.02,0.11,-0.01,0.00
2026-06-27 11:02:15.387,994.70,994.67,-3.40,-2.44,0.00,0.12,0.78,9.68,0.02,0.11,-0.01,0.00
2026-06-27 11:02:15.392,994.70,994.67,-3.40,-2.44,0.00,0.12,0.78,9.68,0.02,0.11,-0.01,0.00
2026-06-27 11:02:15.535,994.71,994.67,-3.94,-2.63,0.00,-0.29,0.64,9.70,0.01,0.07,-0.02,0.00
2026-06-27 11:02:15.537,994.71,994.67,-3.94,-2.63,0.00,-0.29,0.64,9.70,0.01,0.07,-0.02,0.00
2026-06-27 11:02:15.542,994.71,994.67,-3.94,-2.63,0.00,-0.29,0.64,9.70,0.01,0.07,-0.02,0.00
2026-06-27 11:02:15.544,994.71,994.67,-3.94,-2.63,0.00,-0.34,0.64,9.66,0.01,0.06,-0.02,0.00
2026-06-27 11:02:15.546,994.71,994.67,-3.94,-2.63,0.00,-0.34,0.64,9.66,0.01,0.06,-0.02,0.00
2026-06-27 11:02:15.547,994.71,994.67,-3.94,-2.63,0.00,-0.34,0.64,9.66,0.01,0.06,-0.02,0.00
2026-06-27 11:02:15.553,994.71,994.67,-3.94,-2.63,0.00,-0.34,0.64,9.66,0.01,0.06,-0.02,0.00
2026-06-27 11:02:15.555,994.71,994.67,-3.94,-2.63,0.00,-0.40,0.70,9.70,0.01,0.06,-0.01,0.00
2026-06-27 11:02:15.557,994.71,994.67,-3.94,-2.63,0.00,-0.40,0.70,9.70,0.01,0.06,-0.01,0.00
2026-06-27 11:02:15.561,994.71,994.67,-3.94,-2.63,0.00,-0.40,0.70,9.70,0.01,0.06,-0.01,0.00
2026-06-27 11:02:15.564,994.71,994.67,-3.94,-2.63,0.00,-0.40,0.70,9.70,0.01,0.05,-0.01,0.00
2026-06-27 11:02:15.565,994.71,994.67,-3.94,-2.63,0.00,-0.33,0.69,9.71,0.01,0.05,-0.01,0.00
2026-06-27 11:02:15.567,994.71,994.67,-3.94,-2.63,0.00,-0.33,0.69,9.71,0.01,0.05,-0.01,0.00
2026-06-27 11:02:15.573,994.71,994.67,-3.94,-2.63,0.00,-0.33,0.69,9.71,0.01,0.05,-0.01,0.00
2026-06-27 11:02:15.715,994.70,994.67,-3.62,-2.52,0.00,-0.21,0.88,9.64,0.01,0.03,-0.01,0.00
2026-06-27 11:02:15.720,994.70,994.67,-3.62,-2.52,0.00,-0.21,0.88,9.64,0.01,0.03,-0.01,0.00
2026-06-27 11:02:15.724,994.70,994.67,-3.62,-2.52,0.00,-0.21,0.88,9.64,0.01,0.03,-0.01,0.00
2026-06-27 11:02:15.726,994.70,994.67,-3.62,-2.52,0.00,-0.19,0.91,9.66,0.01,0.03,-0.01,0.00
2026-06-27 11:02:15.727,994.70,994.67,-3.62,-2.52,0.00,-0.19,0.91,9.66,0.01,0.03,-0.01,0.00
2026-06-27 11:02:15.733,994.70,994.67,-3.62,-2.52,0.00,-0.19,0.91,9.66,0.01,0.03,-0.01,0.00
2026-06-27 11:02:15.735,994.70,994.67,-3.62,-2.52,0.00,-0.18,0.95,9.70,0.00,0.03,-0.01,0.00
2026-06-27 11:02:15.736,994.70,994.67,-3.62,-2.52,0.00,-0.18,0.95,9.70,0.00,0.03,-0.01,0.00
2026-06-27 11:02:15.740,994.70,994.67,-3.62,-2.52,0.00,-0.18,0.95,9.70,0.00,0.03,-0.01,0.00
2026-06-27 11:02:15.744,994.70,994.67,-3.62,-2.52,0.00,-0.18,0.95,9.70,0.00,0.03,-0.01,0.00
2026-06-27 11:02:15.745,994.70,994.67,-3.62,-2.52,0.00,-0.20,0.94,9.69,0.00,0.03,-0.01,0.00
2026-06-27 11:02:15.747,994.70,994.67,-3.62,-2.52,0.00,-0.20,0.94,9.69,0.00,0.03,-0.01,0.00
2026-06-27 11:02:15.749,994.70,994.67,-3.62,-2.52,0.00,-0.20,0.94,9.69,0.00,0.03,-0.01,0.00
2026-06-27 11:02:15.886,994.70,994.66,-3.77,-2.57,0.00,-0.29,0.81,9.71,-0.00,0.00,-0.02,0.00
2026-06-27 11:02:15.891,994.70,994.66,-3.77,-2.57,0.00,-0.29,0.81,9.71,-0.00,0.00,-0.02,0.00
2026-06-27 11:02:15.894,994.70,994.66,-3.77,-2.57,0.00,-0.29,0.81,9.71,0.00,-0.01,-0.02,0.00
2026-06-27 11:02:15.896,994.70,994.66,-3.77,-2.57,0.00,-0.28,0.86,9.68,0.00,-0.01,-0.02,0.00
2026-06-27 11:02:15.898,994.70,994.66,-3.77,-2.57,0.00,-0.28,0.86,9.68,0.00,-0.01,-0.02,0.00
2026-06-27 11:02:15.904,994.70,994.66,-3.77,-2.57,0.00,-0.28,0.86,9.68,0.00,-0.01,-0.02,0.00
2026-06-27 11:02:15.905,994.70,994.66,-3.77,-2.57,0.00,-0.28,0.86,9.68,-0.00,-0.01,-0.02,0.00
2026-06-27 11:02:15.907,994.70,994.66,-3.77,-2.57,0.00,-0.28,0.86,9.68,-0.00,-0.01,-0.02,0.00
2026-06-27 11:02:15.912,994.70,994.66,-3.77,-2.57,0.00,-0.28,0.86,9.68,-0.00,-0.01,-0.02,0.00
2026-06-27 11:02:15.914,994.70,994.66,-3.77,-2.57,0.00,-0.28,0.86,9.68,0.00,-0.01,-0.02,0.00
2026-06-27 11:02:15.916,994.70,994.66,-3.77,-2.57,0.00,-0.27,0.85,9.68,0.00,-0.01,-0.02,0.00
2026-06-27 11:02:15.918,994.70,994.66,-3.77,-2.57,0.00,-0.27,0.85,9.68,0.00,-0.01,-0.02,0.00
2026-06-27 11:02:15.924,994.70,994.66,-3.77,-2.57,0.00,-0.27,0.85,9.68,0.00,-0.01,-0.02,0.00
2026-06-27 11:02:15.925,994.70,994.66,-3.77,-2.57,0.00,-0.23,0.86,9.72,0.00,-0.01,-0.02,0.00
2026-06-27 11:02:16.065,994.70,994.65,-4.79,-2.90,0.00,-0.15,0.83,9.70,-0.00,-0.02,-0.02,0.00
2026-06-27 11:02:16.067,994.70,994.65,-4.79,-2.90,0.00,-0.15,0.83,9.70,-0.00,-0.02,-0.02,0.00
2026-06-27 11:02:16.071,994.70,994.65,-4.79,-2.90,0.00,-0.15,0.83,9.70,-0.00,-0.02,-0.02,0.00
2026-06-27 11:02:16.075,994.70,994.65,-4.79,-2.90,0.00,-0.15,0.83,9.70,-0.00,-0.02,-0.02,0.00
2026-06-27 11:02:16.076,994.70,994.65,-4.79,-2.90,0.00,-0.13,0.84,9.67,-0.00,-0.02,-0.02,0.00
2026-06-27 11:02:16.078,994.70,994.65,-4.79,-2.90,0.00,-0.13,0.84,9.67,-0.00,-0.02,-0.02,0.00
2026-06-27 11:02:16.084,994.70,994.65,-4.79,-2.90,0.00,-0.13,0.84,9.67,-0.00,-0.02,-0.02,0.00
2026-06-27 11:02:16.086,994.70,994.65,-4.79,-2.90,0.00,-0.12,0.81,9.68,-0.00,-0.02,-0.02,0.00
2026-06-27 11:02:16.088,994.70,994.65,-4.79,-2.90,0.00,-0.12,0.81,9.68,-0.00,-0.02,-0.02,0.00
2026-06-27 11:02:16.092,994.70,994.65,-4.79,-2.90,0.00,-0.12,0.81,9.68,-0.00,-0.02,-0.02,0.00
2026-06-27 11:02:16.095,994.70,994.65,-4.79,-2.90,0.00,-0.12,0.81,9.68,-0.00,-0.01,-0.02,0.00
2026-06-27 11:02:16.097,994.70,994.65,-4.79,-2.90,0.00,-0.11,0.84,9.66,-0.00,-0.01,-0.02,0.00
2026-06-27 11:02:16.098,994.70,994.65,-4.79,-2.90,0.00,-0.11,0.84,9.66,-0.00,-0.01,-0.02,0.00
2026-06-27 11:02:16.104,994.70,994.65,-4.79,-2.90,0.00,-0.11,0.84,9.66,-0.00,-0.01,-0.02,0.00
2026-06-27 11:02:16.246,994.70,994.69,-1.74,-1.74,0.00,-0.06,0.59,9.71,0.00,0.02,-0.02,0.00
2026-06-27 11:02:16.251,994.70,994.69,-1.74,-1.74,0.00,-0.06,0.59,9.71,0.00,0.02,-0.02,0.00
2026-06-27 11:02:16.255,994.70,994.69,-1.74,-1.74,0.00,-0.06,0.59,9.71,0.00,0.02,-0.02,0.00
2026-06-27 11:02:16.257,994.70,994.69,-1.74,-1.74,0.00,-0.26,0.57,9.65,0.00,0.02,-0.02,0.00
2026-06-27 11:02:16.259,994.70,994.69,-1.74,-1.74,0.00,-0.26,0.57,9.65,0.00,0.02,-0.02,0.00
2026-06-27 11:02:16.265,994.70,994.69,-1.74,-1.74,0.00,-0.26,0.57,9.65,0.00,0.02,-0.02,0.00
2026-06-27 11:02:16.267,994.70,994.69,-1.74,-1.74,0.00,0.06,0.48,9.62,0.01,0.02,-0.01,0.00
2026-06-27 11:02:16.268,994.70,994.69,-1.74,-1.74,0.00,0.06,0.48,9.62,0.01,0.02,-0.01,0.00
2026-06-27 11:02:16.273,994.70,994.69,-1.74,-1.74,0.00,0.06,0.48,9.62,0.01,0.02,-0.01,0.00
2026-06-27 11:02:16.276,994.70,994.69,-1.74,-1.74,0.00,0.02,0.46,9.65,0.00,0.02,-0.01,0.00
2026-06-27 11:02:16.278,994.70,994.69,-1.74,-1.74,0.00,0.02,0.46,9.65,0.00,0.02,-0.01,0.00
2026-06-27 11:02:16.281,994.70,994.69,-1.74,-1.74,0.00,0.02,0.46,9.65,0.00,0.02,-0.01,0.00
2026-06-27 11:02:16.426,994.69,994.67,-2.00,-1.87,0.00,-0.06,0.85,9.70,0.00,-0.00,0.00,0.00
2026-06-27 11:02:16.428,994.69,994.67,-2.00,-1.87,0.00,-0.06,0.85,9.70,0.00,-0.00,0.00,0.00
2026-06-27 11:02:16.431,994.69,994.67,-2.00,-1.87,0.00,-0.06,0.85,9.70,0.00,-0.00,0.00,0.00
2026-06-27 11:02:16.435,994.69,994.67,-2.00,-1.87,0.00,-0.06,0.85,9.70,0.00,-0.00,0.00,0.00
2026-06-27 11:02:16.437,994.69,994.67,-2.00,-1.87,0.00,-0.21,0.83,9.69,0.00,-0.00,0.00,0.00
2026-06-27 11:02:16.439,994.69,994.67,-2.00,-1.87,0.00,-0.21,0.83,9.69,0.00,-0.00,0.00,0.00
2026-06-27 11:02:16.445,994.69,994.67,-2.00,-1.87,0.00,-0.21,0.83,9.69,0.00,-0.00,0.00,0.00
2026-06-27 11:02:16.447,994.69,994.67,-2.00,-1.87,0.00,-0.33,0.86,9.67,-0.00,-0.00,0.00,0.00
2026-06-27 11:02:16.448,994.69,994.67,-2.00,-1.87,0.00,-0.33,0.86,9.67,-0.00,-0.00,0.00,0.00
2026-06-27 11:02:16.452,994.69,994.67,-2.00,-1.87,0.00,-0.33,0.86,9.67,-0.00,-0.00,0.00,0.00
2026-06-27 11:02:16.458,994.69,994.67,-2.00,-1.87,0.00,-0.33,0.86,9.67,0.00,0.00,0.00,0.00
2026-06-27 11:02:16.602,994.70,994.67,-2.50,-2.09,0.00,-0.17,0.72,9.56,0.00,0.01,0.00,0.00
2026-06-27 11:02:16.606,994.70,994.67,-2.50,-2.09,0.00,-0.17,0.72,9.56,0.00,0.01,0.00,0.00
2026-06-27 11:02:16.608,994.70,994.67,-2.50,-2.09,0.00,-0.08,0.76,9.83,0.00,0.01,0.00,0.00
2026-06-27 11:02:16.609,994.70,994.67,-2.50,-2.09,0.00,-0.08,0.76,9.83,0.00,0.01,0.00,0.00
2026-06-27 11:02:16.615,994.70,994.67,-2.50,-2.09,0.00,-0.08,0.76,9.83,0.00,0.01,0.00,0.00
2026-06-27 11:02:16.616,994.70,994.67,-2.50,-2.09,0.00,-0.20,0.85,9.71,0.00,0.02,0.00,0.00
2026-06-27 11:02:16.618,994.70,994.67,-2.50,-2.09,0.00,-0.20,0.85,9.71,0.00,0.02,0.00,0.00
2026-06-27 11:02:16.619,994.70,994.67,-2.50,-2.09,0.00,-0.20,0.85,9.71,0.00,0.02,0.00,0.00
2026-06-27 11:02:16.625,994.70,994.67,-2.50,-2.09,0.00,-0.20,0.85,9.71,0.00,0.02,0.00,0.00
2026-06-27 11:02:16.627,994.70,994.67,-2.50,-2.09,0.00,-0.12,0.74,9.63,0.01,0.02,0.00,0.00
2026-06-27 11:02:16.628,994.70,994.67,-2.50,-2.09,0.00,-0.12,0.74,9.63,0.01,0.02,0.00,0.00
2026-06-27 11:02:16.630,994.70,994.67,-2.50,-2.09,0.00,-0.12,0.74,9.63,0.01,0.02,0.00,0.00
2026-06-27 11:02:16.636,994.70,994.67,-2.50,-2.09,0.00,-0.12,0.74,9.63,0.01,0.02,0.00,0.00
2026-06-27 11:02:16.777,994.70,994.68,-2.19,-1.96,0.00,-0.18,0.79,9.72,0.00,0.03,0.00,0.00
2026-06-27 11:02:16.778,994.70,994.68,-2.19,-1.96,0.00,-0.18,0.80,9.72,0.00,0.03,0.00,0.00
2026-06-27 11:02:16.780,994.70,994.68,-2.19,-1.96,0.00,-0.18,0.80,9.72,0.00,0.03,0.00,0.00
2026-06-27 11:02:16.786,994.70,994.68,-2.19,-1.96,0.00,-0.18,0.80,9.72,0.00,0.03,0.00,0.00
2026-06-27 11:02:16.787,994.70,994.68,-2.19,-1.96,0.00,-0.18,0.75,9.65,0.01,0.03,0.00,0.00
2026-06-27 11:02:16.789,994.70,994.68,-2.19,-1.96,0.00,-0.18,0.75,9.65,0.01,0.03,0.00,0.00
2026-06-27 11:02:16.796,994.70,994.68,-2.19,-1.96,0.00,-0.18,0.75,9.65,0.01,0.03,0.00,0.00
2026-06-27 11:02:16.798,994.70,994.68,-2.19,-1.96,0.00,-0.16,0.81,9.69,0.00,0.03,0.00,0.00
2026-06-27 11:02:16.800,994.70,994.68,-2.19,-1.96,0.00,-0.16,0.81,9.69,0.00,0.03,0.00,0.00
2026-06-27 11:02:16.805,994.70,994.68,-2.19,-1.96,0.00,-0.16,0.81,9.69,0.00,0.03,0.00,0.00
2026-06-27 11:02:16.807,994.70,994.68,-2.19,-1.96,0.00,-0.22,0.83,9.73,0.01,0.03,0.00,0.00
2026-06-27 11:02:16.809,994.70,994.68,-2.19,-1.96,0.00,-0.22,0.83,9.73,0.01,0.03,0.00,0.00
2026-06-27 11:02:16.812,994.70,994.68,-2.19,-1.96,0.00,-0.22,0.83,9.73,0.01,0.03,0.00,0.00
2026-06-27 11:02:16.957,994.70,994.68,-2.44,-2.07,0.00,-0.30,0.80,9.67,0.00,0.04,0.00,0.00
2026-06-27 11:02:16.959,994.70,994.68,-2.44,-2.07,0.00,-0.28,0.81,9.72,0.00,0.04,0.00,0.00
2026-06-27 11:02:16.960,994.70,994.68,-2.44,-2.07,0.00,-0.28,0.81,9.72,0.00,0.04,0.00,0.00
2026-06-27 11:02:16.966,994.70,994.68,-2.44,-2.07,0.00,-0.28,0.81,9.72,0.00,0.04,0.00,0.00
2026-06-27 11:02:16.967,994.70,994.68,-2.44,-2.07,0.00,-0.36,0.83,9.70,0.00,0.04,0.00,0.00
2026-06-27 11:02:16.969,994.70,994.68,-2.44,-2.07,0.00,-0.36,0.83,9.70,0.00,0.04,0.00,0.00
2026-06-27 11:02:16.971,994.70,994.68,-2.44,-2.07,0.00,-0.36,0.83,9.70,0.00,0.04,0.00,0.00
2026-06-27 11:02:16.976,994.70,994.68,-2.44,-2.07,0.00,-0.36,0.83,9.70,0.00,0.04,0.00,0.00
2026-06-27 11:02:16.978,994.70,994.68,-2.44,-2.07,0.00,-0.36,0.82,9.68,0.01,0.03,0.00,0.00
2026-06-27 11:02:16.981,994.70,994.68,-2.44,-2.07,0.00,-0.36,0.82,9.68,0.01,0.03,0.00,0.00
2026-06-27 11:02:16.987,994.70,994.68,-2.44,-2.07,0.00,-0.36,0.82,9.68,0.01,0.03,0.00,0.00
2026-06-27 11:02:16.989,994.70,994.68,-2.44,-2.07,0.00,-0.37,0.85,9.66,0.01,0.03,0.00,0.00
2026-06-27 11:02:17.129,994.70,994.68,-2.19,-1.96,0.00,-0.40,0.79,9.71,0.00,0.02,0.00,0.00
2026-06-27 11:02:17.131,994.70,994.68,-2.19,-1.96,0.00,-0.40,0.79,9.71,0.00,0.02,0.00,0.00
2026-06-27 11:02:17.137,994.70,994.68,-2.19,-1.96,0.00,-0.40,0.79,9.71,0.00,0.02,0.00,0.00
2026-06-27 11:02:17.138,994.70,994.68,-2.19,-1.96,0.00,-0.38,0.77,9.70,0.00,0.02,0.00,0.00
2026-06-27 11:02:17.140,994.70,994.68,-2.19,-1.96,0.00,-0.38,0.77,9.70,0.00,0.02,0.00,0.00
2026-06-27 11:02:17.146,994.70,994.68,-2.19,-1.96,0.00,-0.38,0.77,9.70,0.00,0.02,0.00,0.00
2026-06-27 11:02:17.148,994.70,994.68,-2.19,-1.96,0.00,-0.38,0.79,9.70,0.00,0.02,-0.00,0.00
2026-06-27 11:02:17.150,994.70,994.68,-2.19,-1.96,0.00,-0.38,0.79,9.70,0.00,0.02,-0.00,0.00
2026-06-27 11:02:17.151,994.70,994.68,-2.19,-1.96,0.00,-0.38,0.79,9.70,0.00,0.02,-0.00,0.00
2026-06-27 11:02:17.157,994.70,994.68,-2.19,-1.96,0.00,-0.38,0.79,9.70,0.00,0.02,-0.00,0.00
2026-06-27 11:02:17.158,994.70,994.68,-2.19,-1.96,0.00,-0.38,0.82,9.66,0.00,0.02,-0.00,0.00
2026-06-27 11:02:17.160,994.70,994.68,-2.19,-1.96,0.00,-0.38,0.82,9.66,0.00,0.02,-0.00,0.00
2026-06-27 11:02:17.164,994.70,994.68,-2.19,-1.96,0.00,-0.38,0.82,9.66,0.00,0.02,-0.00,0.00
2026-06-27 11:02:17.308,994.72,994.68,-3.52,-2.48,0.00,-0.31,0.74,9.72,0.00,0.02,0.00,0.00
2026-06-27 11:02:17.309,994.72,994.68,-3.52,-2.48,0.00,-0.31,0.76,9.71,0.00,0.02,0.00,0.00
2026-06-27 11:02:17.311,994.72,994.68,-3.52,-2.48,0.00,-0.31,0.76,9.71,0.00,0.02,0.00,0.00
2026-06-27 11:02:17.317,994.72,994.68,-3.52,-2.48,0.00,-0.31,0.76,9.71,0.00,0.02,0.00,0.00
2026-06-27 11:02:17.319,994.72,994.68,-3.52,-2.48,0.00,-0.31,0.71,9.69,0.01,0.02,-0.00,0.00
2026-06-27 11:02:17.320,994.72,994.68,-3.52,-2.48,0.00,-0.31,0.71,9.69,0.01,0.02,-0.00,0.00
2026-06-27 11:02:17.324,994.72,994.68,-3.52,-2.48,0.00,-0.31,0.71,9.69,0.01,0.02,-0.00,0.00
2026-06-27 11:02:17.328,994.72,994.68,-3.52,-2.48,0.00,-0.31,0.71,9.69,0.00,0.03,-0.00,0.00
2026-06-27 11:02:17.329,994.72,994.68,-3.52,-2.48,0.00,-0.32,0.71,9.68,0.00,0.03,-0.00,0.00
2026-06-27 11:02:17.331,994.72,994.68,-3.52,-2.48,0.00,-0.32,0.71,9.68,0.00,0.03,-0.00,0.00
2026-06-27 11:02:17.337,994.72,994.68,-3.52,-2.48,0.00,-0.32,0.71,9.68,0.00,0.03,-0.00,0.00
2026-06-27 11:02:17.339,994.72,994.68,-3.52,-2.48,0.00,-0.33,0.70,9.66,0.01,0.03,-0.00,0.00
2026-06-27 11:02:17.340,994.72,994.68,-3.52,-2.48,0.00,-0.33,0.70,9.66,0.01,0.03,-0.00,0.00
2026-06-27 11:02:17.487,994.71,994.69,-1.87,-1.81,0.00,-0.46,0.86,9.71,0.01,0.04,0.01,0.00
2026-06-27 11:02:17.489,994.71,994.69,-1.87,-1.81,0.00,-0.46,0.86,9.72,0.01,0.04,0.00,0.00
2026-06-27 11:02:17.491,994.71,994.69,-1.87,-1.81,0.00,-0.46,0.86,9.72,0.01,0.04,0.00,0.00
2026-06-27 11:02:17.497,994.71,994.69,-1.87,-1.81,0.00,-0.46,0.86,9.72,0.01,0.04,0.00,0.00
2026-06-27 11:02:17.501,994.71,994.69,-1.87,-1.81,0.00,-0.45,0.83,9.69,0.01,0.04,0.00,0.00
2026-06-27 11:02:17.507,994.71,994.69,-1.87,-1.81,0.00,-0.45,0.83,9.69,0.01,0.04,0.00,0.00
2026-06-27 11:02:17.509,994.71,994.69,-1.87,-1.81,0.00,-0.49,0.82,9.67,0.01,0.04,0.00,0.00
2026-06-27 11:02:17.511,994.71,994.69,-1.87,-1.81,0.00,-0.49,0.82,9.67,0.01,0.04,0.00,0.00
2026-06-27 11:02:17.517,994.71,994.69,-1.87,-1.81,0.00,-0.49,0.82,9.67,0.01,0.04,0.00,0.00
2026-06-27 11:02:17.658,994.70,994.66,-3.64,-2.53,0.00,-0.51,0.93,9.70,-0.00,-0.01,0.00,0.00
2026-06-27 11:02:17.660,994.70,994.66,-3.64,-2.53,0.00,-0.53,0.91,9.68,-0.00,-0.01,0.00,0.00
2026-06-27 11:02:17.662,994.70,994.66,-3.64,-2.53,0.00,-0.53,0.91,9.68,-0.00,-0.01,0.00,0.00
2026-06-27 11:02:17.668,994.70,994.66,-3.64,-2.53,0.00,-0.53,0.91,9.68,-0.00,-0.01,0.00,0.00
2026-06-27 11:02:17.674,994.70,994.66,-3.64,-2.53,0.00,-0.54,0.90,9.68,-0.00,-0.01,0.00,0.00
2026-06-27 11:02:17.678,994.70,994.66,-3.64,-2.53,0.00,-0.54,0.90,9.68,-0.00,-0.01,0.00,0.00
2026-06-27 11:02:17.680,994.70,994.66,-3.64,-2.53,0.00,-0.54,0.84,9.65,-0.00,-0.01,0.00,0.00
2026-06-27 11:02:17.684,994.70,994.66,-3.64,-2.53,0.00,-0.54,0.84,9.65,-0.00,-0.01,0.00,0.00
2026-06-27 11:02:17.688,994.70,994.66,-3.64,-2.53,0.00,-0.54,0.84,9.65,-0.00,-0.01,-0.00,0.00
2026-06-27 11:02:17.690,994.70,994.66,-3.64,-2.53,0.00,-0.51,0.83,9.67,-0.00,-0.01,-0.00,0.00
2026-06-27 11:02:17.697,994.70,994.66,-3.64,-2.53,0.00,-0.51,0.83,9.67,-0.00,-0.01,-0.00,0.00
2026-06-27 11:02:17.839,994.69,994.66,-3.08,-2.32,0.00,-0.33,0.72,9.68,0.00,-0.01,-0.00,0.00
2026-06-27 11:02:17.841,994.69,994.66,-3.08,-2.32,0.00,-0.33,0.72,9.68,0.00,-0.01,-0.00,0.00
2026-06-27 11:02:17.845,994.69,994.66,-3.08,-2.32,0.00,-0.33,0.72,9.68,0.00,-0.01,-0.00,0.00
2026-06-27 11:02:17.849,994.69,994.66,-3.08,-2.32,0.00,-0.33,0.72,9.68,0.00,-0.00,-0.00,0.00
2026-06-27 11:02:17.851,994.69,994.66,-3.08,-2.32,0.00,-0.31,0.73,9.67,0.00,-0.00,-0.00,0.00
2026-06-27 11:02:17.852,994.69,994.66,-3.08,-2.32,0.00,-0.31,0.73,9.67,0.00,-0.00,-0.00,0.00
2026-06-27 11:02:17.858,994.69,994.66,-3.08,-2.32,0.00,-0.31,0.73,9.67,0.00,-0.00,-0.00,0.00
2026-06-27 11:02:17.864,994.69,994.66,-3.08,-2.32,0.00,-0.33,0.75,9.66,0.00,0.00,0.00,0.00
2026-06-27 11:02:17.869,994.69,994.66,-3.08,-2.32,0.00,-0.33,0.75,9.66,0.00,0.00,-0.00,0.00
2026-06-27 11:02:17.870,994.69,994.66,-3.08,-2.32,0.00,-0.34,0.74,9.67,0.00,0.00,-0.00,0.00
2026-06-27 11:02:17.873,994.69,994.66,-3.08,-2.32,0.00,-0.34,0.74,9.67,0.00,0.00,-0.00,0.00
2026-06-27 11:02:18.019,994.71,994.70,-1.14,-1.41,0.00,-0.40,0.79,9.72,0.00,0.03,0.00,0.00
2026-06-27 11:02:18.021,994.71,994.70,-1.14,-1.41,0.00,-0.40,0.78,9.71,0.01,0.03,0.00,0.00
2026-06-27 11:02:18.022,994.71,994.70,-1.14,-1.41,0.00,-0.40,0.78,9.71,0.01,0.03,0.00,0.00
2026-06-27 11:02:18.029,994.71,994.70,-1.14,-1.41,0.00,-0.40,0.78,9.71,0.01,0.03,0.00,0.00
2026-06-27 11:02:18.031,994.71,994.70,-1.14,-1.41,0.00,-0.43,0.77,9.68,0.01,0.03,-0.00,0.00
2026-06-27 11:02:18.035,994.71,994.70,-1.14,-1.41,0.00,-0.43,0.77,9.68,0.01,0.03,-0.00,0.00
2026-06-27 11:02:18.041,994.71,994.70,-1.14,-1.41,0.00,-0.43,0.77,9.68,0.00,0.03,0.00,0.00
2026-06-27 11:02:18.045,994.71,994.70,-1.14,-1.41,0.00,-0.48,0.77,9.66,0.00,0.03,0.00,0.00
2026-06-27 11:02:18.049,994.71,994.70,-1.14,-1.41,0.00,-0.48,0.77,9.66,0.00,0.03,0.00,0.00
2026-06-27 11:02:18.051,994.71,994.70,-1.14,-1.41,0.00,-0.46,0.77,9.70,0.00,0.03,0.00,0.00
2026-06-27 11:02:18.197,994.70,994.68,-1.79,-1.77,0.00,-0.51,0.86,9.69,0.00,0.02,-0.00,0.00
2026-06-27 11:02:18.200,994.70,994.68,-1.79,-1.77,0.00,-0.54,0.87,9.66,0.00,0.02,0.00,0.00
2026-06-27 11:02:18.202,994.70,994.68,-1.79,-1.77,0.00,-0.54,0.87,9.66,0.00,0.02,0.00,0.00
2026-06-27 11:02:18.207,994.70,994.68,-1.79,-1.77,0.00,-0.54,0.87,9.66,0.00,0.02,0.00,0.00
2026-06-27 11:02:18.210,994.70,994.68,-1.79,-1.77,0.00,-0.54,0.86,9.65,0.00,0.02,0.00,0.00
2026-06-27 11:02:18.212,994.70,994.68,-1.79,-1.77,0.00,-0.54,0.86,9.65,0.00,0.02,0.00,0.00
2026-06-27 11:02:18.215,994.70,994.68,-1.79,-1.77,0.00,-0.54,0.86,9.65,0.00,0.02,0.00,0.00
2026-06-27 11:02:18.220,994.70,994.68,-1.79,-1.77,0.00,-0.54,0.86,9.65,0.00,0.02,0.00,0.00
2026-06-27 11:02:18.225,994.70,994.68,-1.79,-1.77,0.00,-0.55,0.83,9.67,0.00,0.02,0.00,0.00
2026-06-27 11:02:18.229,994.70,994.68,-1.79,-1.77,0.00,-0.55,0.83,9.67,0.00,0.02,0.00,0.00
2026-06-27 11:02:18.376,994.71,994.68,-3.17,-2.36,0.00,-0.53,0.85,9.66,0.00,0.00,-0.00,0.00
2026-06-27 11:02:18.381,994.71,994.68,-3.17,-2.36,0.00,-0.53,0.85,9.66,-0.00,-0.00,0.00,0.00
2026-06-27 11:02:18.386,994.71,994.68,-3.17,-2.36,0.00,-0.52,0.83,9.68,-0.00,-0.00,0.00,0.00
2026-06-27 11:02:18.390,994.71,994.68,-3.17,-2.36,0.00,-0.52,0.83,9.68,0.00,-0.00,0.00,0.00
2026-06-27 11:02:18.392,994.71,994.68,-3.17,-2.36,0.00,-0.51,0.82,9.69,0.00,-0.00,0.00,0.00
2026-06-27 11:02:18.395,994.71,994.68,-3.17,-2.36,0.00,-0.51,0.82,9.69,0.00,-0.00,0.00,0.00
2026-06-27 11:02:18.400,994.71,994.68,-3.17,-2.36,0.00,-0.51,0.82,9.69,0.00,-0.00,0.00,0.00
2026-06-27 11:02:18.402,994.71,994.68,-3.17,-2.36,0.00,-0.52,0.82,9.68,-0.00,-0.00,0.00,0.00
2026-06-27 11:02:18.403,994.71,994.68,-3.17,-2.36,0.00,-0.52,0.82,9.68,-0.00,-0.00,0.00,0.00
2026-06-27 11:02:18.410,994.71,994.68,-3.17,-2.36,0.00,-0.52,0.82,9.68,-0.00,-0.00,0.00,0.00
2026-06-27 11:02:18.553,994.71,994.66,-5.08,-2.98,0.00,-0.50,0.82,9.69,0.00,-0.01,-0.00,0.00
2026-06-27 11:02:18.555,994.71,994.66,-5.08,-2.98,0.00,-0.50,0.82,9.69,0.00,-0.01,-0.00,0.00
2026-06-27 11:02:18.560,994.71,994.66,-5.08,-2.98,0.00,-0.50,0.82,9.69,0.00,-0.01,-0.00,0.00
2026-06-27 11:02:18.562,994.71,994.66,-5.08,-2.98,0.00,-0.49,0.80,9.67,0.00,-0.01,0.00,0.00
2026-06-27 11:02:18.563,994.71,994.66,-5.08,-2.98,0.00,-0.49,0.80,9.67,0.00,-0.01,0.00,0.00
2026-06-27 11:02:18.567,994.71,994.66,-5.08,-2.98,0.00,-0.49,0.80,9.67,0.00,-0.01,0.00,0.00
2026-06-27 11:02:18.571,994.71,994.66,-5.08,-2.98,0.00,-0.49,0.80,9.67,0.00,-0.00,0.00,0.00
2026-06-27 11:02:18.572,994.71,994.66,-5.08,-2.98,0.00,-0.49,0.83,9.65,0.00,-0.00,0.00,0.00
2026-06-27 11:02:18.574,994.71,994.66,-5.08,-2.98,0.00,-0.49,0.83,9.65,0.00,-0.00,0.00,0.00
2026-06-27 11:02:18.580,994.71,994.66,-5.08,-2.98,0.00,-0.49,0.83,9.65,0.00,-0.00,0.00,0.00
2026-06-27 11:02:18.582,994.71,994.66,-5.08,-2.98,0.00,-0.49,0.81,9.69,0.00,-0.00,0.00,0.00
2026-06-27 11:02:18.583,994.71,994.66,-5.08,-2.98,0.00,-0.49,0.81,9.69,0.00,-0.00,0.00,0.00
2026-06-27 11:02:18.587,994.71,994.66,-5.08,-2.98,0.00,-0.49,0.81,9.69,0.00,-0.00,0.00,0.00
2026-06-27 11:02:18.731,994.69,994.67,-2.08,-1.91,0.00,-0.49,0.83,9.66,-0.00,0.00,0.00,0.00
2026-06-27 11:02:18.733,994.69,994.67,-2.08,-1.91,0.00,-0.49,0.82,9.69,-0.00,0.00,0.00,0.00
2026-06-27 11:02:18.735,994.69,994.67,-2.08,-1.91,0.00,-0.49,0.82,9.69,-0.00,0.00,0.00,0.00
2026-06-27 11:02:18.740,994.69,994.67,-2.08,-1.91,0.00,-0.49,0.82,9.69,-0.00,0.00,0.00,0.00
2026-06-27 11:02:18.742,994.69,994.67,-2.08,-1.91,0.00,-0.49,0.80,9.68,-0.00,0.00,0.00,0.00
2026-06-27 11:02:18.744,994.69,994.67,-2.08,-1.91,0.00,-0.49,0.80,9.68,-0.00,0.00,0.00,0.00
2026-06-27 11:02:18.749,994.69,994.67,-2.08,-1.91,0.00,-0.49,0.80,9.68,-0.00,0.00,0.00,0.00
2026-06-27 11:02:18.751,994.69,994.67,-2.08,-1.91,0.00,-0.50,0.81,9.68,0.00,0.00,-0.00,0.00
2026-06-27 11:02:18.755,994.69,994.67,-2.08,-1.91,0.00,-0.50,0.81,9.68,0.00,0.00,-0.00,0.00
2026-06-27 11:02:18.760,994.69,994.67,-2.08,-1.91,0.00,-0.50,0.81,9.68,0.00,0.00,-0.00,0.00
2026-06-27 11:02:18.762,994.69,994.67,-2.08,-1.91,0.00,-0.48,0.84,9.70,0.00,0.00,0.00,0.00
2026-06-27 11:02:18.764,994.69,994.67,-2.08,-1.91,0.00,-0.48,0.84,9.70,0.00,0.00,0.00,0.00
2026-06-27 11:02:18.907,994.72,994.68,-4.11,-2.68,0.00,-0.52,0.82,9.68,0.00,0.00,0.00,0.00
2026-06-27 11:02:18.911,994.72,994.68,-4.11,-2.68,0.00,-0.52,0.82,9.68,0.00,0.00,0.00,0.00
2026-06-27 11:02:18.913,994.72,994.68,-4.11,-2.68,0.00,-0.50,0.81,9.68,0.00,0.00,0.00,0.00
2026-06-27 11:02:18.915,994.72,994.68,-4.11,-2.68,0.00,-0.50,0.81,9.68,0.00,0.00,0.00,0.00
2026-06-27 11:02:18.921,994.72,994.68,-4.11,-2.68,0.00,-0.50,0.81,9.68,0.00,0.00,0.00,0.00
2026-06-27 11:02:18.922,994.72,994.68,-4.11,-2.68,0.00,-0.51,0.82,9.67,0.00,0.01,0.00,0.00
2026-06-27 11:02:18.924,994.72,994.68,-4.11,-2.68,0.00,-0.51,0.82,9.67,0.00,0.01,0.00,0.00
2026-06-27 11:02:18.929,994.72,994.68,-4.11,-2.68,0.00,-0.51,0.82,9.67,0.00,0.01,0.00,0.00
2026-06-27 11:02:18.932,994.72,994.68,-4.11,-2.68,0.00,-0.51,0.82,9.67,0.00,0.01,0.00,0.00
2026-06-27 11:02:18.933,994.72,994.68,-4.11,-2.68,0.00,-0.52,0.83,9.66,0.00,0.01,0.00,0.00
2026-06-27 11:02:18.935,994.72,994.68,-4.11,-2.68,0.00,-0.52,0.83,9.66,0.00,0.01,0.00,0.00
2026-06-27 11:02:18.941,994.72,994.68,-4.11,-2.68,0.00,-0.52,0.83,9.66,0.00,0.01,0.00,0.00
2026-06-27 11:02:19.082,994.70,994.68,-2.42,-2.06,0.00,-0.52,0.82,9.68,-0.00,-0.00,-0.00,0.00
2026-06-27 11:02:19.084,994.70,994.68,-2.42,-2.06,0.00,-0.52,0.84,9.68,-0.00,-0.00,-0.00,0.00
2026-06-27 11:02:19.087,994.70,994.68,-2.42,-2.06,0.00,-0.52,0.84,9.68,-0.00,-0.00,-0.00,0.00
2026-06-27 11:02:19.092,994.70,994.68,-2.42,-2.06,0.00,-0.52,0.84,9.68,0.00,-0.00,-0.00,0.00
2026-06-27 11:02:19.093,994.70,994.68,-2.42,-2.06,0.00,-0.51,0.83,9.67,0.00,-0.00,-0.00,0.00
2026-06-27 11:02:19.095,994.70,994.68,-2.42,-2.06,0.00,-0.51,0.83,9.67,0.00,-0.00,-0.00,0.00
2026-06-27 11:02:19.101,994.70,994.68,-2.42,-2.06,0.00,-0.51,0.83,9.67,0.00,-0.00,-0.00,0.00
2026-06-27 11:02:19.102,994.70,994.68,-2.42,-2.06,0.00,-0.52,0.86,9.68,-0.00,-0.00,0.00,0.00
2026-06-27 11:02:19.104,994.70,994.68,-2.42,-2.06,0.00,-0.52,0.86,9.68,-0.00,-0.00,0.00,0.00
2026-06-27 11:02:19.107,994.70,994.68,-2.42,-2.06,0.00,-0.52,0.86,9.68,-0.00,-0.00,0.00,0.00
2026-06-27 11:02:19.112,994.70,994.68,-2.42,-2.06,0.00,-0.52,0.86,9.68,0.00,-0.01,-0.00,0.00
2026-06-27 11:02:19.114,994.70,994.68,-2.42,-2.06,0.00,-0.52,0.85,9.65,0.00,-0.01,-0.00,0.00
2026-06-27 11:02:19.117,994.70,994.68,-2.42,-2.06,0.00,-0.52,0.85,9.65,0.00,-0.01,-0.00,0.00
2026-06-27 11:02:19.262,994.69,994.67,-2.58,-2.13,0.00,-0.64,0.88,9.67,-0.00,-0.02,-0.00,0.00
2026-06-27 11:02:19.263,994.69,994.67,-2.58,-2.13,0.00,-0.60,0.84,9.65,-0.01,-0.02,-0.00,0.00
2026-06-27 11:02:19.265,994.69,994.67,-2.58,-2.13,0.00,-0.60,0.84,9.65,-0.01,-0.02,-0.00,0.00
2026-06-27 11:02:19.272,994.69,994.67,-2.58,-2.13,0.00,-0.60,0.84,9.65,-0.01,-0.02,-0.00,0.00
2026-06-27 11:02:19.277,994.69,994.67,-2.58,-2.13,0.00,-0.62,0.85,9.70,-0.01,-0.02,-0.00,0.00
2026-06-27 11:02:19.282,994.69,994.67,-2.58,-2.13,0.00,-0.62,0.85,9.70,-0.01,-0.03,-0.00,0.00
2026-06-27 11:02:19.284,994.69,994.67,-2.58,-2.13,0.00,-0.63,0.87,9.71,-0.01,-0.03,-0.00,0.00
2026-06-27 11:02:19.286,994.69,994.67,-2.58,-2.13,0.00,-0.63,0.87,9.71,-0.01,-0.03,-0.00,0.00
2026-06-27 11:02:19.292,994.69,994.67,-2.58,-2.13,0.00,-0.63,0.87,9.71,-0.01,-0.03,-0.00,0.00
2026-06-27 11:02:19.432,994.70,994.67,-3.18,-2.36,0.00,-0.40,1.11,9.65,-0.01,-0.08,0.00,0.00
2026-06-27 11:02:19.434,994.70,994.67,-3.18,-2.36,0.00,-0.42,1.07,9.71,-0.01,-0.08,0.00,0.00
2026-06-27 11:02:19.436,994.70,994.67,-3.18,-2.36,0.00,-0.42,1.07,9.71,-0.01,-0.08,0.00,0.00
2026-06-27 11:02:19.442,994.70,994.67,-3.18,-2.36,0.00,-0.42,1.07,9.71,-0.01,-0.08,0.00,0.00
2026-06-27 11:02:19.444,994.70,994.67,-3.18,-2.36,0.00,-0.29,1.02,9.67,-0.01,-0.08,0.00,0.00
2026-06-27 11:02:19.446,994.70,994.67,-3.18,-2.36,0.00,-0.29,1.02,9.67,-0.01,-0.08,0.00,0.00
2026-06-27 11:02:19.450,994.70,994.67,-3.18,-2.36,0.00,-0.29,1.02,9.67,-0.01,-0.08,0.00,0.00
2026-06-27 11:02:19.453,994.70,994.67,-3.18,-2.36,0.00,-0.29,1.02,9.67,-0.01,-0.07,0.01,0.00
2026-06-27 11:02:19.455,994.70,994.67,-3.18,-2.36,0.00,-0.23,0.99,9.65,-0.01,-0.07,0.01,0.00
2026-06-27 11:02:19.457,994.70,994.67,-3.18,-2.36,0.00,-0.23,0.99,9.65,-0.01,-0.07,0.01,0.00
2026-06-27 11:02:19.462,994.70,994.67,-3.18,-2.36,0.00,-0.23,0.99,9.65,-0.01,-0.07,0.01,0.00
2026-06-27 11:02:19.464,994.70,994.67,-3.18,-2.36,0.00,-0.21,0.90,9.67,-0.01,-0.07,0.00,0.00
2026-06-27 11:02:19.465,994.70,994.67,-3.18,-2.36,0.00,-0.21,0.90,9.67,-0.01,-0.07,0.00,0.00
2026-06-27 11:02:19.604,994.71,994.68,-3.18,-2.36,0.00,-0.29,0.87,9.65,-0.01,-0.07,-0.01,0.00
2026-06-27 11:02:19.607,994.71,994.68,-3.18,-2.36,0.00,-0.29,0.87,9.65,-0.01,-0.07,-0.01,0.00
2026-06-27 11:02:19.613,994.71,994.68,-3.18,-2.36,0.00,-0.29,0.87,9.65,-0.01,-0.07,-0.01,0.00
2026-06-27 11:02:19.615,994.71,994.68,-3.18,-2.36,0.00,-0.20,0.91,9.70,-0.01,-0.07,-0.00,0.00
2026-06-27 11:02:19.619,994.71,994.68,-3.18,-2.36,0.00,-0.20,0.91,9.70,-0.01,-0.07,-0.00,0.00
2026-06-27 11:02:19.623,994.71,994.68,-3.18,-2.36,0.00,-0.20,0.91,9.70,-0.01,-0.07,0.00,0.00
2026-06-27 11:02:19.624,994.71,994.68,-3.18,-2.36,0.00,-0.22,0.89,9.70,-0.01,-0.07,0.00,0.00
2026-06-27 11:02:19.626,994.71,994.68,-3.18,-2.36,0.00,-0.22,0.89,9.70,-0.01,-0.07,0.00,0.00
2026-06-27 11:02:19.630,994.71,994.68,-3.18,-2.36,0.00,-0.22,0.89,9.70,-0.01,-0.07,0.00,0.00
2026-06-27 11:02:19.633,994.71,994.68,-3.18,-2.36,0.00,-0.22,0.89,9.70,-0.01,-0.08,0.00,0.00
2026-06-27 11:02:19.635,994.71,994.68,-3.18,-2.36,0.00,-0.25,0.90,9.69,-0.01,-0.08,0.00,0.00
2026-06-27 11:02:19.636,994.71,994.68,-3.18,-2.36,0.00,-0.25,0.90,9.69,-0.01,-0.08,0.00,0.00
2026-06-27 11:02:19.640,994.71,994.68,-3.18,-2.36,0.00,-0.25,0.90,9.69,-0.01,-0.08,0.00,0.00
2026-06-27 11:02:19.783,994.69,994.67,-2.11,-1.92,0.00,-0.07,0.77,9.74,-0.01,-0.06,0.00,0.00
2026-06-27 11:02:19.785,994.69,994.67,-2.11,-1.92,0.00,-0.17,0.77,9.63,-0.01,-0.06,0.00,0.00
2026-06-27 11:02:19.787,994.69,994.67,-2.11,-1.92,0.00,-0.17,0.77,9.63,-0.01,-0.06,0.00,0.00
2026-06-27 11:02:19.793,994.69,994.67,-2.11,-1.92,0.00,-0.17,0.77,9.63,-0.01,-0.06,0.00,0.00
2026-06-27 11:02:19.795,994.69,994.67,-2.11,-1.92,0.00,-0.12,0.87,9.66,-0.01,-0.05,0.00,0.00
2026-06-27 11:02:19.796,994.69,994.67,-2.11,-1.92,0.00,-0.12,0.87,9.66,-0.01,-0.05,0.00,0.00
2026-06-27 11:02:19.801,994.69,994.67,-2.11,-1.92,0.00,-0.12,0.87,9.66,-0.01,-0.05,0.00,0.00
2026-06-27 11:02:19.804,994.69,994.67,-2.11,-1.92,0.00,-0.12,0.87,9.66,-0.01,-0.06,0.00,0.00
2026-06-27 11:02:19.806,994.69,994.67,-2.11,-1.92,0.00,-0.06,0.85,9.74,-0.01,-0.06,0.00,0.00
2026-06-27 11:02:19.809,994.69,994.67,-2.11,-1.92,0.00,-0.06,0.85,9.74,-0.01,-0.06,0.00,0.00
2026-06-27 11:02:19.815,994.69,994.67,-2.11,-1.92,0.00,-0.06,0.85,9.74,-0.01,-0.05,0.00,0.00
2026-06-27 11:02:19.956,994.70,994.68,-2.67,-2.16,0.00,-0.04,0.73,9.72,0.00,0.00,-0.00,0.00
2026-06-27 11:02:19.960,994.70,994.68,-2.67,-2.16,0.00,-0.04,0.73,9.72,0.00,0.00,-0.00,0.00
2026-06-27 11:02:19.964,994.70,994.68,-2.67,-2.16,0.00,-0.04,0.73,9.72,0.00,0.01,-0.01,0.00
2026-06-27 11:02:19.966,994.70,994.68,-2.67,-2.16,0.00,0.01,0.76,9.68,0.00,0.01,-0.01,0.00
2026-06-27 11:02:19.967,994.70,994.68,-2.67,-2.16,0.00,0.01,0.76,9.68,0.00,0.01,-0.01,0.00
2026-06-27 11:02:19.973,994.70,994.68,-2.67,-2.16,0.00,0.01,0.76,9.68,0.00,0.01,-0.01,0.00
2026-06-27 11:02:19.975,994.70,994.68,-2.67,-2.16,0.00,-0.02,0.74,9.67,0.00,0.01,-0.00,0.00
2026-06-27 11:02:19.977,994.70,994.68,-2.67,-2.16,0.00,-0.02,0.74,9.67,0.00,0.01,-0.00,0.00
2026-06-27 11:02:19.982,994.70,994.68,-2.67,-2.16,0.00,-0.02,0.74,9.67,0.00,0.01,-0.00,0.00
2026-06-27 11:02:19.986,994.70,994.68,-2.67,-2.16,0.00,-0.06,0.75,9.70,0.00,0.02,-0.00,0.00
2026-06-27 11:02:19.993,994.70,994.68,-2.67,-2.16,0.00,-0.06,0.75,9.70,0.00,0.02,-0.00,0.00
2026-06-27 11:02:20.135,994.70,994.67,-2.47,-2.08,0.00,-0.24,0.75,9.73,0.01,0.05,0.01,0.00
2026-06-27 11:02:20.136,994.70,994.67,-2.47,-2.08,0.00,-0.24,0.75,9.73,0.01,0.05,0.01,0.00
2026-06-27 11:02:20.138,994.70,994.67,-2.47,-2.08,0.00,-0.24,0.75,9.73,0.01,0.05,0.01,0.00
2026-06-27 11:02:20.144,994.70,994.67,-2.47,-2.08,0.00,-0.24,0.75,9.73,0.01,0.05,0.01,0.00
2026-06-27 11:02:20.145,994.70,994.67,-2.47,-2.08,0.00,-0.24,0.79,9.68,0.01,0.05,0.00,0.00
2026-06-27 11:02:20.147,994.70,994.67,-2.47,-2.08,0.00,-0.24,0.79,9.68,0.01,0.05,0.00,0.00
2026-06-27 11:02:20.148,994.70,994.67,-2.47,-2.08,0.00,-0.24,0.79,9.68,0.01,0.05,0.00,0.00
2026-06-27 11:02:20.154,994.70,994.67,-2.47,-2.08,0.00,-0.24,0.79,9.68,0.01,0.05,0.00,0.00
2026-06-27 11:02:20.155,994.70,994.67,-2.47,-2.08,0.00,-0.28,0.81,9.70,0.01,0.05,-0.00,0.00
2026-06-27 11:02:20.157,994.70,994.67,-2.47,-2.08,0.00,-0.28,0.81,9.70,0.01,0.05,-0.00,0.00
2026-06-27 11:02:20.161,994.70,994.67,-2.47,-2.08,0.00,-0.28,0.81,9.70,0.01,0.05,-0.00,0.00
2026-06-27 11:02:20.164,994.70,994.67,-2.47,-2.08,0.00,-0.28,0.81,9.70,0.00,0.05,-0.00,0.00
2026-06-27 11:02:20.166,994.70,994.67,-2.47,-2.08,0.00,-0.33,0.80,9.73,0.00,0.05,-0.00,0.00
2026-06-27 11:02:20.175,994.70,994.67,-2.47,-2.08,0.00,-0.33,0.80,9.73,0.01,0.05,-0.00,0.00
2026-06-27 11:02:20.316,994.71,994.68,-2.54,-2.11,0.00,-0.28,0.87,9.68,-0.00,-0.00,0.00,0.00
2026-06-27 11:02:20.318,994.71,994.68,-2.54,-2.11,0.00,-0.28,0.87,9.68,-0.00,-0.00,0.00,0.00
2026-06-27 11:02:20.322,994.71,994.68,-2.54,-2.11,0.00,-0.28,0.87,9.68,-0.00,-0.00,0.00,0.00
2026-06-27 11:02:20.325,994.71,994.68,-2.54,-2.11,0.00,-0.28,0.87,9.68,0.00,-0.00,-0.00,0.00
2026-06-27 11:02:20.326,994.71,994.68,-2.54,-2.11,0.00,-0.26,0.89,9.70,0.00,-0.00,-0.00,0.00
2026-06-27 11:02:20.328,994.71,994.68,-2.54,-2.11,0.00,-0.26,0.89,9.70,0.00,-0.00,-0.00,0.00
2026-06-27 11:02:20.333,994.71,994.68,-2.54,-2.11,0.00,-0.26,0.89,9.70,0.00,-0.00,-0.00,0.00
2026-06-27 11:02:20.335,994.71,994.68,-2.54,-2.11,0.00,-0.37,0.85,9.68,-0.00,-0.01,-0.00,0.00
2026-06-27 11:02:20.338,994.71,994.68,-2.54,-2.11,0.00,-0.37,0.85,9.68,-0.00,-0.01,-0.00,0.00
2026-06-27 11:02:20.344,994.71,994.68,-2.54,-2.11,0.00,-0.37,0.85,9.68,-0.00,-0.01,-0.00,0.00
2026-06-27 11:02:20.346,994.71,994.68,-2.54,-2.11,0.00,-0.35,0.82,9.68,-0.00,-0.01,-0.00,0.00
2026-06-27 11:02:20.347,994.71,994.68,-2.54,-2.11,0.00,-0.35,0.82,9.68,-0.00,-0.01,-0.00,0.00
2026-06-27 11:02:20.350,994.71,994.68,-2.54,-2.11,0.00,-0.35,0.82,9.68,-0.00,-0.01,-0.00,0.00
2026-06-27 11:02:20.354,994.71,994.68,-2.54,-2.11,0.00,-0.35,0.82,9.68,-0.00,-0.01,-0.00,0.00
2026-06-27 11:02:20.496,994.72,994.67,-5.03,-2.97,0.00,-0.29,0.71,9.70,-0.01,-0.04,-0.00,0.00
2026-06-27 11:02:20.502,994.72,994.67,-5.03,-2.97,0.00,-0.29,0.71,9.70,-0.01,-0.04,-0.00,0.00
2026-06-27 11:02:20.506,994.72,994.67,-5.03,-2.97,0.00,-0.30,0.68,9.68,-0.01,-0.04,-0.01,0.00
2026-06-27 11:02:20.507,994.72,994.67,-5.03,-2.97,0.00,-0.30,0.68,9.68,-0.01,-0.04,-0.01,0.00
2026-06-27 11:02:20.511,994.72,994.67,-5.03,-2.97,0.00,-0.30,0.68,9.68,-0.01,-0.04,-0.01,0.00
2026-06-27 11:02:20.515,994.72,994.67,-5.03,-2.97,0.00,-0.30,0.68,9.68,-0.00,-0.04,-0.01,0.00
2026-06-27 11:02:20.517,994.72,994.67,-5.03,-2.97,0.00,-0.27,0.74,9.71,-0.00,-0.04,-0.01,0.00
2026-06-27 11:02:20.518,994.72,994.67,-5.03,-2.97,0.00,-0.27,0.74,9.71,-0.00,-0.04,-0.01,0.00
2026-06-27 11:02:20.522,994.72,994.67,-5.03,-2.97,0.00,-0.27,0.74,9.71,-0.00,-0.04,-0.01,0.00
2026-06-27 11:02:20.525,994.72,994.67,-5.03,-2.97,0.00,-0.27,0.74,9.71,-0.01,-0.04,-0.01,0.00
2026-06-27 11:02:20.527,994.72,994.67,-5.03,-2.97,0.00,-0.27,0.77,9.71,-0.01,-0.04,-0.01,0.00
2026-06-27 11:02:20.528,994.72,994.67,-5.03,-2.97,0.00,-0.27,0.77,9.71,-0.01,-0.04,-0.01,0.00
2026-06-27 11:02:20.535,994.72,994.67,-5.03,-2.97,0.00,-0.27,0.77,9.71,-0.01,-0.04,-0.01,0.00
2026-06-27 11:02:20.675,994.71,994.68,-3.00,-2.29,0.00,-0.10,0.76,9.75,-0.01,-0.05,0.01,0.00
2026-06-27 11:02:20.677,994.71,994.68,-3.00,-2.29,0.00,-0.08,0.77,9.71,-0.01,-0.05,0.01,0.00
2026-06-27 11:02:20.678,994.71,994.68,-3.00,-2.29,0.00,-0.08,0.77,9.71,-0.01,-0.05,0.01,0.00
2026-06-27 11:02:20.682,994.71,994.68,-3.00,-2.29,0.00,-0.08,0.77,9.71,-0.01,-0.05,0.01,0.00
2026-06-27 11:02:20.685,994.71,994.68,-3.00,-2.29,0.00,-0.08,0.77,9.71,-0.01,-0.05,-0.00,0.00
2026-06-27 11:02:20.687,994.71,994.68,-3.00,-2.29,0.00,-0.06,0.76,9.68,-0.01,-0.05,-0.00,0.00
2026-06-27 11:02:20.688,994.71,994.68,-3.00,-2.29,0.00,-0.06,0.76,9.68,-0.01,-0.05,-0.00,0.00
2026-06-27 11:02:20.692,994.71,994.68,-3.00,-2.29,0.00,-0.06,0.76,9.68,-0.01,-0.05,-0.00,0.00
2026-06-27 11:02:20.695,994.71,994.68,-3.00,-2.29,0.00,-0.06,0.76,9.68,-0.01,-0.05,-0.00,0.00
2026-06-27 11:02:20.697,994.71,994.68,-3.00,-2.29,0.00,-0.17,0.79,9.67,-0.01,-0.05,-0.00,0.00
2026-06-27 11:02:20.698,994.71,994.68,-3.00,-2.29,0.00,-0.17,0.79,9.67,-0.01,-0.05,-0.00,0.00
2026-06-27 11:02:20.702,994.71,994.68,-3.00,-2.29,0.00,-0.17,0.79,9.67,-0.01,-0.05,-0.00,0.00
2026-06-27 11:02:20.706,994.71,994.68,-3.00,-2.29,0.00,-0.17,0.79,9.67,-0.01,-0.05,0.00,0.00
2026-06-27 11:02:20.707,994.71,994.68,-3.00,-2.29,0.00,-0.17,0.79,9.68,-0.01,-0.05,0.00,0.00
2026-06-27 11:02:20.709,994.71,994.68,-3.00,-2.29,0.00,-0.17,0.79,9.68,-0.01,-0.05,0.00,0.00
2026-06-27 11:02:20.715,994.71,994.68,-3.00,-2.29,0.00,-0.17,0.79,9.68,-0.01,-0.05,0.00,0.00
2026-06-27 11:02:20.856,994.71,994.68,-3.34,-2.42,0.00,-0.06,0.75,9.70,-0.01,-0.06,0.01,0.00
2026-06-27 11:02:20.858,994.71,994.68,-3.34,-2.42,0.00,-0.06,0.75,9.70,-0.01,-0.06,0.01,0.00
2026-06-27 11:02:20.860,994.71,994.68,-3.34,-2.42,0.00,-0.06,0.75,9.70,-0.01,-0.06,0.01,0.00
2026-06-27 11:02:20.865,994.71,994.68,-3.34,-2.42,0.00,-0.06,0.75,9.70,-0.01,-0.06,0.01,0.00
2026-06-27 11:02:20.868,994.71,994.68,-3.34,-2.42,0.00,0.00,0.76,9.71,-0.01,-0.06,0.00,0.00
2026-06-27 11:02:20.869,994.71,994.68,-3.34,-2.42,0.00,0.00,0.76,9.71,-0.01,-0.06,0.00,0.00
2026-06-27 11:02:20.875,994.71,994.68,-3.34,-2.42,0.00,0.00,0.76,9.71,-0.01,-0.06,0.00,0.00
2026-06-27 11:02:20.877,994.71,994.68,-3.34,-2.42,0.00,-0.04,0.77,9.70,-0.01,-0.06,0.00,0.00
2026-06-27 11:02:20.879,994.71,994.68,-3.34,-2.42,0.00,-0.04,0.77,9.70,-0.01,-0.06,0.00,0.00
2026-06-27 11:02:20.884,994.71,994.68,-3.34,-2.42,0.00,-0.04,0.77,9.70,-0.01,-0.06,0.00,0.00
2026-06-27 11:02:20.887,994.71,994.68,-3.34,-2.42,0.00,-0.01,0.75,9.69,-0.01,-0.05,0.00,0.00
2026-06-27 11:02:20.892,994.71,994.68,-3.34,-2.42,0.00,-0.01,0.75,9.69,-0.01,-0.05,0.00,0.00
2026-06-27 11:02:21.037,994.72,994.69,-3.67,-2.54,0.00,0.00,0.83,9.68,-0.01,-0.04,0.00,0.00
2026-06-27 11:02:21.038,994.72,994.69,-3.67,-2.54,0.00,0.00,0.83,9.68,-0.01,-0.04,0.00,0.00
2026-06-27 11:02:21.040,994.72,994.69,-3.67,-2.54,0.00,0.00,0.83,9.68,-0.01,-0.04,0.00,0.00
2026-06-27 11:02:21.046,994.72,994.69,-3.67,-2.54,0.00,0.00,0.83,9.68,-0.01,-0.04,0.00,0.00
2026-06-27 11:02:21.047,994.72,994.69,-3.67,-2.54,0.00,0.04,0.77,9.67,-0.01,-0.04,0.00,0.00
2026-06-27 11:02:21.049,994.72,994.69,-3.67,-2.54,0.00,0.04,0.77,9.67,-0.01,-0.04,0.00,0.00
2026-06-27 11:02:21.053,994.72,994.69,-3.67,-2.54,0.00,0.04,0.77,9.67,-0.01,-0.04,0.00,0.00
2026-06-27 11:02:21.056,994.72,994.69,-3.67,-2.54,0.00,0.04,0.77,9.67,-0.01,-0.04,0.00,0.00
2026-06-27 11:02:21.058,994.72,994.69,-3.67,-2.54,0.00,0.06,0.76,9.71,-0.01,-0.04,0.00,0.00
2026-06-27 11:02:21.060,994.72,994.69,-3.67,-2.54,0.00,0.06,0.76,9.71,-0.01,-0.04,0.00,0.00
2026-06-27 11:02:21.064,994.72,994.69,-3.67,-2.54,0.00,0.06,0.76,9.71,-0.01,-0.04,0.00,0.00
2026-06-27 11:02:21.066,994.72,994.69,-3.67,-2.54,0.00,0.06,0.76,9.71,-0.01,-0.04,0.00,0.00
2026-06-27 11:02:21.068,994.72,994.69,-3.67,-2.54,0.00,0.09,0.79,9.69,-0.01,-0.04,0.00,0.00
2026-06-27 11:02:21.213,994.70,994.69,-1.66,-1.71,0.00,0.07,0.80,9.69,-0.01,-0.03,-0.01,0.00
2026-06-27 11:02:21.217,994.70,994.69,-1.66,-1.71,0.00,0.07,0.80,9.69,-0.01,-0.03,-0.01,0.00
2026-06-27 11:02:21.218,994.70,994.69,-1.66,-1.71,0.00,0.07,0.83,9.68,-0.01,-0.03,-0.01,0.00
2026-06-27 11:02:21.220,994.70,994.69,-1.66,-1.71,0.00,0.07,0.83,9.68,-0.01,-0.03,-0.01,0.00
2026-06-27 11:02:21.226,994.70,994.69,-1.66,-1.71,0.00,0.07,0.83,9.68,-0.01,-0.03,-0.01,0.00
2026-06-27 11:02:21.228,994.70,994.69,-1.66,-1.71,0.00,0.12,0.86,9.69,-0.00,-0.03,-0.01,0.00
2026-06-27 11:02:21.229,994.70,994.69,-1.66,-1.71,0.00,0.12,0.86,9.69,-0.00,-0.03,-0.01,0.00
2026-06-27 11:02:21.233,994.70,994.69,-1.66,-1.71,0.00,0.12,0.86,9.69,-0.00,-0.03,-0.01,0.00
2026-06-27 11:02:21.237,994.70,994.69,-1.66,-1.71,0.00,0.12,0.86,9.69,-0.00,-0.03,-0.01,0.00
2026-06-27 11:02:21.238,994.70,994.69,-1.66,-1.71,0.00,0.14,0.80,9.70,-0.00,-0.03,-0.01,0.00
2026-06-27 11:02:21.240,994.70,994.69,-1.66,-1.71,0.00,0.14,0.80,9.70,-0.00,-0.03,-0.01,0.00
2026-06-27 11:02:21.245,994.70,994.69,-1.66,-1.71,0.00,0.14,0.80,9.70,-0.00,-0.03,-0.01,0.00
2026-06-27 11:02:21.387,994.73,994.69,-4.38,-2.77,0.00,0.12,0.56,9.74,-0.00,-0.02,0.00,0.00
2026-06-27 11:02:21.389,994.73,994.69,-4.38,-2.77,0.00,0.13,0.56,9.71,-0.00,-0.02,0.00,0.00
2026-06-27 11:02:21.392,994.73,994.69,-4.38,-2.77,0.00,0.13,0.56,9.71,-0.00,-0.02,0.00,0.00
2026-06-27 11:02:21.397,994.73,994.69,-4.38,-2.77,0.00,0.13,0.56,9.71,-0.00,-0.02,0.00,0.00
2026-06-27 11:02:21.399,994.73,994.69,-4.38,-2.77,0.00,0.18,0.57,9.73,-0.00,-0.02,0.00,0.00
2026-06-27 11:02:21.400,994.73,994.69,-4.38,-2.77,0.00,0.18,0.57,9.73,-0.00,-0.02,0.00,0.00
2026-06-27 11:02:21.406,994.73,994.69,-4.38,-2.77,0.00,0.18,0.57,9.73,-0.00,-0.02,0.00,0.00
2026-06-27 11:02:21.408,994.73,994.69,-4.38,-2.77,0.00,0.19,0.61,9.68,-0.00,-0.01,-0.00,0.00
2026-06-27 11:02:21.410,994.73,994.69,-4.38,-2.77,0.00,0.19,0.61,9.68,-0.00,-0.01,-0.00,0.00
2026-06-27 11:02:21.413,994.73,994.69,-4.38,-2.77,0.00,0.19,0.61,9.68,-0.00,-0.01,-0.00,0.00
2026-06-27 11:02:21.417,994.73,994.69,-4.38,-2.77,0.00,0.19,0.61,9.68,-0.00,-0.01,-0.00,0.00
2026-06-27 11:02:21.419,994.73,994.69,-4.38,-2.77,0.00,0.15,0.65,9.71,-0.00,-0.01,-0.00,0.00
2026-06-27 11:02:21.420,994.73,994.69,-4.38,-2.77,0.00,0.15,0.65,9.71,-0.00,-0.01,-0.00,0.00
2026-06-27 11:02:21.427,994.73,994.69,-4.38,-2.77,0.00,0.15,0.65,9.71,-0.00,-0.01,-0.00,0.00
2026-06-27 11:02:21.567,994.70,994.66,-4.20,-2.71,0.00,-0.64,0.46,9.70,-0.01,-0.05,0.04,0.00
2026-06-27 11:02:21.569,994.70,994.66,-4.20,-2.71,0.00,-0.05,0.53,9.79,-0.01,-0.04,0.03,0.00
2026-06-27 11:02:21.571,994.70,994.66,-4.20,-2.71,0.00,-0.05,0.53,9.79,-0.01,-0.04,0.03,0.00
2026-06-27 11:02:21.577,994.70,994.66,-4.20,-2.71,0.00,-0.05,0.53,9.79,-0.01,-0.04,0.03,0.00
2026-06-27 11:02:21.579,994.70,994.66,-4.20,-2.71,0.00,0.39,0.58,9.85,-0.01,-0.05,0.02,0.00
2026-06-27 11:02:21.586,994.70,994.66,-4.20,-2.71,0.00,0.39,0.58,9.85,-0.01,-0.05,0.02,0.00
2026-06-27 11:02:21.588,994.70,994.66,-4.20,-2.71,0.00,0.37,0.67,9.61,-0.01,-0.06,0.00,0.00
2026-06-27 11:02:21.590,994.70,994.66,-4.20,-2.71,0.00,0.37,0.67,9.61,-0.01,-0.06,0.00,0.00
2026-06-27 11:02:21.597,994.70,994.66,-4.20,-2.71,0.00,0.37,0.67,9.61,-0.01,-0.06,0.00,0.00
2026-06-27 11:02:21.599,994.70,994.66,-4.20,-2.71,0.00,0.16,0.80,9.63,-0.01,-0.07,-0.01,0.00
2026-06-27 11:02:21.743,994.71,994.68,-2.37,-2.04,0.00,0.21,0.77,9.74,-0.01,-0.04,-0.01,0.00
2026-06-27 11:02:21.748,994.71,994.68,-2.37,-2.04,0.00,0.21,0.77,9.74,-0.01,-0.03,-0.01,0.00
2026-06-27 11:02:21.749,994.71,994.68,-2.37,-2.04,0.00,0.52,0.88,9.71,-0.01,-0.03,-0.01,0.00
2026-06-27 11:02:21.752,994.71,994.68,-2.37,-2.04,0.00,0.52,0.88,9.71,-0.01,-0.03,-0.01,0.00
2026-06-27 11:02:21.757,994.71,994.68,-2.37,-2.04,0.00,0.52,0.88,9.71,-0.01,-0.03,-0.01,0.00
2026-06-27 11:02:21.759,994.71,994.68,-2.37,-2.04,0.00,0.70,0.81,9.62,-0.01,-0.03,-0.00,0.00
2026-06-27 11:02:21.761,994.71,994.68,-2.37,-2.04,0.00,0.70,0.81,9.62,-0.01,-0.03,-0.00,0.00
2026-06-27 11:02:21.767,994.71,994.68,-2.37,-2.04,0.00,0.70,0.81,9.62,-0.01,-0.03,-0.00,0.00
2026-06-27 11:02:21.769,994.71,994.68,-2.37,-2.04,0.00,0.46,0.82,9.60,-0.00,-0.03,0.00,0.00
2026-06-27 11:02:21.772,994.71,994.68,-2.37,-2.04,0.00,0.46,0.82,9.60,-0.00,-0.03,0.00,0.00
2026-06-27 11:02:21.777,994.71,994.68,-2.37,-2.04,0.00,0.46,0.82,9.60,-0.00,-0.03,0.00,0.00
2026-06-27 11:02:21.921,994.70,994.67,-2.86,-2.24,0.00,0.48,0.74,9.67,0.00,0.02,-0.00,0.00
2026-06-27 11:02:21.927,994.70,994.67,-2.86,-2.24,0.00,0.48,0.74,9.67,0.00,0.02,-0.00,0.00
2026-06-27 11:02:21.929,994.70,994.67,-2.86,-2.24,0.00,0.46,0.80,9.70,0.00,0.02,-0.01,0.00
2026-06-27 11:02:21.930,994.70,994.67,-2.86,-2.24,0.00,0.46,0.80,9.70,0.00,0.02,-0.01,0.00
2026-06-27 11:02:21.932,994.70,994.67,-2.86,-2.24,0.00,0.46,0.80,9.70,0.00,0.02,-0.01,0.00
2026-06-27 11:02:21.938,994.70,994.67,-2.86,-2.24,0.00,0.46,0.80,9.70,0.00,0.02,-0.01,0.00
2026-06-27 11:02:21.939,994.70,994.67,-2.86,-2.24,0.00,0.18,0.75,9.64,0.00,0.02,-0.01,0.00
2026-06-27 11:02:21.941,994.70,994.67,-2.86,-2.24,0.00,0.18,0.75,9.64,0.00,0.02,-0.01,0.00
2026-06-27 11:02:21.945,994.70,994.67,-2.86,-2.24,0.00,0.18,0.75,9.64,0.00,0.02,-0.01,0.00
2026-06-27 11:02:21.949,994.70,994.67,-2.86,-2.24,0.00,0.18,0.75,9.64,0.00,0.02,-0.01,0.00
2026-06-27 11:02:21.950,994.70,994.67,-2.86,-2.24,0.00,0.12,0.77,9.71,0.00,0.02,-0.01,0.00
2026-06-27 11:02:21.952,994.70,994.67,-2.86,-2.24,0.00,0.12,0.77,9.71,0.00,0.02,-0.01,0.00
2026-06-27 11:02:21.957,994.70,994.67,-2.86,-2.24,0.00,0.12,0.77,9.71,0.00,0.02,-0.01,0.00
2026-06-27 11:02:22.098,994.70,994.68,-2.05,-1.90,0.00,0.31,0.77,9.65,0.00,0.03,-0.00,0.00
2026-06-27 11:02:22.100,994.70,994.68,-2.05,-1.90,0.00,0.39,0.72,9.60,0.00,0.03,-0.00,0.00
2026-06-27 11:02:22.102,994.70,994.68,-2.05,-1.90,0.00,0.39,0.72,9.60,0.00,0.03,-0.00,0.00
2026-06-27 11:02:22.108,994.70,994.68,-2.05,-1.90,0.00,0.39,0.72,9.60,0.00,0.03,-0.00,0.00
2026-06-27 11:02:22.110,994.70,994.68,-2.05,-1.90,0.00,0.24,0.72,9.66,0.00,0.03,0.00,0.00
2026-06-27 11:02:22.112,994.70,994.68,-2.05,-1.90,0.00,0.24,0.72,9.66,0.00,0.03,0.00,0.00
2026-06-27 11:02:22.116,994.70,994.68,-2.05,-1.90,0.00,0.24,0.72,9.66,0.00,0.03,0.00,0.00
2026-06-27 11:02:22.119,994.70,994.68,-2.05,-1.90,0.00,0.00,0.69,9.77,0.01,0.02,0.00,0.00
2026-06-27 11:02:22.121,994.70,994.68,-2.05,-1.90,0.00,0.00,0.69,9.77,0.01,0.02,0.00,0.00
2026-06-27 11:02:22.123,994.70,994.68,-2.05,-1.90,0.00,0.00,0.69,9.77,0.01,0.02,0.00,0.00
2026-06-27 11:02:22.128,994.70,994.68,-2.05,-1.90,0.00,0.00,0.69,9.77,0.00,0.02,0.00,0.00
2026-06-27 11:02:22.130,994.70,994.68,-2.05,-1.90,0.00,0.05,0.64,9.74,0.00,0.02,0.00,0.00
2026-06-27 11:02:22.132,994.70,994.68,-2.05,-1.90,0.00,0.05,0.64,9.74,0.00,0.02,0.00,0.00
2026-06-27 11:02:22.137,994.70,994.68,-2.05,-1.90,0.00,0.05,0.64,9.74,0.00,0.02,0.00,0.00
2026-06-27 11:02:22.280,994.71,994.66,-4.11,-2.68,0.00,0.10,0.70,9.69,0.00,0.03,-0.01,0.00
2026-06-27 11:02:22.282,994.71,994.66,-4.11,-2.68,0.00,0.10,0.70,9.69,0.00,0.03,-0.01,0.00
2026-06-27 11:02:22.288,994.71,994.66,-4.11,-2.68,0.00,0.10,0.70,9.69,0.00,0.03,-0.01,0.00
2026-06-27 11:02:22.290,994.71,994.66,-4.11,-2.68,0.00,0.09,0.72,9.70,0.01,0.03,-0.01,0.00
2026-06-27 11:02:22.291,994.71,994.66,-4.11,-2.68,0.00,0.09,0.72,9.70,0.01,0.03,-0.01,0.00
2026-06-27 11:02:22.293,994.71,994.66,-4.11,-2.68,0.00,0.09,0.72,9.70,0.01,0.03,-0.01,0.00
2026-06-27 11:02:22.298,994.71,994.66,-4.11,-2.68,0.00,0.09,0.72,9.70,0.01,0.03,-0.01,0.00
2026-06-27 11:02:22.300,994.71,994.66,-4.11,-2.68,0.00,0.15,0.78,9.70,0.00,0.04,-0.01,0.00
2026-06-27 11:02:22.302,994.71,994.66,-4.11,-2.68,0.00,0.15,0.78,9.70,0.00,0.04,-0.01,0.00
2026-06-27 11:02:22.306,994.71,994.66,-4.11,-2.68,0.00,0.15,0.78,9.70,0.00,0.04,-0.01,0.00
2026-06-27 11:02:22.309,994.71,994.66,-4.11,-2.68,0.00,0.15,0.78,9.70,0.00,0.04,-0.01,0.00
2026-06-27 11:02:22.311,994.71,994.66,-4.11,-2.68,0.00,0.23,0.72,9.67,0.00,0.04,-0.01,0.00
2026-06-27 11:02:22.313,994.71,994.66,-4.11,-2.68,0.00,0.23,0.72,9.67,0.00,0.04,-0.01,0.00
2026-06-27 11:02:22.318,994.71,994.66,-4.11,-2.68,0.00,0.23,0.72,9.67,0.00,0.04,-0.01,0.00
2026-06-27 11:02:22.460,994.69,994.69,0.04,0.25,0.00,0.04,0.77,9.71,0.00,0.02,-0.00,0.00
2026-06-27 11:02:22.462,994.69,994.69,0.04,0.25,0.00,0.04,0.77,9.71,0.00,0.02,-0.00,0.00
2026-06-27 11:02:22.463,994.69,994.69,0.04,0.25,0.00,0.04,0.77,9.71,0.00,0.02,-0.00,0.00
2026-06-27 11:02:22.469,994.69,994.69,0.04,0.25,0.00,0.04,0.77,9.71,0.00,0.02,-0.00,0.00
2026-06-27 11:02:22.471,994.69,994.69,0.04,0.25,0.00,0.12,0.76,9.73,0.00,0.02,-0.00,0.00
2026-06-27 11:02:22.475,994.69,994.69,0.04,0.25,0.00,0.12,0.76,9.73,0.00,0.02,-0.00,0.00
2026-06-27 11:02:22.479,994.69,994.69,0.04,0.25,0.00,0.12,0.76,9.73,0.01,0.03,-0.00,0.00
2026-06-27 11:02:22.481,994.69,994.69,0.04,0.25,0.00,0.17,0.81,9.66,0.01,0.03,-0.00,0.00
2026-06-27 11:02:22.483,994.69,994.69,0.04,0.25,0.00,0.17,0.81,9.66,0.01,0.03,-0.00,0.00
2026-06-27 11:02:22.489,994.69,994.69,0.04,0.25,0.00,0.17,0.81,9.66,0.01,0.03,-0.00,0.00
2026-06-27 11:02:22.491,994.69,994.69,0.04,0.25,0.00,0.12,0.83,9.62,0.00,0.03,-0.00,0.00
2026-06-27 11:02:22.493,994.69,994.69,0.04,0.25,0.00,0.12,0.83,9.62,0.00,0.03,-0.00,0.00
2026-06-27 11:02:22.497,994.69,994.69,0.04,0.25,0.00,0.12,0.83,9.62,0.00,0.03,-0.00,0.00
2026-06-27 11:02:22.640,994.70,994.66,-4.30,-2.74,0.00,0.04,0.78,9.69,0.00,0.04,-0.01,0.00
2026-06-27 11:02:22.642,994.70,994.66,-4.30,-2.74,0.00,0.04,0.78,9.69,0.00,0.04,-0.01,0.00
2026-06-27 11:02:22.646,994.70,994.66,-4.30,-2.74,0.00,0.04,0.78,9.69,0.00,0.04,-0.01,0.00
2026-06-27 11:02:22.650,994.70,994.66,-4.30,-2.74,0.00,0.04,0.78,9.69,0.00,0.03,-0.01,0.00
2026-06-27 11:02:22.651,994.70,994.66,-4.30,-2.74,0.00,0.05,0.77,9.70,0.00,0.03,-0.01,0.00
2026-06-27 11:02:22.653,994.70,994.66,-4.30,-2.74,0.00,0.05,0.77,9.70,0.00,0.03,-0.01,0.00
2026-06-27 11:02:22.659,994.70,994.66,-4.30,-2.74,0.00,0.05,0.77,9.70,0.00,0.03,-0.01,0.00
2026-06-27 11:02:22.661,994.70,994.66,-4.30,-2.74,0.00,0.00,0.77,9.68,-0.00,0.03,-0.01,0.00
2026-06-27 11:02:22.662,994.70,994.66,-4.30,-2.74,0.00,0.00,0.77,9.68,-0.00,0.03,-0.01,0.00
2026-06-27 11:02:22.664,994.70,994.66,-4.30,-2.74,0.00,0.00,0.77,9.68,-0.00,0.03,-0.01,0.00
2026-06-27 11:02:22.669,994.70,994.66,-4.30,-2.74,0.00,0.00,0.77,9.68,-0.00,0.03,-0.01,0.00
2026-06-27 11:02:22.675,994.70,994.66,-4.30,-2.74,0.00,-0.03,0.83,9.68,0.00,0.03,-0.01,0.00
2026-06-27 11:02:22.820,994.70,994.65,-4.54,-2.82,0.00,-0.08,0.74,9.68,-0.00,0.00,0.01,0.00
2026-06-27 11:02:22.822,994.70,994.65,-4.54,-2.82,0.00,-0.11,0.74,9.68,-0.00,0.00,0.01,0.00
2026-06-27 11:02:22.824,994.70,994.65,-4.54,-2.82,0.00,-0.11,0.74,9.68,-0.00,0.00,0.01,0.00
2026-06-27 11:02:22.830,994.70,994.65,-4.54,-2.82,0.00,-0.11,0.74,9.68,-0.00,0.00,0.01,0.00
2026-06-27 11:02:22.832,994.70,994.65,-4.54,-2.82,0.00,-0.11,0.74,9.71,-0.01,0.01,0.00,0.00
2026-06-27 11:02:22.833,994.70,994.65,-4.54,-2.82,0.00,-0.11,0.74,9.71,-0.01,0.01,0.00,0.00
2026-06-27 11:02:22.840,994.70,994.65,-4.54,-2.82,0.00,-0.11,0.74,9.71,-0.01,0.01,0.00,0.00
2026-06-27 11:02:22.842,994.70,994.65,-4.54,-2.82,0.00,-0.08,0.71,9.70,-0.00,-0.00,0.00,0.00
2026-06-27 11:02:22.844,994.70,994.65,-4.54,-2.82,0.00,-0.08,0.71,9.70,-0.00,-0.00,0.00,0.00
2026-06-27 11:02:22.850,994.70,994.65,-4.54,-2.82,0.00,-0.08,0.71,9.70,-0.00,-0.00,0.00,0.00
2026-06-27 11:02:22.856,994.70,994.65,-4.54,-2.82,0.00,-0.09,0.71,9.70,-0.00,0.00,0.00,0.00
2026-06-27 11:02:22.001,994.70,994.68,-2.21,-1.97,0.00,-0.04,0.81,9.68,-0.01,-0.02,0.00,0.00
2026-06-27 11:02:22.002,994.70,994.68,-2.21,-1.97,0.00,-0.05,0.83,9.69,-0.01,-0.02,0.00,0.00
2026-06-27 11:02:23.006,994.70,994.68,-2.21,-1.97,0.00,-0.05,0.83,9.69,-0.01,-0.02,0.00,0.00
2026-06-27 11:02:23.010,994.70,994.68,-2.21,-1.97,0.00,-0.05,0.83,9.69,-0.01,-0.02,0.01,0.00
2026-06-27 11:02:23.012,994.70,994.68,-2.21,-1.97,0.00,-0.04,0.84,9.70,-0.01,-0.02,0.01,0.00
2026-06-27 11:02:23.016,994.70,994.68,-2.21,-1.97,0.00,-0.04,0.84,9.70,-0.01,-0.02,0.01,0.00
2026-06-27 11:02:23.021,994.70,994.68,-2.21,-1.97,0.00,-0.04,0.84,9.70,-0.01,-0.02,0.00,0.00
2026-06-27 11:02:23.022,994.70,994.68,-2.21,-1.97,0.00,0.00,0.82,9.66,-0.01,-0.02,0.00,0.00
2026-06-27 11:02:23.025,994.70,994.68,-2.21,-1.97,0.00,0.00,0.82,9.66,-0.01,-0.02,0.00,0.00
2026-06-27 11:02:23.030,994.70,994.68,-2.21,-1.97,0.00,0.00,0.82,9.66,-0.01,-0.02,0.00,0.00
2026-06-27 11:02:23.032,994.70,994.68,-2.21,-1.97,0.00,0.02,0.79,9.71,-0.01,-0.02,0.00,0.00
2026-06-27 11:02:23.173,994.69,994.67,-2.11,-1.92,0.00,-0.07,0.70,9.73,-0.01,-0.03,-0.00,0.00
2026-06-27 11:02:23.178,994.69,994.67,-2.11,-1.92,0.00,-0.07,0.70,9.73,-0.01,-0.03,-0.00,0.00
2026-06-27 11:02:23.183,994.69,994.67,-2.11,-1.92,0.00,-0.07,0.72,9.69,-0.01,-0.03,-0.00,0.00
2026-06-27 11:02:23.190,994.69,994.67,-2.11,-1.92,0.00,-0.07,0.72,9.69,-0.01,-0.03,-0.00,0.00
2026-06-27 11:02:23.192,994.69,994.67,-2.11,-1.92,0.00,-0.06,0.73,9.68,-0.01,-0.03,-0.00,0.00
2026-06-27 11:02:23.194,994.69,994.67,-2.11,-1.92,0.00,-0.06,0.73,9.68,-0.01,-0.03,-0.00,0.00
2026-06-27 11:02:23.198,994.69,994.67,-2.11,-1.92,0.00,-0.06,0.73,9.68,-0.01,-0.03,-0.00,0.00
2026-06-27 11:02:23.201,994.69,994.67,-2.11,-1.92,0.00,-0.06,0.73,9.68,-0.01,-0.03,0.00,0.00
2026-06-27 11:02:23.203,994.69,994.67,-2.11,-1.92,0.00,-0.04,0.74,9.70,-0.01,-0.03,0.00,0.00
2026-06-27 11:02:23.207,994.69,994.67,-2.11,-1.92,0.00,-0.04,0.74,9.70,-0.01,-0.03,0.00,0.00
2026-06-27 11:02:23.211,994.69,994.67,-2.11,-1.92,0.00,-0.04,0.74,9.70,-0.01,-0.03,0.00,0.00
2026-06-27 11:02:23.353,994.68,994.67,-0.79,-1.18,0.00,0.06,0.71,9.69,-0.01,-0.04,0.01,0.00
2026-06-27 11:02:23.357,994.68,994.67,-0.79,-1.18,0.00,0.06,0.71,9.69,-0.01,-0.04,0.01,0.00
2026-06-27 11:02:23.361,994.68,994.67,-0.79,-1.18,0.00,0.06,0.71,9.69,-0.01,-0.04,0.01,0.00
2026-06-27 11:02:23.367,994.68,994.67,-0.79,-1.18,0.00,0.11,0.69,9.70,-0.01,-0.04,0.01,0.00
2026-06-27 11:02:23.374,994.68,994.67,-0.79,-1.18,0.00,0.11,0.69,9.70,-0.01,-0.04,0.00,0.00
2026-06-27 11:02:23.379,994.68,994.67,-0.79,-1.18,0.00,0.16,0.72,9.70,-0.01,-0.04,0.00,0.00
2026-06-27 11:02:23.382,994.68,994.67,-0.79,-1.18,0.00,0.16,0.72,9.70,-0.01,-0.03,-0.00,0.00
2026-06-27 11:02:23.383,994.68,994.67,-0.79,-1.18,0.00,0.11,0.71,9.71,-0.01,-0.03,-0.00,0.00
2026-06-27 11:02:23.386,994.68,994.67,-0.79,-1.18,0.00,0.11,0.71,9.71,-0.01,-0.03,-0.00,0.00
2026-06-27 11:02:23.391,994.68,994.67,-0.79,-1.18,0.00,0.11,0.71,9.71,-0.01,-0.03,-0.00,0.00
2026-06-27 11:02:23.533,994.69,994.67,-2.58,-2.13,0.00,0.07,0.75,9.70,-0.00,0.01,0.00,0.00
2026-06-27 11:02:23.535,994.69,994.67,-2.58,-2.13,0.00,0.07,0.75,9.70,-0.00,0.01,0.00,0.00
2026-06-27 11:02:23.541,994.69,994.67,-2.58,-2.13,0.00,0.07,0.75,9.70,-0.00,0.01,0.00,0.00
2026-06-27 11:02:23.543,994.69,994.67,-2.58,-2.13,0.00,0.08,0.72,9.68,-0.00,0.01,0.01,0.00
2026-06-27 11:02:23.544,994.69,994.67,-2.58,-2.13,0.00,0.08,0.72,9.68,-0.00,0.01,0.01,0.00
2026-06-27 11:02:23.549,994.69,994.67,-2.58,-2.13,0.00,0.08,0.72,9.68,-0.00,0.01,0.01,0.00
2026-06-27 11:02:23.552,994.69,994.67,-2.58,-2.13,0.00,0.08,0.72,9.68,-0.00,0.01,0.00,0.00
2026-06-27 11:02:23.554,994.69,994.67,-2.58,-2.13,0.00,0.04,0.69,9.73,-0.00,0.01,0.00,0.00
2026-06-27 11:02:23.557,994.69,994.67,-2.58,-2.13,0.00,0.04,0.69,9.73,-0.00,0.01,0.00,0.00
2026-06-27 11:02:23.562,994.69,994.67,-2.58,-2.13,0.00,0.04,0.69,9.73,-0.00,0.01,0.00,0.00
2026-06-27 11:02:23.563,994.69,994.67,-2.58,-2.13,0.00,0.04,0.70,9.71,-0.00,0.01,0.00,0.00
2026-06-27 11:02:23.565,994.69,994.67,-2.58,-2.13,0.00,0.04,0.70,9.71,-0.00,0.01,0.00,0.00
2026-06-27 11:02:23.569,994.69,994.67,-2.58,-2.13,0.00,0.04,0.70,9.71,-0.00,0.01,0.00,0.00
2026-06-27 11:02:23.712,994.69,994.68,-0.94,-1.29,0.00,-0.02,0.74,9.67,-0.00,-0.00,0.00,0.00
2026-06-27 11:02:23.714,994.69,994.68,-0.94,-1.29,0.00,-0.05,0.75,9.69,-0.00,-0.01,0.00,0.00
2026-06-27 11:02:23.715,994.69,994.68,-0.94,-1.29,0.00,-0.05,0.75,9.69,-0.00,-0.01,0.00,0.00
2026-06-27 11:02:23.720,994.69,994.68,-0.94,-1.29,0.00,-0.05,0.75,9.69,-0.00,-0.01,0.00,0.00
2026-06-27 11:02:23.723,994.69,994.68,-0.94,-1.29,0.00,-0.05,0.75,9.69,-0.00,-0.01,0.00,0.00
2026-06-27 11:02:23.724,994.69,994.68,-0.94,-1.29,0.00,-0.06,0.77,9.69,-0.00,-0.01,0.00,0.00
2026-06-27 11:02:23.726,994.69,994.68,-0.94,-1.29,0.00,-0.06,0.77,9.69,-0.00,-0.01,0.00,0.00
2026-06-27 11:02:23.733,994.69,994.68,-0.94,-1.29,0.00,-0.06,0.77,9.69,-0.00,-0.01,0.00,0.00
2026-06-27 11:02:23.735,994.69,994.68,-0.94,-1.29,0.00,-0.05,0.76,9.71,-0.00,-0.01,0.00,0.00
2026-06-27 11:02:23.741,994.69,994.68,-0.94,-1.29,0.00,-0.05,0.76,9.71,-0.00,-0.01,0.00,0.00
2026-06-27 11:02:23.743,994.69,994.68,-0.94,-1.29,0.00,-0.04,0.77,9.69,-0.01,-0.01,0.01,0.00
2026-06-27 11:02:23.884,994.69,994.69,-0.16,-0.53,0.00,-0.01,0.67,9.65,-0.01,-0.03,0.00,0.00
2026-06-27 11:02:23.886,994.69,994.69,-0.16,-0.53,0.00,-0.01,0.67,9.65,-0.01,-0.03,0.00,0.00
2026-06-27 11:02:23.894,994.69,994.69,-0.16,-0.53,0.00,-0.01,0.67,9.65,-0.01,-0.02,-0.00,0.00
2026-06-27 11:02:23.896,994.69,994.69,-0.16,-0.53,0.00,0.02,0.80,9.75,-0.01,-0.02,-0.00,0.00
2026-06-27 11:02:23.902,994.69,994.69,-0.16,-0.53,0.00,0.02,0.80,9.75,-0.01,-0.02,-0.01,0.00
2026-06-27 11:02:23.905,994.69,994.69,-0.16,-0.53,0.00,0.22,0.79,9.71,-0.01,-0.02,-0.01,0.00
2026-06-27 11:02:23.906,994.69,994.69,-0.16,-0.53,0.00,0.22,0.79,9.71,-0.01,-0.02,-0.01,0.00
2026-06-27 11:02:23.912,994.69,994.69,-0.16,-0.53,0.00,0.22,0.79,9.71,-0.01,-0.02,-0.01,0.00
2026-06-27 11:02:23.914,994.69,994.69,-0.16,-0.53,0.00,0.13,0.72,9.64,-0.01,-0.03,-0.00,0.00
2026-06-27 11:02:23.915,994.69,994.69,-0.16,-0.53,0.00,0.13,0.72,9.64,-0.01,-0.03,-0.00,0.00
2026-06-27 11:02:23.920,994.69,994.69,-0.16,-0.53,0.00,0.13,0.72,9.64,-0.01,-0.03,-0.00,0.00
2026-06-27 11:02:24.064,994.70,994.67,-2.77,-2.20,0.00,0.13,0.77,9.68,-0.01,-0.01,0.00,0.00
2026-06-27 11:02:24.065,994.70,994.67,-2.77,-2.20,0.00,0.19,0.72,9.68,-0.01,-0.01,0.00,0.00
2026-06-27 11:02:24.067,994.70,994.67,-2.77,-2.20,0.00,0.19,0.72,9.68,-0.01,-0.01,0.00,0.00
2026-06-27 11:02:24.073,994.70,994.67,-2.77,-2.20,0.00,0.19,0.72,9.68,-0.01,-0.01,0.00,0.00
2026-06-27 11:02:24.074,994.70,994.67,-2.77,-2.20,0.00,0.08,0.74,9.67,-0.00,-0.01,0.00,0.00
2026-06-27 11:02:24.076,994.70,994.67,-2.77,-2.20,0.00,0.08,0.74,9.67,-0.00,-0.01,0.00,0.00
2026-06-27 11:02:24.083,994.70,994.67,-2.77,-2.20,0.00,0.08,0.74,9.67,-0.00,-0.01,0.00,0.00
2026-06-27 11:02:24.084,994.70,994.67,-2.77,-2.20,0.00,0.10,0.70,9.69,-0.01,-0.01,0.00,0.00
2026-06-27 11:02:24.086,994.70,994.67,-2.77,-2.20,0.00,0.10,0.70,9.69,-0.01,-0.01,0.00,0.00
2026-06-27 11:02:24.093,994.70,994.67,-2.77,-2.20,0.00,0.10,0.70,9.69,-0.01,-0.01,0.00,0.00
2026-06-27 11:02:24.095,994.70,994.67,-2.77,-2.20,0.00,0.14,0.72,9.72,-0.01,-0.00,-0.00,0.00
2026-06-27 11:02:24.234,994.70,994.68,-1.84,-1.80,0.00,0.07,0.69,9.67,-0.00,0.01,-0.00,0.00
2026-06-27 11:02:24.236,994.70,994.68,-1.84,-1.80,0.00,0.07,0.69,9.67,-0.00,0.01,-0.00,0.00
2026-06-27 11:02:24.239,994.70,994.68,-1.84,-1.80,0.00,0.07,0.69,9.67,-0.00,0.01,-0.00,0.00
2026-06-27 11:02:24.243,994.70,994.68,-1.84,-1.80,0.00,0.07,0.69,9.67,-0.00,0.01,-0.00,0.00
2026-06-27 11:02:24.245,994.70,994.68,-1.84,-1.80,0.00,0.06,0.74,9.67,-0.00,0.01,-0.00,0.00
2026-06-27 11:02:24.247,994.70,994.68,-1.84,-1.80,0.00,0.06,0.74,9.67,-0.00,0.01,-0.00,0.00
2026-06-27 11:02:24.252,994.70,994.68,-1.84,-1.80,0.00,0.06,0.74,9.67,-0.00,0.01,-0.00,0.00
2026-06-27 11:02:24.254,994.70,994.68,-1.84,-1.80,0.00,0.06,0.69,9.70,-0.00,0.01,0.00,0.00
2026-06-27 11:02:24.256,994.70,994.68,-1.84,-1.80,0.00,0.06,0.69,9.70,-0.00,0.01,0.00,0.00
2026-06-27 11:02:24.257,994.70,994.68,-1.84,-1.80,0.00,0.06,0.69,9.70,-0.00,0.01,0.00,0.00
2026-06-27 11:02:24.263,994.70,994.68,-1.84,-1.80,0.00,0.06,0.69,9.70,-0.00,0.01,0.00,0.00
2026-06-27 11:02:24.265,994.70,994.68,-1.84,-1.80,0.00,0.05,0.71,9.71,-0.00,0.01,0.00,0.00
2026-06-27 11:02:24.266,994.70,994.68,-1.84,-1.80,0.00,0.05,0.71,9.71,-0.00,0.01,0.00,0.00
2026-06-27 11:02:24.268,994.70,994.68,-1.84,-1.80,0.00,0.05,0.71,9.71,-0.00,0.01,0.00,0.00
2026-06-27 11:02:24.273,994.70,994.68,-1.84,-1.80,0.00,0.05,0.71,9.71,-0.00,0.01,0.00,0.00
2026-06-27 11:02:24.416,994.69,994.67,-2.61,-2.14,0.00,0.07,0.75,9.68,-0.00,0.03,-0.00,0.00
2026-06-27 11:02:24.417,994.69,994.67,-2.61,-2.14,0.00,0.07,0.75,9.68,-0.00,0.03,-0.00,0.00
2026-06-27 11:02:24.423,994.69,994.67,-2.61,-2.14,0.00,0.07,0.75,9.68,-0.00,0.03,-0.00,0.00
2026-06-27 11:02:24.425,994.69,994.67,-2.61,-2.14,0.00,0.06,0.77,9.69,0.00,0.03,-0.00,0.00
2026-06-27 11:02:24.427,994.69,994.67,-2.61,-2.14,0.00,0.06,0.77,9.69,0.00,0.03,-0.00,0.00
2026-06-27 11:02:24.430,994.69,994.67,-2.61,-2.14,0.00,0.06,0.77,9.69,0.00,0.03,-0.00,0.00
2026-06-27 11:02:24.434,994.69,994.67,-2.61,-2.14,0.00,0.06,0.77,9.69,-0.00,0.03,-0.00,0.00
2026-06-27 11:02:24.435,994.69,994.67,-2.61,-2.14,0.00,0.06,0.78,9.68,-0.00,0.03,-0.00,0.00
2026-06-27 11:02:24.437,994.69,994.67,-2.61,-2.14,0.00,0.06,0.78,9.68,-0.00,0.03,-0.00,0.00
2026-06-27 11:02:24.443,994.69,994.67,-2.61,-2.14,0.00,0.06,0.78,9.68,-0.00,0.03,-0.00,0.00
2026-06-27 11:02:24.445,994.69,994.67,-2.61,-2.14,0.00,0.07,0.79,9.67,0.00,0.03,-0.00,0.00
2026-06-27 11:02:24.447,994.69,994.67,-2.61,-2.14,0.00,0.07,0.79,9.67,0.00,0.03,-0.00,0.00
2026-06-27 11:02:24.451,994.69,994.67,-2.61,-2.14,0.00,0.07,0.79,9.67,0.00,0.03,-0.00,0.00
2026-06-27 11:02:24.595,994.70,994.66,-3.56,-2.50,0.00,-0.11,0.70,9.69,0.00,0.05,0.00,0.00
2026-06-27 11:02:24.596,994.70,994.66,-3.56,-2.50,0.00,-0.02,0.73,9.67,0.00,0.05,0.00,0.00
2026-06-27 11:02:24.598,994.70,994.66,-3.56,-2.50,0.00,-0.02,0.73,9.67,0.00,0.05,0.00,0.00
2026-06-27 11:02:24.604,994.70,994.66,-3.56,-2.50,0.00,-0.02,0.73,9.67,0.00,0.05,0.00,0.00
2026-06-27 11:02:24.605,994.70,994.66,-3.56,-2.50,0.00,0.00,0.77,9.68,0.00,0.05,0.00,0.00
2026-06-27 11:02:24.607,994.70,994.66,-3.56,-2.50,0.00,0.00,0.77,9.68,0.00,0.05,0.00,0.00
2026-06-27 11:02:24.610,994.70,994.66,-3.56,-2.50,0.00,0.00,0.77,9.68,0.00,0.05,0.00,0.00
2026-06-27 11:02:24.614,994.70,994.66,-3.56,-2.50,0.00,0.00,0.77,9.68,0.00,0.05,-0.00,0.00
2026-06-27 11:02:24.616,994.70,994.66,-3.56,-2.50,0.00,-0.06,0.80,9.69,0.00,0.05,-0.00,0.00
2026-06-27 11:02:24.618,994.70,994.66,-3.56,-2.50,0.00,-0.06,0.80,9.69,0.00,0.05,-0.00,0.00
2026-06-27 11:02:24.623,994.70,994.66,-3.56,-2.50,0.00,-0.06,0.80,9.69,0.00,0.05,-0.00,0.00
2026-06-27 11:02:24.625,994.70,994.66,-3.56,-2.50,0.00,-0.11,0.77,9.68,0.00,0.05,0.00,0.00
2026-06-27 11:02:24.627,994.70,994.66,-3.56,-2.50,0.00,-0.11,0.77,9.68,0.00,0.05,0.00,0.00
2026-06-27 11:02:24.628,994.70,994.66,-3.56,-2.50,0.00,-0.11,0.77,9.68,0.00,0.05,0.00,0.00
2026-06-27 11:02:24.774,994.70,994.67,-2.26,-1.99,0.00,0.15,0.80,9.84,0.00,0.05,0.00,0.00
2026-06-27 11:02:24.776,994.70,994.67,-2.26,-1.99,0.00,-0.40,1.08,9.84,-0.00,0.03,0.01,0.00
2026-06-27 11:02:24.778,994.70,994.67,-2.26,-1.99,0.00,-0.40,1.08,9.84,-0.00,0.03,0.01,0.00
2026-06-27 11:02:24.784,994.70,994.67,-2.26,-1.99,0.00,-0.40,1.08,9.84,-0.00,0.03,0.01,0.00
2026-06-27 11:02:24.786,994.70,994.67,-2.26,-1.99,0.00,-0.54,1.06,9.78,-0.00,0.02,0.01,0.00
2026-06-27 11:02:24.788,994.70,994.67,-2.26,-1.99,0.00,-0.54,1.06,9.78,-0.00,0.02,0.01,0.00
2026-06-27 11:02:24.792,994.70,994.67,-2.26,-1.99,0.00,-0.54,1.06,9.78,-0.00,0.02,0.01,0.00
2026-06-27 11:02:24.795,994.70,994.67,-2.26,-1.99,0.00,-0.54,1.06,9.78,-0.00,0.01,0.01,0.00
2026-06-27 11:02:24.797,994.70,994.67,-2.26,-1.99,0.00,-0.59,0.74,9.45,-0.00,0.01,0.01,0.00
2026-06-27 11:02:24.801,994.70,994.67,-2.26,-1.99,0.00,-0.59,0.74,9.45,-0.00,0.01,0.01,0.00
2026-06-27 11:02:24.805,994.70,994.67,-2.26,-1.99,0.00,-0.59,0.74,9.45,-0.01,0.01,0.01,0.00
2026-06-27 11:02:24.946,994.70,994.68,-1.96,-1.85,0.00,-0.20,0.40,10.01,-0.01,-0.04,0.01,0.00
2026-06-27 11:02:24.948,994.70,994.68,-1.96,-1.85,0.00,-0.20,0.40,10.01,-0.01,-0.04,0.01,0.00
2026-06-27 11:02:24.954,994.70,994.68,-1.96,-1.85,0.00,-0.20,0.40,10.01,-0.01,-0.04,0.01,0.00
2026-06-27 11:02:24.956,994.70,994.68,-1.96,-1.85,0.00,0.20,0.12,9.74,-0.01,-0.03,-0.00,0.00
2026-06-27 11:02:24.957,994.70,994.68,-1.96,-1.85,0.00,0.20,0.12,9.74,-0.01,-0.03,-0.00,0.00
2026-06-27 11:02:24.964,994.70,994.68,-1.96,-1.85,0.00,0.20,0.12,9.74,-0.01,-0.03,-0.00,0.00
2026-06-27 11:02:24.966,994.70,994.68,-1.96,-1.85,0.00,0.20,0.19,9.43,-0.01,-0.04,-0.01,0.00
2026-06-27 11:02:24.968,994.70,994.68,-1.96,-1.85,0.00,0.20,0.19,9.43,-0.01,-0.04,-0.01,0.00
2026-06-27 11:02:24.971,994.70,994.68,-1.96,-1.85,0.00,0.20,0.19,9.43,-0.01,-0.04,-0.01,0.00
2026-06-27 11:02:24.975,994.70,994.68,-1.96,-1.85,0.00,0.20,0.19,9.43,-0.01,-0.05,-0.01,0.00
2026-06-27 11:02:24.977,994.70,994.68,-1.96,-1.85,0.00,-0.23,0.40,9.42,-0.01,-0.05,-0.01,0.00
2026-06-27 11:02:24.981,994.70,994.68,-1.96,-1.85,0.00,-0.23,0.40,9.42,-0.01,-0.05,-0.01,0.00
2026-06-27 11:02:25.125,994.71,994.66,-4.78,-2.89,0.00,-0.14,0.76,9.64,-0.02,-0.07,0.01,0.00
2026-06-27 11:02:25.127,994.71,994.66,-4.78,-2.89,0.00,-0.18,0.97,9.80,-0.02,-0.07,0.01,0.00
2026-06-27 11:02:25.129,994.71,994.66,-4.78,-2.89,0.00,-0.18,0.97,9.80,-0.02,-0.07,0.01,0.00
2026-06-27 11:02:25.134,994.71,994.66,-4.78,-2.89,0.00,-0.18,0.97,9.80,-0.02,-0.07,0.01,0.00
2026-06-27 11:02:25.136,994.71,994.66,-4.78,-2.89,0.00,-0.05,0.87,9.73,-0.01,-0.07,0.00,0.00
2026-06-27 11:02:25.138,994.71,994.66,-4.78,-2.89,0.00,-0.05,0.87,9.73,-0.01,-0.07,0.00,0.00
2026-06-27 11:02:25.140,994.71,994.66,-4.78,-2.89,0.00,-0.05,0.87,9.73,-0.01,-0.07,0.00,0.00
2026-06-27 11:02:25.145,994.71,994.66,-4.78,-2.89,0.00,-0.05,0.87,9.73,-0.01,-0.07,0.00,0.00
2026-06-27 11:02:25.147,994.71,994.66,-4.78,-2.89,0.00,-0.08,0.86,9.62,-0.01,-0.07,0.00,0.00
2026-06-27 11:02:25.148,994.71,994.66,-4.78,-2.89,0.00,-0.08,0.86,9.62,-0.01,-0.07,0.00,0.00
2026-06-27 11:02:25.152,994.71,994.66,-4.78,-2.89,0.00,-0.08,0.86,9.62,-0.01,-0.07,0.00,0.00
2026-06-27 11:02:25.156,994.71,994.66,-4.78,-2.89,0.00,-0.08,0.86,9.62,-0.01,-0.07,0.00,0.00
2026-06-27 11:02:25.157,994.71,994.66,-4.78,-2.89,0.00,-0.19,0.92,9.66,-0.01,-0.07,0.00,0.00
2026-06-27 11:02:25.163,994.71,994.66,-4.78,-2.89,0.00,-0.19,0.92,9.66,-0.01,-0.07,0.00,0.00
2026-06-27 11:02:25.306,994.70,994.69,-0.41,-0.85,0.00,0.07,0.69,9.72,-0.02,-0.08,0.01,0.00
2026-06-27 11:02:25.308,994.70,994.69,-0.41,-0.85,0.00,0.00,0.66,9.63,-0.02,-0.08,0.01,0.00
2026-06-27 11:02:25.310,994.70,994.69,-0.41,-0.85,0.00,0.00,0.66,9.63,-0.02,-0.08,0.01,0.00
2026-06-27 11:02:25.316,994.70,994.69,-0.41,-0.85,0.00,0.00,0.66,9.63,-0.02,-0.08,0.01,0.00
2026-06-27 11:02:25.317,994.70,994.69,-0.41,-0.85,0.00,0.19,0.59,9.63,-0.02,-0.08,0.01,0.00
2026-06-27 11:02:25.319,994.70,994.69,-0.41,-0.85,0.00,0.19,0.59,9.63,-0.02,-0.08,0.01,0.00
2026-06-27 11:02:25.323,994.70,994.69,-0.41,-0.85,0.00,0.19,0.59,9.63,-0.02,-0.08,0.01,0.00
2026-06-27 11:02:25.326,994.70,994.69,-0.41,-0.85,0.00,0.19,0.59,9.63,-0.02,-0.08,0.02,0.00
2026-06-27 11:02:25.328,994.70,994.69,-0.41,-0.85,0.00,0.21,0.50,9.76,-0.02,-0.08,0.02,0.00
2026-06-27 11:02:25.330,994.70,994.69,-0.41,-0.85,0.00,0.21,0.50,9.76,-0.02,-0.08,0.02,0.00
2026-06-27 11:02:25.335,994.70,994.69,-0.41,-0.85,0.00,0.21,0.50,9.76,-0.02,-0.08,0.02,0.00
2026-06-27 11:02:25.337,994.70,994.69,-0.41,-0.85,0.00,0.07,0.57,9.68,-0.01,-0.09,0.02,0.00
2026-06-27 11:02:25.339,994.70,994.69,-0.41,-0.85,0.00,0.07,0.57,9.68,-0.01,-0.09,0.02,0.00
2026-06-27 11:02:25.486,994.70,994.67,-3.08,-2.32,0.00,0.40,0.67,9.69,-0.01,-0.06,-0.00,0.00
2026-06-27 11:02:25.489,994.70,994.67,-3.08,-2.32,0.00,0.36,0.65,9.66,-0.01,-0.07,-0.00,0.00
2026-06-27 11:02:25.492,994.70,994.67,-3.08,-2.32,0.00,0.36,0.65,9.66,-0.01,-0.07,-0.00,0.00
2026-06-27 11:02:25.496,994.70,994.67,-3.08,-2.32,0.00,0.36,0.65,9.66,-0.01,-0.06,0.00,0.00
2026-06-27 11:02:25.498,994.70,994.67,-3.08,-2.32,0.00,0.25,0.64,9.69,-0.01,-0.06,0.00,0.00
2026-06-27 11:02:25.500,994.70,994.67,-3.08,-2.32,0.00,0.25,0.64,9.69,-0.01,-0.06,0.00,0.00
2026-06-27 11:02:25.506,994.70,994.67,-3.08,-2.32,0.00,0.25,0.64,9.69,-0.01,-0.06,0.00,0.00
2026-06-27 11:02:25.508,994.70,994.67,-3.08,-2.32,0.00,0.16,0.70,9.73,-0.01,-0.05,0.01,0.00
2026-06-27 11:02:25.509,994.70,994.67,-3.08,-2.32,0.00,0.16,0.70,9.73,-0.01,-0.05,0.01,0.00
2026-06-27 11:02:25.513,994.70,994.67,-3.08,-2.32,0.00,0.16,0.70,9.73,-0.01,-0.05,0.01,0.00
2026-06-27 11:02:25.517,994.70,994.67,-3.08,-2.32,0.00,0.16,0.70,9.73,-0.01,-0.05,0.00,0.00
2026-06-27 11:02:25.659,994.71,994.67,-4.27,-2.74,0.00,0.33,0.70,9.67,-0.00,-0.01,0.00,0.00
2026-06-27 11:02:25.662,994.71,994.67,-4.27,-2.74,0.00,0.33,0.70,9.67,-0.00,-0.01,0.00,0.00
2026-06-27 11:02:25.667,994.71,994.67,-4.27,-2.74,0.00,0.33,0.70,9.67,-0.00,0.00,0.00,0.00
2026-06-27 11:02:25.668,994.71,994.67,-4.27,-2.74,0.00,0.21,0.70,9.69,-0.00,0.00,0.00,0.00
2026-06-27 11:02:25.670,994.71,994.67,-4.27,-2.74,0.00,0.21,0.70,9.69,-0.00,0.00,0.00,0.00
2026-06-27 11:02:25.671,994.71,994.67,-4.27,-2.74,0.00,0.21,0.70,9.69,-0.00,0.00,0.00,0.00
2026-06-27 11:02:25.676,994.71,994.67,-4.27,-2.74,0.00,0.21,0.70,9.69,-0.01,0.00,0.00,0.00
2026-06-27 11:02:25.678,994.71,994.67,-4.27,-2.74,0.00,0.29,0.70,9.69,-0.01,0.00,0.00,0.00
2026-06-27 11:02:25.679,994.71,994.67,-4.27,-2.74,0.00,0.29,0.70,9.69,-0.01,0.00,0.00,0.00
2026-06-27 11:02:25.686,994.71,994.67,-4.27,-2.74,0.00,0.29,0.70,9.69,-0.01,0.00,0.00,0.00
2026-06-27 11:02:25.688,994.71,994.67,-4.27,-2.74,0.00,0.47,0.73,9.66,-0.00,0.01,0.00,0.00
2026-06-27 11:02:25.689,994.71,994.67,-4.27,-2.74,0.00,0.47,0.73,9.66,-0.00,0.01,0.00,0.00
2026-06-27 11:02:25.693,994.71,994.67,-4.27,-2.74,0.00,0.47,0.73,9.66,-0.00,0.01,0.00,0.00
2026-06-27 11:02:25.837,994.68,994.67,-1.24,-1.47,0.00,0.10,0.70,9.66,-0.00,0.03,0.00,0.00
2026-06-27 11:02:25.839,994.68,994.67,-1.24,-1.47,0.00,0.11,0.72,9.69,-0.00,0.03,0.00,0.00
2026-06-27 11:02:25.841,994.68,994.67,-1.24,-1.47,0.00,0.11,0.72,9.69,-0.00,0.03,0.00,0.00
2026-06-27 11:02:25.847,994.68,994.67,-1.24,-1.47,0.00,0.11,0.72,9.69,-0.00,0.03,0.00,0.00
2026-06-27 11:02:25.848,994.68,994.67,-1.24,-1.47,0.00,0.32,0.74,9.70,-0.00,0.03,-0.00,0.00
2026-06-27 11:02:25.850,994.68,994.67,-1.24,-1.47,0.00,0.32,0.74,9.70,-0.00,0.03,-0.00,0.00
2026-06-27 11:02:25.854,994.68,994.67,-1.24,-1.47,0.00,0.32,0.74,9.70,-0.00,0.03,-0.00,0.00
2026-06-27 11:02:25.857,994.68,994.67,-1.24,-1.47,0.00,0.32,0.74,9.70,-0.00,0.03,-0.00,0.00
2026-06-27 11:02:25.859,994.68,994.67,-1.24,-1.47,0.00,0.27,0.67,9.65,-0.00,0.03,-0.00,0.00
2026-06-27 11:02:25.861,994.68,994.67,-1.24,-1.47,0.00,0.27,0.67,9.65,-0.00,0.03,-0.00,0.00
2026-06-27 11:02:25.866,994.68,994.67,-1.24,-1.47,0.00,0.27,0.67,9.65,-0.00,0.03,-0.00,0.00
2026-06-27 11:02:25.868,994.68,994.67,-1.24,-1.47,0.00,0.13,0.67,9.66,-0.00,0.03,-0.00,0.00
2026-06-27 11:02:25.870,994.68,994.67,-1.24,-1.47,0.00,0.13,0.67,9.66,-0.00,0.03,-0.00,0.00
2026-06-27 11:02:26.014,994.70,994.67,-2.62,-2.14,0.00,0.10,0.84,9.68,-0.01,-0.00,0.00,0.00
2026-06-27 11:02:26.018,994.70,994.67,-2.62,-2.14,0.00,0.10,0.84,9.68,-0.01,-0.00,0.00,0.00
2026-06-27 11:02:26.019,994.70,994.67,-2.62,-2.14,0.00,0.14,0.79,9.69,-0.01,-0.00,0.00,0.00
2026-06-27 11:02:26.022,994.70,994.67,-2.62,-2.14,0.00,0.14,0.79,9.69,-0.01,-0.00,0.00,0.00
2026-06-27 11:02:26.027,994.70,994.67,-2.62,-2.14,0.00,0.14,0.79,9.69,-0.01,-0.00,0.00,0.00
2026-06-27 11:02:26.029,994.70,994.67,-2.62,-2.14,0.00,0.14,0.77,9.70,-0.01,-0.00,0.00,0.00
2026-06-27 11:02:26.030,994.70,994.67,-2.62,-2.14,0.00,0.14,0.77,9.70,-0.01,-0.00,0.00,0.00
2026-06-27 11:02:26.035,994.70,994.67,-2.62,-2.14,0.00,0.14,0.77,9.70,-0.01,-0.00,0.00,0.00
2026-06-27 11:02:26.040,994.70,994.67,-2.62,-2.14,0.00,0.11,0.69,9.70,-0.01,-0.00,0.00,0.00
2026-06-27 11:02:26.045,994.70,994.67,-2.62,-2.14,0.00,0.11,0.69,9.70,-0.01,-0.00,0.00,0.00
2026-06-27 11:02:26.048,994.70,994.67,-2.62,-2.14,0.00,0.11,0.69,9.70,-0.01,-0.00,0.00,0.00
2026-06-27 11:02:26.188,994.69,994.67,-1.87,-1.81,0.00,0.10,0.77,9.68,-0.01,-0.02,-0.00,0.00
2026-06-27 11:02:26.190,994.69,994.67,-1.87,-1.81,0.00,0.12,0.76,9.66,-0.01,-0.02,-0.00,0.00
2026-06-27 11:02:26.193,994.69,994.67,-1.87,-1.81,0.00,0.12,0.76,9.66,-0.01,-0.02,-0.00,0.00
2026-06-27 11:02:26.199,994.69,994.67,-1.87,-1.81,0.00,0.12,0.76,9.66,-0.01,-0.02,0.00,0.00
2026-06-27 11:02:26.204,994.69,994.67,-1.87,-1.81,0.00,0.15,0.72,9.68,-0.01,-0.02,0.00,0.00
2026-06-27 11:02:26.209,994.69,994.67,-1.87,-1.81,0.00,0.15,0.72,9.68,-0.01,-0.02,0.00,0.00
2026-06-27 11:02:26.211,994.69,994.67,-1.87,-1.81,0.00,0.14,0.72,9.69,-0.01,-0.02,0.00,0.00
2026-06-27 11:02:26.217,994.69,994.67,-1.87,-1.81,0.00,0.14,0.72,9.69,-0.01,-0.02,0.00,0.00
2026-06-27 11:02:26.219,994.69,994.67,-1.87,-1.81,0.00,0.17,0.71,9.70,-0.01,-0.02,0.00,0.00
2026-06-27 11:02:26.221,994.69,994.67,-1.87,-1.81,0.00,0.17,0.71,9.70,-0.01,-0.02,0.00,0.00
2026-06-27 11:02:26.365,994.70,994.67,-3.38,-2.43,0.00,0.22,0.74,9.67,-0.00,-0.01,-0.00,0.00
2026-06-27 11:02:26.368,994.70,994.67,-3.38,-2.43,0.00,0.22,0.74,9.67,-0.01,-0.01,0.00,0.00
2026-06-27 11:02:26.370,994.70,994.67,-3.38,-2.43,0.00,0.21,0.75,9.67,-0.01,-0.01,0.00,0.00
2026-06-27 11:02:26.372,994.70,994.67,-3.38,-2.43,0.00,0.21,0.75,9.67,-0.01,-0.01,0.00,0.00
2026-06-27 11:02:26.376,994.70,994.67,-3.38,-2.43,0.00,0.21,0.75,9.67,-0.01,-0.01,0.00,0.00
2026-06-27 11:02:26.378,994.70,994.67,-3.38,-2.43,0.00,0.21,0.75,9.67,-0.00,-0.01,0.00,0.00
2026-06-27 11:02:26.380,994.70,994.67,-3.38,-2.43,0.00,0.25,0.71,9.68,-0.00,-0.01,0.00,0.00
2026-06-27 11:02:26.382,994.70,994.67,-3.38,-2.43,0.00,0.25,0.71,9.68,-0.00,-0.01,0.00,0.00
2026-06-27 11:02:26.388,994.70,994.67,-3.38,-2.43,0.00,0.25,0.71,9.68,-0.00,-0.01,0.00,0.00
2026-06-27 11:02:26.389,994.70,994.67,-3.38,-2.43,0.00,0.21,0.71,9.68,-0.00,-0.00,0.00,0.00
2026-06-27 11:02:26.395,994.70,994.67,-3.38,-2.43,0.00,0.21,0.71,9.68,-0.00,-0.00,0.00,0.00
2026-06-27 11:02:26.399,994.70,994.67,-3.38,-2.43,0.00,0.21,0.71,9.68,-0.00,0.00,0.00,0.00
2026-06-27 11:02:26.548,994.69,994.67,-1.80,-1.78,0.00,0.18,0.73,9.69,-0.00,0.00,0.00,0.00
2026-06-27 11:02:26.550,994.69,994.67,-1.80,-1.78,0.00,0.16,0.74,9.68,-0.00,-0.00,0.00,0.00
2026-06-27 11:02:26.552,994.69,994.67,-1.80,-1.78,0.00,0.16,0.74,9.68,-0.00,-0.00,0.00,0.00
2026-06-27 11:02:26.557,994.69,994.67,-1.80,-1.78,0.00,0.16,0.74,9.68,-0.00,-0.00,0.00,0.00
2026-06-27 11:02:26.559,994.69,994.67,-1.80,-1.78,0.00,0.12,0.74,9.69,-0.01,-0.00,0.00,0.00
2026-06-27 11:02:26.561,994.69,994.67,-1.80,-1.78,0.00,0.12,0.74,9.69,-0.01,-0.00,0.00,0.00
2026-06-27 11:02:26.562,994.69,994.67,-1.80,-1.78,0.00,0.12,0.74,9.69,-0.01,-0.00,0.00,0.00
2026-06-27 11:02:26.568,994.69,994.67,-1.80,-1.78,0.00,0.12,0.74,9.69,-0.01,-0.00,0.00,0.00
2026-06-27 11:02:26.570,994.69,994.67,-1.80,-1.78,0.00,0.13,0.74,9.68,-0.01,0.00,0.00,0.00
2026-06-27 11:02:26.571,994.69,994.67,-1.80,-1.78,0.00,0.13,0.74,9.68,-0.01,0.00,0.00,0.00
2026-06-27 11:02:26.573,994.69,994.67,-1.80,-1.78,0.00,0.13,0.74,9.68,-0.01,0.00,0.00,0.00
2026-06-27 11:02:26.578,994.69,994.67,-1.80,-1.78,0.00,0.13,0.74,9.68,-0.01,0.00,0.00,0.00
2026-06-27 11:02:26.721,994.70,994.68,-2.07,-1.90,0.00,0.14,0.76,9.69,-0.01,-0.01,0.00,0.00
2026-06-27 11:02:26.725,994.70,994.68,-2.07,-1.90,0.00,0.14,0.76,9.69,-0.01,-0.01,0.00,0.00
2026-06-27 11:02:26.729,994.70,994.68,-2.07,-1.90,0.00,0.14,0.76,9.69,-0.01,-0.01,0.00,0.00
2026-06-27 11:02:26.731,994.70,994.68,-2.07,-1.90,0.00,0.15,0.74,9.68,-0.01,-0.01,0.00,0.00
2026-06-27 11:02:26.733,994.70,994.68,-2.07,-1.90,0.00,0.15,0.74,9.68,-0.01,-0.01,0.00,0.00
2026-06-27 11:02:26.738,994.70,994.68,-2.07,-1.90,0.00,0.15,0.74,9.68,-0.01,-0.01,0.00,0.00
2026-06-27 11:02:26.740,994.70,994.68,-2.07,-1.90,0.00,0.16,0.75,9.70,-0.01,-0.02,0.00,0.00
2026-06-27 11:02:26.742,994.70,994.68,-2.07,-1.90,0.00,0.16,0.75,9.70,-0.01,-0.02,0.00,0.00
2026-06-27 11:02:26.749,994.70,994.68,-2.07,-1.90,0.00,0.16,0.75,9.70,-0.01,-0.02,0.00,0.00
2026-06-27 11:02:26.751,994.70,994.68,-2.07,-1.90,0.00,0.18,0.72,9.69,-0.00,-0.01,0.00,0.00
2026-06-27 11:02:26.757,994.70,994.68,-2.07,-1.90,0.00,0.18,0.72,9.69,-0.00,-0.01,0.00,0.00
2026-06-27 11:02:26.900,994.70,994.69,-0.67,-1.08,0.00,0.17,0.74,9.71,-0.00,-0.01,0.00,0.00
2026-06-27 11:02:26.902,994.70,994.69,-0.67,-1.08,0.00,0.18,0.73,9.68,-0.00,-0.01,0.00,0.00
2026-06-27 11:02:26.905,994.70,994.69,-0.67,-1.08,0.00,0.18,0.73,9.68,-0.00,-0.01,0.00,0.00
2026-06-27 11:02:26.909,994.70,994.69,-0.67,-1.08,0.00,0.18,0.73,9.68,-0.01,-0.01,0.00,0.00
2026-06-27 11:02:26.911,994.70,994.69,-0.67,-1.08,0.00,0.20,0.73,9.69,-0.01,-0.01,0.00,0.00
2026-06-27 11:02:26.913,994.70,994.69,-0.67,-1.08,0.00,0.20,0.73,9.69,-0.01,-0.01,0.00,0.00
2026-06-27 11:02:26.919,994.70,994.69,-0.67,-1.08,0.00,0.20,0.73,9.69,-0.01,-0.01,0.00,0.00
2026-06-27 11:02:26.929,994.70,994.69,-0.67,-1.08,0.00,0.18,0.76,9.68,-0.00,-0.00,0.00,0.00
2026-06-27 11:02:26.932,994.70,994.69,-0.67,-1.08,0.00,0.18,0.76,9.68,-0.00,-0.01,0.00,0.00
2026-06-27 11:02:26.938,994.70,994.69,-0.67,-1.08,0.00,0.18,0.76,9.68,-0.00,-0.01,0.00,0.00
2026-06-27 11:02:27.080,994.70,994.67,-2.93,-2.27,0.00,0.15,0.74,9.68,0.00,-0.00,-0.00,0.00
2026-06-27 11:02:27.082,994.70,994.67,-2.93,-2.27,0.00,0.15,0.72,9.69,0.00,-0.00,-0.00,0.00
2026-06-27 11:02:27.086,994.70,994.67,-2.93,-2.27,0.00,0.15,0.72,9.69,0.00,-0.00,-0.00,0.00
2026-06-27 11:02:27.090,994.70,994.67,-2.93,-2.27,0.00,0.15,0.72,9.69,0.00,-0.00,0.00,0.00
2026-06-27 11:02:27.096,994.70,994.67,-2.93,-2.27,0.00,0.15,0.73,9.69,0.00,-0.00,0.00,0.00
2026-06-27 11:02:27.100,994.70,994.67,-2.93,-2.27,0.00,0.15,0.73,9.69,0.00,-0.00,0.00,0.00
