timestamp,pressure_mpl,pressure_bme,diff_pressure,v_wind_est,speed,accel_x,accel_y,accel_z,gyro_x,gyro_y,gyro_z
2026-06-23 20:02:10.335,0.00,991.43,99142.65,nan,0.00,0.67,0.38,9.29,0.00,-0.00,-0.00
2026-06-23 20:02:10.339,0.00,991.43,99142.65,nan,0.00,0.67,0.38,9.29,0.00,-0.00,-0.00
2026-06-23 20:02:10.342,0.00,991.43,99142.65,nan,0.00,0.67,0.38,9.29,0.00,-0.00,0.00
2026-06-23 20:02:10.344,0.00,991.43,99142.65,nan,0.00,0.66,0.37,9.28,0.00,-0.00,0.00
2026-06-23 20:02:10.346,0.00,991.43,99142.65,nan,0.00,0.66,0.37,9.28,0.00,-0.00,0.00
2026-06-23 20:02:10.349,0.00,991.43,99142.65,nan,0.00,0.66,0.37,9.28,0.00,-0.00,0.00
2026-06-23 20:02:10.353,0.00,991.43,99142.65,nan,0.00,0.66,0.37,9.28,0.00,-0.00,0.00
2026-06-23 20:02:10.355,0.00,991.43,99142.65,nan,0.00,0.66,0.38,9.31,0.00,-0.00,0.00
2026-06-23 20:02:10.358,0.00,991.43,99142.65,nan,0.00,0.66,0.38,9.31,0.00,-0.00,0.00
2026-06-23 20:02:10.362,0.00,991.43,99142.65,nan,0.00,0.66,0.38,9.31,0.00,0.00,-0.00
2026-06-23 20:02:10.371,0.00,991.43,99142.65,nan,0.00,0.66,0.38,9.30,0.00,0.00,-0.00
2026-06-23 20:02:10.373,0.00,991.43,99142.65,nan,0.00,0.66,0.38,9.30,-0.00,0.00,0.00
2026-06-23 20:02:10.375,0.00,991.43,99142.65,nan,0.00,0.66,0.38,9.30,-0.00,0.00,0.00
2026-06-23 20:02:10.378,0.00,991.43,99142.65,nan,0.00,0.66,0.38,9.30,-0.00,0.00,0.00
2026-06-23 20:02:10.382,0.00,991.43,99142.65,nan,0.00,0.66,0.38,9.30,-0.00,0.00,0.00
2026-06-23 20:02:10.384,0.00,991.43,99142.65,nan,0.00,0.65,0.38,9.29,-0.00,0.00,0.00
2026-06-23 20:02:10.386,0.00,991.43,99142.65,nan,0.00,0.65,0.38,9.29,-0.00,0.00,0.00
2026-06-23 20:02:10.390,0.00,991.43,99142.65,nan,0.00,0.65,0.38,9.29,-0.00,0.00,0.00
2026-06-23 20:02:10.393,0.00,991.43,99142.65,nan,0.00,0.66,0.37,9.28,0.00,0.00,-0.00
2026-06-23 20:02:10.394,0.00,991.43,99142.65,nan,0.00,0.66,0.37,9.28,0.00,0.00,-0.00
2026-06-23 20:02:10.396,0.00,991.43,99142.65,nan,0.00,0.66,0.37,9.28,0.00,0.00,-0.00
2026-06-23 20:02:10.402,0.00,991.43,99142.65,nan,0.00,0.66,0.37,9.28,0.00,0.00,-0.00
2026-06-23 20:02:10.404,0.00,991.43,99142.65,nan,0.00,0.66,0.38,9.29,0.00,-0.00,0.00
2026-06-23 20:02:10.405,0.00,991.43,99142.65,nan,0.00,0.66,0.38,9.29,0.00,-0.00,0.00
2026-06-23 20:02:10.407,0.00,991.43,99142.65,nan,0.00,0.66,0.38,9.29,0.00,-0.00,0.00
2026-06-23 20:02:10.411,0.00,991.43,99142.65,nan,0.00,0.66,0.38,9.29,0.00,-0.00,0.00
2026-06-23 20:02:10.413,0.00,991.43,99142.65,nan,0.00,0.65,0.39,9.30,0.00,0.00,-0.00
2026-06-23 20:02:10.414,0.00,991.43,99142.65,nan,0.00,0.65,0.39,9.30,0.00,0.00,-0.00
2026-06-23 20:02:10.416,0.00,991.43,99142.65,nan,0.00,0.65,0.39,9.30,0.00,0.00,-0.00
2026-06-23 20:02:10.422,0.00,991.43,99142.65,nan,0.00,0.65,0.39,9.30,0.00,0.00,-0.00
2026-06-23 20:02:10.424,0.00,991.43,99142.65,nan,0.00,0.65,0.38,9.29,-0.00,0.00,0.00
2026-06-23 20:02:10.425,0.00,991.43,99142.65,nan,0.00,0.65,0.38,9.29,-0.00,0.00,0.00
2026-06-23 20:02:10.428,0.00,991.43,99142.65,nan,0.00,0.65,0.38,9.29,-0.00,0.00,0.00
2026-06-23 20:02:10.432,0.00,991.43,99142.65,nan,0.00,0.65,0.38,9.29,0.00,0.00,0.00
2026-06-23 20:02:10.624,0.00,991.44,99144.13,nan,0.00,0.68,0.39,9.28,-0.00,0.00,0.00
2026-06-23 20:02:10.625,0.00,991.44,99144.13,nan,0.00,0.68,0.39,9.28,-0.00,0.00,0.00
2026-06-23 20:02:10.626,0.00,991.44,99144.13,nan,0.00,0.68,0.39,9.28,-0.00,0.00,0.00
2026-06-23 20:02:10.629,0.00,991.44,99144.13,nan,0.00,0.68,0.39,9.28,-0.00,0.00,0.00
2026-06-23 20:02:10.633,0.00,991.44,99144.13,nan,0.00,0.68,0.39,9.28,-0.00,-0.00,0.00
2026-06-23 20:02:10.634,0.00,991.44,99144.13,nan,0.00,0.66,0.38,9.29,-0.00,-0.00,0.00
2026-06-23 20:02:10.636,0.00,991.44,99144.13,nan,0.00,0.66,0.38,9.29,-0.00,-0.00,0.00
2026-06-23 20:02:10.639,0.00,991.44,99144.13,nan,0.00,0.66,0.38,9.29,-0.00,-0.00,0.00
2026-06-23 20:02:10.643,0.00,991.44,99144.13,nan,0.00,0.66,0.38,9.29,-0.00,0.00,0.00
2026-06-23 20:02:10.644,0.00,991.44,99144.13,nan,0.00,0.65,0.38,9.33,-0.00,0.00,0.00
2026-06-23 20:02:10.645,0.00,991.44,99144.13,nan,0.00,0.65,0.38,9.33,-0.00,0.00,0.00
2026-06-23 20:02:10.646,0.00,991.44,99144.13,nan,0.00,0.65,0.38,9.33,-0.00,0.00,0.00
2026-06-23 20:02:10.647,0.00,991.44,99144.13,nan,0.00,0.65,0.38,9.33,-0.00,0.00,0.00
2026-06-23 20:02:10.653,0.00,991.44,99144.13,nan,0.00,0.65,0.38,9.33,-0.00,0.00,0.00
2026-06-23 20:02:10.654,0.00,991.44,99144.13,nan,0.00,0.67,0.38,9.30,-0.00,0.00,0.00
2026-06-23 20:02:10.656,0.00,991.44,99144.13,nan,0.00,0.67,0.38,9.30,-0.00,0.00,0.00
2026-06-23 20:02:10.657,0.00,991.44,99144.13,nan,0.00,0.67,0.38,9.30,-0.00,0.00,0.00
2026-06-23 20:02:10.658,0.00,991.44,99144.13,nan,0.00,0.67,0.38,9.30,-0.00,0.00,0.00
2026-06-23 20:02:10.659,0.00,991.44,99144.13,nan,0.00,0.67,0.38,9.30,-0.00,0.00,0.00
2026-06-23 20:02:10.660,0.00,991.44,99144.13,nan,0.00,0.67,0.38,9.30,-0.00,0.00,0.00
2026-06-23 20:02:10.662,0.00,991.44,99144.13,nan,0.00,0.67,0.38,9.30,-0.00,0.00,0.00
2026-06-23 20:02:10.664,0.00,991.44,99144.13,nan,0.00,0.65,0.36,9.28,-0.00,0.00,0.00
2026-06-23 20:02:10.665,0.00,991.44,99144.13,nan,0.00,0.65,0.36,9.28,-0.00,0.00,0.00
2026-06-23 20:02:10.666,0.00,991.44,99144.13,nan,0.00,0.65,0.36,9.28,-0.00,0.00,0.00
2026-06-23 20:02:10.669,0.00,991.44,99144.13,nan,0.00,0.65,0.36,9.28,-0.00,0.00,0.00
2026-06-23 20:02:10.673,0.00,991.44,99144.13,nan,0.00,0.65,0.36,9.28,-0.00,0.00,0.00
2026-06-23 20:02:10.674,0.00,991.44,99144.13,nan,0.00,0.66,0.38,9.31,-0.00,0.00,0.00
2026-06-23 20:02:10.675,0.00,991.44,99144.13,nan,0.00,0.66,0.38,9.31,-0.00,0.00,0.00
2026-06-23 20:02:10.676,0.00,991.44,99144.13,nan,0.00,0.66,0.38,9.31,-0.00,0.00,0.00
2026-06-23 20:02:10.679,0.00,991.44,99144.13,nan,0.00,0.66,0.38,9.31,-0.00,0.00,0.00
2026-06-23 20:02:10.683,0.00,991.44,99144.13,nan,0.00,0.66,0.38,9.31,-0.00,0.00,0.00
2026-06-23 20:02:10.684,0.00,991.44,99144.13,nan,0.00,0.66,0.39,9.28,-0.00,0.00,0.00
2026-06-23 20:02:10.686,0.00,991.44,99144.13,nan,0.00,0.66,0.39,9.28,-0.00,0.00,0.00
2026-06-23 20:02:10.687,0.00,991.44,99144.13,nan,0.00,0.66,0.39,9.28,-0.00,0.00,0.00
2026-06-23 20:02:10.692,0.00,991.44,99144.13,nan,0.00,0.66,0.39,9.28,-0.00,0.00,0.00
2026-06-23 20:02:10.693,0.00,991.44,99144.13,nan,0.00,0.65,0.40,9.31,0.00,0.00,0.00
2026-06-23 20:02:10.695,0.00,991.44,99144.13,nan,0.00,0.65,0.40,9.31,0.00,0.00,0.00
2026-06-23 20:02:10.696,0.00,991.44,99144.13,nan,0.00,0.65,0.40,9.31,0.00,0.00,0.00
2026-06-23 20:02:10.697,0.00,991.44,99144.13,nan,0.00,0.65,0.40,9.31,0.00,0.00,0.00
2026-06-23 20:02:10.702,0.00,991.44,99144.13,nan,0.00,0.65,0.40,9.31,0.00,0.00,0.00
2026-06-23 20:02:10.704,0.00,991.44,99144.13,nan,0.00,0.67,0.39,9.31,-0.00,-0.00,0.00
2026-06-23 20:02:10.705,0.00,991.44,99144.13,nan,0.00,0.67,0.39,9.31,-0.00,-0.00,0.00
2026-06-23 20:02:10.706,0.00,991.44,99144.13,nan,0.00,0.67,0.39,9.31,-0.00,-0.00,0.00
2026-06-23 20:02:10.708,0.00,991.44,99144.13,nan,0.00,0.67,0.39,9.31,-0.00,-0.00,0.00
2026-06-23 20:02:10.709,0.00,991.44,99144.13,nan,0.00,0.67,0.39,9.31,-0.00,-0.00,0.00
2026-06-23 20:02:10.710,0.00,991.44,99144.13,nan,0.00,0.67,0.39,9.31,-0.00,-0.00,0.00
2026-06-23 20:02:10.712,0.00,991.44,99144.13,nan,0.00,0.67,0.39,9.31,-0.00,-0.00,0.00
2026-06-23 20:02:10.713,0.00,991.44,99144.13,nan,0.00,0.66,0.36,9.28,-0.00,0.00,0.00
2026-06-23 20:02:10.714,0.00,991.44,99144.13,nan,0.00,0.66,0.36,9.28,-0.00,0.00,0.00
2026-06-23 20:02:10.715,0.00,991.44,99144.13,nan,0.00,0.66,0.36,9.28,-0.00,0.00,0.00
2026-06-23 20:02:10.717,0.00,991.44,99144.13,nan,0.00,0.66,0.36,9.28,-0.00,0.00,0.00
2026-06-23 20:02:10.722,0.00,991.44,99144.13,nan,0.00,0.66,0.36,9.28,-0.00,0.00,0.00
2026-06-23 20:02:10.913,0.00,991.51,99151.38,nan,0.00,0.66,0.38,9.31,-0.00,0.00,0.00
2026-06-23 20:02:10.916,0.00,991.51,99151.38,nan,0.00,0.66,0.37,9.30,-0.00,0.00,0.00
2026-06-23 20:02:10.917,0.00,991.51,99151.38,nan,0.00,0.66,0.37,9.30,-0.00,0.00,0.00
2026-06-23 20:02:10.921,0.00,991.51,99151.38,nan,0.00,0.66,0.37,9.30,-0.00,0.00,0.00
2026-06-23 20:02:10.923,0.00,991.51,99151.38,nan,0.00,0.66,0.37,9.30,0.00,-0.00,0.00
2026-06-23 20:02:10.925,0.00,991.51,99151.38,nan,0.00,0.66,0.37,9.30,0.00,-0.00,0.00
2026-06-23 20:02:10.926,0.00,991.51,99151.38,nan,0.00,0.66,0.37,9.30,0.00,-0.00,0.00
2026-06-23 20:02:10.927,0.00,991.51,99151.38,nan,0.00,0.66,0.37,9.30,0.00,-0.00,0.00
2026-06-23 20:02:10.929,0.00,991.51,99151.38,nan,0.00,0.66,0.37,9.30,0.00,-0.00,0.00
2026-06-23 20:02:10.933,0.00,991.51,99151.38,nan,0.00,0.66,0.37,9.30,-0.00,0.00,0.00
2026-06-23 20:02:10.935,0.00,991.51,99151.38,nan,0.00,0.67,0.38,9.27,-0.00,0.00,0.00
2026-06-23 20:02:10.936,0.00,991.51,99151.38,nan,0.00,0.67,0.38,9.27,-0.00,0.00,0.00
2026-06-23 20:02:10.938,0.00,991.51,99151.38,nan,0.00,0.67,0.38,9.27,-0.00,0.00,0.00
2026-06-23 20:02:10.943,0.00,991.51,99151.38,nan,0.00,0.67,0.38,9.27,-0.00,0.00,0.00
2026-06-23 20:02:10.944,0.00,991.51,99151.38,nan,0.00,0.66,0.38,9.32,-0.00,-0.00,0.00
2026-06-23 20:02:10.945,0.00,991.51,99151.38,nan,0.00,0.66,0.38,9.32,-0.00,-0.00,0.00
2026-06-23 20:02:10.946,0.00,991.51,99151.38,nan,0.00,0.66,0.38,9.32,-0.00,-0.00,0.00
2026-06-23 20:02:10.948,0.00,991.51,99151.38,nan,0.00,0.66,0.38,9.32,-0.00,-0.00,0.00
2026-06-23 20:02:10.952,0.00,991.51,99151.38,nan,0.00,0.66,0.38,9.32,-0.00,-0.00,0.00
2026-06-23 20:02:10.954,0.00,991.51,99151.38,nan,0.00,0.65,0.39,9.29,0.00,0.00,0.00
2026-06-23 20:02:10.956,0.00,991.51,99151.38,nan,0.00,0.65,0.39,9.29,0.00,0.00,0.00
2026-06-23 20:02:10.957,0.00,991.51,99151.38,nan,0.00,0.65,0.39,9.29,0.00,0.00,0.00
2026-06-23 20:02:10.958,0.00,991.51,99151.38,nan,0.00,0.65,0.39,9.29,0.00,0.00,0.00
2026-06-23 20:02:10.959,0.00,991.51,99151.38,nan,0.00,0.65,0.39,9.29,0.00,0.00,0.00
2026-06-23 20:02:10.961,0.00,991.51,99151.38,nan,0.00,0.65,0.39,9.29,0.00,0.00,0.00
2026-06-23 20:02:10.962,0.00,991.51,99151.38,nan,0.00,0.65,0.39,9.29,0.00,0.00,0.00
2026-06-23 20:02:10.963,0.00,991.51,99151.38,nan,0.00,0.65,0.39,9.29,0.00,0.00,-0.00
2026-06-23 20:02:10.965,0.00,991.51,99151.38,nan,0.00,0.65,0.37,9.31,0.00,0.00,-0.00
2026-06-23 20:02:10.966,0.00,991.51,99151.38,nan,0.00,0.65,0.37,9.31,0.00,0.00,-0.00
2026-06-23 20:02:10.967,0.00,991.51,99151.38,nan,0.00,0.65,0.37,9.31,0.00,0.00,-0.00
2026-06-23 20:02:10.971,0.00,991.51,99151.38,nan,0.00,0.65,0.37,9.31,0.00,0.00,-0.00
2026-06-23 20:02:10.974,0.00,991.51,99151.38,nan,0.00,0.65,0.37,9.31,0.00,0.00,-0.00
2026-06-23 20:02:10.975,0.00,991.51,99151.38,nan,0.00,0.65,0.41,9.31,0.00,0.00,-0.00
2026-06-23 20:02:10.976,0.00,991.51,99151.38,nan,0.00,0.65,0.41,9.31,0.00,0.00,-0.00
2026-06-23 20:02:10.977,0.00,991.51,99151.38,nan,0.00,0.65,0.41,9.31,0.00,0.00,-0.00
2026-06-23 20:02:10.978,0.00,991.51,99151.38,nan,0.00,0.65,0.41,9.31,0.00,0.00,-0.00
2026-06-23 20:02:10.983,0.00,991.51,99151.38,nan,0.00,0.65,0.41,9.31,0.00,0.00,-0.00
2026-06-23 20:02:10.985,0.00,991.51,99151.38,nan,0.00,0.67,0.37,9.28,-0.00,0.00,0.00
2026-06-23 20:02:10.986,0.00,991.51,99151.38,nan,0.00,0.67,0.37,9.28,-0.00,0.00,0.00
2026-06-23 20:02:10.988,0.00,991.51,99151.38,nan,0.00,0.67,0.37,9.28,-0.00,0.00,0.00
2026-06-23 20:02:10.991,0.00,991.51,99151.38,nan,0.00,0.67,0.37,9.28,-0.00,0.00,0.00
2026-06-23 20:02:10.994,0.00,991.51,99151.38,nan,0.00,0.67,0.37,9.28,0.00,-0.00,0.00
2026-06-23 20:02:10.995,0.00,991.51,99151.38,nan,0.00,0.67,0.39,9.28,0.00,-0.00,0.00
2026-06-23 20:02:10.996,0.00,991.51,99151.38,nan,0.00,0.67,0.39,9.28,0.00,-0.00,0.00
2026-06-23 20:02:10.997,0.00,991.51,99151.38,nan,0.00,0.67,0.39,9.28,0.00,-0.00,0.00
2026-06-23 20:02:10.998,0.00,991.51,99151.38,nan,0.00,0.67,0.39,9.28,0.00,-0.00,0.00
2026-06-23 20:02:10.003,0.00,991.51,99151.38,nan,0.00,0.67,0.39,9.28,0.00,-0.00,0.00
2026-06-23 20:02:11.005,0.00,991.51,99151.38,nan,0.00,0.65,0.39,9.31,0.00,-0.00,0.00
2026-06-23 20:02:11.006,0.00,991.51,99151.38,nan,0.00,0.65,0.39,9.31,0.00,-0.00,0.00
2026-06-23 20:02:11.007,0.00,991.51,99151.38,nan,0.00,0.65,0.39,9.31,0.00,-0.00,0.00
2026-06-23 20:02:11.008,0.00,991.51,99151.38,nan,0.00,0.65,0.39,9.31,0.00,-0.00,0.00
2026-06-23 20:02:11.010,0.00,991.51,99151.38,nan,0.00,0.65,0.39,9.31,0.00,-0.00,0.00
2026-06-23 20:02:11.011,0.00,991.51,99151.38,nan,0.00,0.65,0.39,9.31,0.00,-0.00,0.00
2026-06-23 20:02:11.204,0.00,991.51,99151.30,nan,0.00,0.66,0.39,9.30,0.00,-0.00,0.00
2026-06-23 20:02:11.206,0.00,991.51,99151.30,nan,0.00,0.66,0.40,9.31,0.00,-0.00,0.00
2026-06-23 20:02:11.207,0.00,991.51,99151.30,nan,0.00,0.66,0.40,9.31,0.00,-0.00,0.00
2026-06-23 20:02:11.208,0.00,991.51,99151.30,nan,0.00,0.66,0.40,9.31,0.00,-0.00,0.00
2026-06-23 20:02:11.209,0.00,991.51,99151.30,nan,0.00,0.66,0.40,9.31,0.00,-0.00,0.00
2026-06-23 20:02:11.210,0.00,991.51,99151.30,nan,0.00,0.66,0.40,9.31,0.00,-0.00,0.00
2026-06-23 20:02:11.211,0.00,991.51,99151.30,nan,0.00,0.66,0.40,9.31,0.00,-0.00,0.00
2026-06-23 20:02:11.214,0.00,991.51,99151.30,nan,0.00,0.66,0.40,9.31,0.00,-0.00,0.00
2026-06-23 20:02:11.215,0.00,991.51,99151.30,nan,0.00,0.66,0.39,9.28,0.00,-0.00,0.00
2026-06-23 20:02:11.216,0.00,991.51,99151.30,nan,0.00,0.66,0.39,9.28,0.00,-0.00,0.00
2026-06-23 20:02:11.218,0.00,991.51,99151.30,nan,0.00,0.66,0.39,9.28,0.00,-0.00,0.00
2026-06-23 20:02:11.223,0.00,991.51,99151.30,nan,0.00,0.66,0.39,9.28,0.00,-0.00,0.00
2026-06-23 20:02:11.225,0.00,991.51,99151.30,nan,0.00,0.66,0.38,9.30,0.00,0.00,-0.00
2026-06-23 20:02:11.226,0.00,991.51,99151.30,nan,0.00,0.66,0.38,9.30,0.00,0.00,-0.00
2026-06-23 20:02:11.227,0.00,991.51,99151.30,nan,0.00,0.66,0.38,9.30,0.00,0.00,-0.00
2026-06-23 20:02:11.229,0.00,991.51,99151.30,nan,0.00,0.66,0.38,9.30,0.00,0.00,-0.00
2026-06-23 20:02:11.234,0.00,991.51,99151.30,nan,0.00,0.66,0.38,9.30,0.00,0.00,-0.00
2026-06-23 20:02:11.235,0.00,991.51,99151.30,nan,0.00,0.67,0.37,9.28,-0.00,0.00,0.00
2026-06-23 20:02:11.237,0.00,991.51,99151.30,nan,0.00,0.67,0.37,9.28,-0.00,0.00,0.00
2026-06-23 20:02:11.239,0.00,991.51,99151.30,nan,0.00,0.67,0.37,9.28,-0.00,0.00,0.00
2026-06-23 20:02:11.244,0.00,991.51,99151.30,nan,0.00,0.67,0.37,9.28,-0.00,0.00,0.00
2026-06-23 20:02:11.245,0.00,991.51,99151.30,nan,0.00,0.66,0.39,9.31,0.00,0.00,0.00
2026-06-23 20:02:11.246,0.00,991.51,99151.30,nan,0.00,0.66,0.39,9.31,0.00,0.00,0.00
2026-06-23 20:02:11.247,0.00,991.51,99151.30,nan,0.00,0.66,0.39,9.31,0.00,0.00,0.00
2026-06-23 20:02:11.249,0.00,991.51,99151.30,nan,0.00,0.66,0.39,9.31,0.00,0.00,0.00
2026-06-23 20:02:11.254,0.00,991.51,99151.30,nan,0.00,0.66,0.39,9.31,-0.00,0.00,0.00
2026-06-23 20:02:11.256,0.00,991.51,99151.30,nan,0.00,0.66,0.38,9.31,-0.00,0.00,0.00
2026-06-23 20:02:11.257,0.00,991.51,99151.30,nan,0.00,0.66,0.38,9.31,-0.00,0.00,0.00
2026-06-23 20:02:11.258,0.00,991.51,99151.30,nan,0.00,0.66,0.38,9.31,-0.00,0.00,0.00
2026-06-23 20:02:11.259,0.00,991.51,99151.30,nan,0.00,0.66,0.38,9.31,-0.00,0.00,0.00
2026-06-23 20:02:11.260,0.00,991.51,99151.30,nan,0.00,0.66,0.38,9.31,-0.00,0.00,0.00
2026-06-23 20:02:11.262,0.00,991.51,99151.30,nan,0.00,0.66,0.38,9.31,-0.00,0.00,0.00
2026-06-23 20:02:11.264,0.00,991.51,99151.30,nan,0.00,0.66,0.38,9.31,0.00,0.00,0.00
2026-06-23 20:02:11.265,0.00,991.51,99151.30,nan,0.00,0.66,0.39,9.29,0.00,0.00,0.00
2026-06-23 20:02:11.267,0.00,991.51,99151.30,nan,0.00,0.66,0.39,9.29,0.00,0.00,0.00
2026-06-23 20:02:11.268,0.00,991.51,99151.30,nan,0.00,0.66,0.39,9.29,0.00,0.00,0.00
2026-06-23 20:02:11.274,0.00,991.51,99151.30,nan,0.00,0.66,0.39,9.29,0.00,0.00,0.00
2026-06-23 20:02:11.275,0.00,991.51,99151.30,nan,0.00,0.65,0.39,9.29,0.00,-0.00,-0.00
2026-06-23 20:02:11.276,0.00,991.51,99151.30,nan,0.00,0.65,0.39,9.29,0.00,-0.00,-0.00
2026-06-23 20:02:11.277,0.00,991.51,99151.30,nan,0.00,0.65,0.39,9.29,0.00,-0.00,-0.00
2026-06-23 20:02:11.280,0.00,991.51,99151.30,nan,0.00,0.65,0.39,9.29,0.00,-0.00,-0.00
2026-06-23 20:02:11.284,0.00,991.51,99151.30,nan,0.00,0.65,0.39,9.29,0.00,0.00,0.00
2026-06-23 20:02:11.285,0.00,991.51,99151.30,nan,0.00,0.66,0.38,9.27,0.00,0.00,0.00
2026-06-23 20:02:11.287,0.00,991.51,99151.30,nan,0.00,0.66,0.38,9.27,0.00,0.00,0.00
2026-06-23 20:02:11.289,0.00,991.51,99151.30,nan,0.00,0.66,0.38,9.27,0.00,0.00,0.00
2026-06-23 20:02:11.294,0.00,991.51,99151.30,nan,0.00,0.66,0.38,9.27,0.00,0.00,0.00
2026-06-23 20:02:11.295,0.00,991.51,99151.30,nan,0.00,0.67,0.38,9.31,0.00,-0.00,0.00
2026-06-23 20:02:11.296,0.00,991.51,99151.30,nan,0.00,0.67,0.38,9.31,0.00,-0.00,0.00
2026-06-23 20:02:11.297,0.00,991.51,99151.30,nan,0.00,0.67,0.38,9.31,0.00,-0.00,0.00
2026-06-23 20:02:11.298,0.00,991.51,99151.30,nan,0.00,0.67,0.38,9.31,0.00,-0.00,0.00
2026-06-23 20:02:11.304,0.00,991.51,99151.30,nan,0.00,0.67,0.38,9.31,0.00,-0.00,0.00
2026-06-23 20:02:11.495,0.00,991.47,99147.27,nan,0.00,0.66,0.39,9.28,0.00,0.00,-0.00
2026-06-23 20:02:11.496,0.00,991.47,99147.27,nan,0.00,0.66,0.40,9.28,0.00,0.00,-0.00
2026-06-23 20:02:11.497,0.00,991.47,99147.27,nan,0.00,0.66,0.40,9.28,0.00,0.00,-0.00
2026-06-23 20:02:11.498,0.00,991.47,99147.27,nan,0.00,0.66,0.40,9.28,0.00,0.00,-0.00
2026-06-23 20:02:11.504,0.00,991.47,99147.27,nan,0.00,0.66,0.40,9.28,0.00,0.00,-0.00
2026-06-23 20:02:11.505,0.00,991.47,99147.27,nan,0.00,0.66,0.38,9.29,-0.00,-0.00,0.00
2026-06-23 20:02:11.507,0.00,991.47,99147.27,nan,0.00,0.66,0.38,9.29,-0.00,-0.00,0.00
2026-06-23 20:02:11.508,0.00,991.47,99147.27,nan,0.00,0.66,0.38,9.29,-0.00,-0.00,0.00
2026-06-23 20:02:11.509,0.00,991.47,99147.27,nan,0.00,0.66,0.38,9.29,-0.00,-0.00,0.00
2026-06-23 20:02:11.510,0.00,991.47,99147.27,nan,0.00,0.66,0.38,9.29,-0.00,-0.00,0.00
2026-06-23 20:02:11.511,0.00,991.47,99147.27,nan,0.00,0.66,0.38,9.29,-0.00,-0.00,0.00
2026-06-23 20:02:11.513,0.00,991.47,99147.27,nan,0.00,0.66,0.38,9.29,-0.00,-0.00,0.00
2026-06-23 20:02:11.516,0.00,991.47,99147.27,nan,0.00,0.66,0.38,9.29,0.00,-0.00,-0.00
2026-06-23 20:02:11.517,0.00,991.47,99147.27,nan,0.00,0.66,0.37,9.30,0.00,-0.00,-0.00
2026-06-23 20:02:11.520,0.00,991.47,99147.27,nan,0.00,0.66,0.37,9.30,0.00,-0.00,-0.00
2026-06-23 20:02:11.524,0.00,991.47,99147.27,nan,0.00,0.66,0.37,9.30,-0.00,-0.00,0.00
2026-06-23 20:02:11.526,0.00,991.47,99147.27,nan,0.00,0.66,0.36,9.29,-0.00,-0.00,0.00
2026-06-23 20:02:11.527,0.00,991.47,99147.27,nan,0.00,0.66,0.36,9.29,-0.00,-0.00,0.00
2026-06-23 20:02:11.528,0.00,991.47,99147.27,nan,0.00,0.66,0.36,9.29,-0.00,-0.00,0.00
2026-06-23 20:02:11.531,0.00,991.47,99147.27,nan,0.00,0.66,0.36,9.29,-0.00,-0.00,0.00
2026-06-23 20:02:11.535,0.00,991.47,99147.27,nan,0.00,0.66,0.36,9.29,0.00,-0.00,0.00
2026-06-23 20:02:11.536,0.00,991.47,99147.27,nan,0.00,0.67,0.39,9.28,0.00,-0.00,0.00
2026-06-23 20:02:11.538,0.00,991.47,99147.27,nan,0.00,0.67,0.39,9.28,0.00,-0.00,0.00
2026-06-23 20:02:11.542,0.00,991.47,99147.27,nan,0.00,0.67,0.39,9.28,0.00,-0.00,0.00
2026-06-23 20:02:11.545,0.00,991.47,99147.27,nan,0.00,0.67,0.39,9.28,0.00,-0.00,0.00
2026-06-23 20:02:11.546,0.00,991.47,99147.27,nan,0.00,0.66,0.38,9.28,0.00,-0.00,0.00
2026-06-23 20:02:11.547,0.00,991.47,99147.27,nan,0.00,0.66,0.38,9.28,0.00,-0.00,0.00
2026-06-23 20:02:11.549,0.00,991.47,99147.27,nan,0.00,0.66,0.38,9.28,0.00,-0.00,0.00
2026-06-23 20:02:11.555,0.00,991.47,99147.27,nan,0.00,0.66,0.38,9.28,0.00,-0.00,0.00
2026-06-23 20:02:11.556,0.00,991.47,99147.27,nan,0.00,0.66,0.39,9.31,0.00,0.00,-0.00
2026-06-23 20:02:11.558,0.00,991.47,99147.27,nan,0.00,0.66,0.39,9.31,0.00,0.00,-0.00
2026-06-23 20:02:11.560,0.00,991.47,99147.27,nan,0.00,0.66,0.39,9.31,0.00,0.00,-0.00
2026-06-23 20:02:11.561,0.00,991.47,99147.27,nan,0.00,0.66,0.39,9.31,0.00,0.00,-0.00
2026-06-23 20:02:11.562,0.00,991.47,99147.27,nan,0.00,0.66,0.39,9.31,0.00,0.00,-0.00
2026-06-23 20:02:11.565,0.00,991.47,99147.27,nan,0.00,0.66,0.39,9.31,0.00,-0.00,0.00
2026-06-23 20:02:11.566,0.00,991.47,99147.27,nan,0.00,0.67,0.41,9.31,0.00,-0.00,0.00
2026-06-23 20:02:11.568,0.00,991.47,99147.27,nan,0.00,0.67,0.41,9.31,0.00,-0.00,0.00
2026-06-23 20:02:11.570,0.00,991.47,99147.27,nan,0.00,0.67,0.41,9.31,0.00,-0.00,0.00
2026-06-23 20:02:11.575,0.00,991.47,99147.27,nan,0.00,0.67,0.41,9.31,-0.00,-0.00,-0.00
2026-06-23 20:02:11.576,0.00,991.47,99147.27,nan,0.00,0.66,0.39,9.30,-0.00,-0.00,-0.00
2026-06-23 20:02:11.577,0.00,991.47,99147.27,nan,0.00,0.66,0.39,9.30,-0.00,-0.00,-0.00
2026-06-23 20:02:11.578,0.00,991.47,99147.27,nan,0.00,0.66,0.39,9.30,-0.00,-0.00,-0.00
2026-06-23 20:02:11.581,0.00,991.47,99147.27,nan,0.00,0.66,0.39,9.30,-0.00,-0.00,-0.00
2026-06-23 20:02:11.585,0.00,991.47,99147.27,nan,0.00,0.66,0.39,9.30,0.00,-0.00,0.00
2026-06-23 20:02:11.586,0.00,991.47,99147.27,nan,0.00,0.66,0.38,9.24,0.00,-0.00,0.00
2026-06-23 20:02:11.588,0.00,991.47,99147.27,nan,0.00,0.66,0.38,9.24,0.00,-0.00,0.00
2026-06-23 20:02:11.591,0.00,991.47,99147.27,nan,0.00,0.66,0.38,9.24,0.00,-0.00,0.00
2026-06-23 20:02:11.595,0.00,991.47,99147.27,nan,0.00,0.66,0.38,9.24,-0.00,0.00,0.00
2026-06-23 20:02:11.786,0.00,991.50,99149.97,nan,0.00,0.66,0.36,9.31,-0.00,-0.00,0.00
2026-06-23 20:02:11.787,0.00,991.50,99149.97,nan,0.00,0.66,0.38,9.31,-0.00,-0.00,0.00
2026-06-23 20:02:11.789,0.00,991.50,99149.97,nan,0.00,0.66,0.38,9.31,-0.00,-0.00,0.00
2026-06-23 20:02:11.790,0.00,991.50,99149.97,nan,0.00,0.66,0.38,9.31,-0.00,-0.00,0.00
2026-06-23 20:02:11.795,0.00,991.50,99149.97,nan,0.00,0.66,0.38,9.31,-0.00,-0.00,0.00
2026-06-23 20:02:11.796,0.00,991.50,99149.97,nan,0.00,0.66,0.38,9.29,-0.00,0.00,0.00
2026-06-23 20:02:11.797,0.00,991.50,99149.97,nan,0.00,0.66,0.38,9.29,-0.00,0.00,0.00
2026-06-23 20:02:11.798,0.00,991.50,99149.97,nan,0.00,0.66,0.38,9.29,-0.00,0.00,0.00
2026-06-23 20:02:11.799,0.00,991.50,99149.97,nan,0.00,0.66,0.38,9.29,-0.00,0.00,0.00
2026-06-23 20:02:11.805,0.00,991.50,99149.97,nan,0.00,0.66,0.38,9.29,-0.00,0.00,0.00
2026-06-23 20:02:11.806,0.00,991.50,99149.97,nan,0.00,0.67,0.39,9.31,0.00,0.00,0.00
2026-06-23 20:02:11.808,0.00,991.50,99149.97,nan,0.00,0.67,0.39,9.31,0.00,0.00,0.00
2026-06-23 20:02:11.809,0.00,991.50,99149.97,nan,0.00,0.67,0.39,9.31,0.00,0.00,0.00
2026-06-23 20:02:11.810,0.00,991.50,99149.97,nan,0.00,0.67,0.39,9.31,0.00,0.00,0.00
2026-06-23 20:02:11.811,0.00,991.50,99149.97,nan,0.00,0.67,0.39,9.31,0.00,0.00,0.00
2026-06-23 20:02:11.812,0.00,991.50,99149.97,nan,0.00,0.67,0.39,9.31,0.00,0.00,0.00
2026-06-23 20:02:11.815,0.00,991.50,99149.97,nan,0.00,0.67,0.39,9.31,0.00,0.00,0.00
2026-06-23 20:02:11.816,0.00,991.50,99149.97,nan,0.00,0.65,0.38,9.28,0.00,-0.00,-0.00
2026-06-23 20:02:11.818,0.00,991.50,99149.97,nan,0.00,0.65,0.38,9.28,0.00,-0.00,-0.00
2026-06-23 20:02:11.819,0.00,991.50,99149.97,nan,0.00,0.65,0.38,9.28,0.00,-0.00,-0.00
2026-06-23 20:02:11.825,0.00,991.50,99149.97,nan,0.00,0.65,0.38,9.28,0.00,-0.00,-0.00
2026-06-23 20:02:11.826,0.00,991.50,99149.97,nan,0.00,0.66,0.39,9.30,0.00,0.00,0.00
2026-06-23 20:02:11.827,0.00,991.50,99149.97,nan,0.00,0.66,0.39,9.30,0.00,0.00,0.00
2026-06-23 20:02:11.828,0.00,991.50,99149.97,nan,0.00,0.66,0.39,9.30,0.00,0.00,0.00
2026-06-23 20:02:11.830,0.00,991.50,99149.97,nan,0.00,0.66,0.39,9.30,0.00,0.00,0.00
2026-06-23 20:02:11.835,0.00,991.50,99149.97,nan,0.00,0.66,0.39,9.30,0.00,0.00,0.00
2026-06-23 20:02:11.836,0.00,991.50,99149.97,nan,0.00,0.67,0.38,9.27,-0.00,0.00,-0.00
2026-06-23 20:02:11.838,0.00,991.50,99149.97,nan,0.00,0.67,0.38,9.27,-0.00,0.00,-0.00
2026-06-23 20:02:11.839,0.00,991.50,99149.97,nan,0.00,0.67,0.38,9.27,-0.00,0.00,-0.00
2026-06-23 20:02:11.844,0.00,991.50,99149.97,nan,0.00,0.67,0.38,9.27,-0.00,0.00,-0.00
2026-06-23 20:02:11.846,0.00,991.50,99149.97,nan,0.00,0.66,0.40,9.31,0.00,0.00,0.00
2026-06-23 20:02:11.847,0.00,991.50,99149.97,nan,0.00,0.66,0.40,9.31,0.00,0.00,0.00
2026-06-23 20:02:11.848,0.00,991.50,99149.97,nan,0.00,0.66,0.40,9.31,0.00,0.00,0.00
2026-06-23 20:02:11.850,0.00,991.50,99149.97,nan,0.00,0.66,0.40,9.31,0.00,0.00,0.00
2026-06-23 20:02:11.855,0.00,991.50,99149.97,nan,0.00,0.66,0.40,9.31,0.00,0.00,0.00
2026-06-23 20:02:11.857,0.00,991.50,99149.97,nan,0.00,0.66,0.36,9.33,0.00,-0.00,0.00
2026-06-23 20:02:11.858,0.00,991.50,99149.97,nan,0.00,0.66,0.36,9.33,0.00,-0.00,0.00
2026-06-23 20:02:11.859,0.00,991.50,99149.97,nan,0.00,0.66,0.36,9.33,0.00,-0.00,0.00
2026-06-23 20:02:11.860,0.00,991.50,99149.97,nan,0.00,0.66,0.36,9.33,0.00,-0.00,0.00
2026-06-23 20:02:11.861,0.00,991.50,99149.97,nan,0.00,0.66,0.36,9.33,0.00,-0.00,0.00
2026-06-23 20:02:11.862,0.00,991.50,99149.97,nan,0.00,0.66,0.36,9.33,0.00,-0.00,0.00
2026-06-23 20:02:11.865,0.00,991.50,99149.97,nan,0.00,0.66,0.36,9.33,0.00,-0.00,0.00
2026-06-23 20:02:11.866,0.00,991.50,99149.97,nan,0.00,0.66,0.38,9.29,0.00,-0.00,0.00
2026-06-23 20:02:11.868,0.00,991.50,99149.97,nan,0.00,0.66,0.38,9.29,0.00,-0.00,0.00
2026-06-23 20:02:11.869,0.00,991.50,99149.97,nan,0.00,0.66,0.38,9.29,0.00,-0.00,0.00
2026-06-23 20:02:11.875,0.00,991.50,99149.97,nan,0.00,0.66,0.38,9.29,0.00,-0.00,0.00
2026-06-23 20:02:11.876,0.00,991.50,99149.97,nan,0.00,0.66,0.38,9.29,0.00,-0.00,0.00
2026-06-23 20:02:11.877,0.00,991.50,99149.97,nan,0.00,0.66,0.38,9.29,0.00,-0.00,0.00
2026-06-23 20:02:11.879,0.00,991.50,99149.97,nan,0.00,0.66,0.38,9.29,0.00,-0.00,0.00
2026-06-23 20:02:11.881,0.00,991.50,99149.97,nan,0.00,0.66,0.38,9.29,0.00,-0.00,0.00
2026-06-23 20:02:11.885,0.00,991.50,99149.97,nan,0.00,0.66,0.38,9.29,-0.00,0.00,0.00
2026-06-23 20:02:12.076,0.00,991.50,99149.68,nan,0.00,0.66,0.39,9.31,-0.00,-0.00,0.00
2026-06-23 20:02:12.077,0.00,991.50,99149.68,nan,0.00,0.66,0.38,9.31,-0.00,-0.00,0.00
2026-06-23 20:02:12.079,0.00,991.50,99149.68,nan,0.00,0.66,0.38,9.31,-0.00,-0.00,0.00
2026-06-23 20:02:12.080,0.00,991.50,99149.68,nan,0.00,0.66,0.38,9.31,-0.00,-0.00,0.00
2026-06-23 20:02:12.084,0.00,991.50,99149.68,nan,0.00,0.66,0.38,9.31,-0.00,-0.00,0.00
2026-06-23 20:02:12.086,0.00,991.50,99149.68,nan,0.00,0.66,0.37,9.28,-0.00,-0.00,0.00
2026-06-23 20:02:12.088,0.00,991.50,99149.68,nan,0.00,0.66,0.37,9.28,-0.00,-0.00,0.00
2026-06-23 20:02:12.089,0.00,991.50,99149.68,nan,0.00,0.66,0.37,9.28,-0.00,-0.00,0.00
2026-06-23 20:02:12.090,0.00,991.50,99149.68,nan,0.00,0.66,0.37,9.28,-0.00,-0.00,0.00
2026-06-23 20:02:12.095,0.00,991.50,99149.68,nan,0.00,0.66,0.37,9.28,-0.00,-0.00,0.00
2026-06-23 20:02:12.096,0.00,991.50,99149.68,nan,0.00,0.66,0.39,9.27,0.00,0.00,0.00
2026-06-23 20:02:12.097,0.00,991.50,99149.68,nan,0.00,0.66,0.39,9.27,0.00,0.00,0.00
2026-06-23 20:02:12.099,0.00,991.50,99149.68,nan,0.00,0.66,0.39,9.27,0.00,0.00,0.00
2026-06-23 20:02:12.100,0.00,991.50,99149.68,nan,0.00,0.66,0.39,9.27,0.00,0.00,0.00
2026-06-23 20:02:12.106,0.00,991.50,99149.68,nan,0.00,0.66,0.39,9.27,0.00,0.00,0.00
2026-06-23 20:02:12.107,0.00,991.50,99149.68,nan,0.00,0.67,0.38,9.30,-0.00,-0.00,-0.00
2026-06-23 20:02:12.108,0.00,991.50,99149.68,nan,0.00,0.67,0.38,9.30,-0.00,-0.00,-0.00
2026-06-23 20:02:12.109,0.00,991.50,99149.68,nan,0.00,0.67,0.38,9.30,-0.00,-0.00,-0.00
2026-06-23 20:02:12.111,0.00,991.50,99149.68,nan,0.00,0.67,0.38,9.30,-0.00,-0.00,-0.00
2026-06-23 20:02:12.112,0.00,991.50,99149.68,nan,0.00,0.67,0.38,9.30,-0.00,-0.00,-0.00
2026-06-23 20:02:12.113,0.00,991.50,99149.68,nan,0.00,0.67,0.38,9.30,-0.00,-0.00,-0.00
2026-06-23 20:02:12.115,0.00,991.50,99149.68,nan,0.00,0.67,0.38,9.30,-0.00,-0.00,-0.00
2026-06-23 20:02:12.117,0.00,991.50,99149.68,nan,0.00,0.65,0.37,9.31,0.00,0.00,-0.00
2026-06-23 20:02:12.118,0.00,991.50,99149.68,nan,0.00,0.65,0.37,9.31,0.00,0.00,-0.00
2026-06-23 20:02:12.120,0.00,991.50,99149.68,nan,0.00,0.65,0.37,9.31,0.00,0.00,-0.00
2026-06-23 20:02:12.125,0.00,991.50,99149.68,nan,0.00,0.65,0.37,9.31,0.00,0.00,-0.00
2026-06-23 20:02:12.127,0.00,991.50,99149.68,nan,0.00,0.66,0.39,9.30,0.00,-0.00,0.00
2026-06-23 20:02:12.128,0.00,991.50,99149.68,nan,0.00,0.66,0.39,9.30,0.00,-0.00,0.00
2026-06-23 20:02:12.130,0.00,991.50,99149.68,nan,0.00,0.66,0.39,9.30,0.00,-0.00,0.00
2026-06-23 20:02:12.136,0.00,991.50,99149.68,nan,0.00,0.66,0.39,9.30,0.00,-0.00,0.00
2026-06-23 20:02:12.137,0.00,991.50,99149.68,nan,0.00,0.65,0.38,9.27,0.00,0.00,0.00
2026-06-23 20:02:12.139,0.00,991.50,99149.68,nan,0.00,0.65,0.38,9.27,0.00,0.00,0.00
2026-06-23 20:02:12.140,0.00,991.50,99149.68,nan,0.00,0.65,0.38,9.27,0.00,0.00,0.00
2026-06-23 20:02:12.146,0.00,991.50,99149.68,nan,0.00,0.65,0.38,9.27,0.00,0.00,0.00
2026-06-23 20:02:12.147,0.00,991.50,99149.68,nan,0.00,0.66,0.39,9.30,0.00,-0.00,-0.00
2026-06-23 20:02:12.148,0.00,991.50,99149.68,nan,0.00,0.66,0.39,9.30,0.00,-0.00,-0.00
2026-06-23 20:02:12.149,0.00,991.50,99149.68,nan,0.00,0.66,0.39,9.30,0.00,-0.00,-0.00
2026-06-23 20:02:12.153,0.00,991.50,99149.68,nan,0.00,0.66,0.39,9.30,0.00,-0.00,-0.00
2026-06-23 20:02:12.156,0.00,991.50,99149.68,nan,0.00,0.66,0.39,9.30,0.00,0.00,0.00
2026-06-23 20:02:12.158,0.00,991.50,99149.68,nan,0.00,0.66,0.39,9.31,0.00,0.00,0.00
2026-06-23 20:02:12.159,0.00,991.50,99149.68,nan,0.00,0.66,0.39,9.31,0.00,0.00,0.00
2026-06-23 20:02:12.161,0.00,991.50,99149.68,nan,0.00,0.66,0.39,9.31,0.00,0.00,0.00
2026-06-23 20:02:12.162,0.00,991.50,99149.68,nan,0.00,0.66,0.39,9.31,0.00,0.00,0.00
2026-06-23 20:02:12.163,0.00,991.50,99149.68,nan,0.00,0.66,0.39,9.31,0.00,0.00,0.00
2026-06-23 20:02:12.166,0.00,991.50,99149.68,nan,0.00,0.66,0.39,9.31,0.00,0.00,0.00
2026-06-23 20:02:12.167,0.00,991.50,99149.68,nan,0.00,0.66,0.41,9.29,0.00,0.00,0.00
2026-06-23 20:02:12.169,0.00,991.50,99149.68,nan,0.00,0.66,0.41,9.29,0.00,0.00,0.00
2026-06-23 20:02:12.172,0.00,991.50,99149.68,nan,0.00,0.66,0.41,9.29,0.00,0.00,0.00
2026-06-23 20:02:12.176,0.00,991.50,99149.68,nan,0.00,0.66,0.41,9.29,-0.00,0.00,0.00
2026-06-23 20:02:12.367,0.00,991.49,99148.64,nan,0.00,0.66,0.38,9.32,0.00,-0.00,-0.00
2026-06-23 20:02:12.368,0.00,991.49,99148.64,nan,0.00,0.67,0.38,9.30,0.00,-0.00,-0.00
2026-06-23 20:02:12.370,0.00,991.49,99148.64,nan,0.00,0.67,0.38,9.30,0.00,-0.00,-0.00
2026-06-23 20:02:12.375,0.00,991.49,99148.64,nan,0.00,0.67,0.38,9.30,0.00,-0.00,-0.00
2026-06-23 20:02:12.377,0.00,991.49,99148.64,nan,0.00,0.67,0.38,9.31,0.00,0.00,0.00
2026-06-23 20:02:12.378,0.00,991.49,99148.64,nan,0.00,0.67,0.38,9.31,0.00,0.00,0.00
2026-06-23 20:02:12.379,0.00,991.49,99148.64,nan,0.00,0.67,0.38,9.31,0.00,0.00,0.00
2026-06-23 20:02:12.380,0.00,991.49,99148.64,nan,0.00,0.67,0.38,9.31,0.00,0.00,0.00
2026-06-23 20:02:12.385,0.00,991.49,99148.64,nan,0.00,0.67,0.38,9.31,0.00,0.00,0.00
2026-06-23 20:02:12.387,0.00,991.49,99148.64,nan,0.00,0.67,0.38,9.27,0.00,0.00,-0.00
2026-06-23 20:02:12.389,0.00,991.49,99148.64,nan,0.00,0.67,0.38,9.27,0.00,0.00,-0.00
2026-06-23 20:02:12.390,0.00,991.49,99148.64,nan,0.00,0.67,0.38,9.27,0.00,0.00,-0.00
2026-06-23 20:02:12.391,0.00,991.49,99148.64,nan,0.00,0.67,0.38,9.27,0.00,0.00,-0.00
2026-06-23 20:02:12.395,0.00,991.49,99148.64,nan,0.00,0.67,0.38,9.27,0.00,0.00,-0.00
2026-06-23 20:02:12.397,0.00,991.49,99148.64,nan,0.00,0.66,0.40,9.30,0.00,-0.00,0.00
2026-06-23 20:02:12.398,0.00,991.49,99148.64,nan,0.00,0.66,0.40,9.30,0.00,-0.00,0.00
2026-06-23 20:02:12.399,0.00,991.49,99148.64,nan,0.00,0.66,0.40,9.30,0.00,-0.00,0.00
2026-06-23 20:02:12.401,0.00,991.49,99148.64,nan,0.00,0.66,0.40,9.30,0.00,-0.00,0.00
2026-06-23 20:02:12.406,0.00,991.49,99148.64,nan,0.00,0.66,0.40,9.30,0.00,-0.00,0.00
2026-06-23 20:02:12.408,0.00,991.49,99148.64,nan,0.00,0.66,0.39,9.32,0.00,-0.00,0.00
2026-06-23 20:02:12.409,0.00,991.49,99148.64,nan,0.00,0.66,0.39,9.32,0.00,-0.00,0.00
2026-06-23 20:02:12.410,0.00,991.49,99148.64,nan,0.00,0.66,0.39,9.32,0.00,-0.00,0.00
2026-06-23 20:02:12.411,0.00,991.49,99148.64,nan,0.00,0.66,0.39,9.32,0.00,-0.00,0.00
2026-06-23 20:02:12.412,0.00,991.49,99148.64,nan,0.00,0.66,0.39,9.32,0.00,-0.00,0.00
2026-06-23 20:02:12.414,0.00,991.49,99148.64,nan,0.00,0.66,0.39,9.32,0.00,-0.00,0.00
2026-06-23 20:02:12.415,0.00,991.49,99148.64,nan,0.00,0.66,0.39,9.32,0.00,-0.00,0.00
2026-06-23 20:02:12.417,0.00,991.49,99148.64,nan,0.00,0.66,0.39,9.32,-0.00,-0.00,0.00
2026-06-23 20:02:12.418,0.00,991.49,99148.64,nan,0.00,0.66,0.38,9.28,-0.00,-0.00,0.00
2026-06-23 20:02:12.420,0.00,991.49,99148.64,nan,0.00,0.66,0.38,9.28,-0.00,-0.00,0.00
2026-06-23 20:02:12.425,0.00,991.49,99148.64,nan,0.00,0.66,0.38,9.28,-0.00,-0.00,0.00
2026-06-23 20:02:12.427,0.00,991.49,99148.64,nan,0.00,0.65,0.37,9.29,-0.00,0.00,0.00
2026-06-23 20:02:12.428,0.00,991.49,99148.64,nan,0.00,0.65,0.37,9.29,-0.00,0.00,0.00
2026-06-23 20:02:12.429,0.00,991.49,99148.64,nan,0.00,0.65,0.37,9.29,-0.00,0.00,0.00
2026-06-23 20:02:12.430,0.00,991.49,99148.64,nan,0.00,0.65,0.37,9.29,-0.00,0.00,0.00
2026-06-23 20:02:12.434,0.00,991.49,99148.64,nan,0.00,0.65,0.37,9.29,-0.00,0.00,0.00
2026-06-23 20:02:12.437,0.00,991.49,99148.64,nan,0.00,0.65,0.37,9.29,-0.00,0.00,0.00
2026-06-23 20:02:12.438,0.00,991.49,99148.64,nan,0.00,0.66,0.37,9.26,-0.00,0.00,0.00
2026-06-23 20:02:12.440,0.00,991.49,99148.64,nan,0.00,0.66,0.37,9.26,-0.00,0.00,0.00
2026-06-23 20:02:12.441,0.00,991.49,99148.64,nan,0.00,0.66,0.37,9.26,-0.00,0.00,0.00
2026-06-23 20:02:12.446,0.00,991.49,99148.64,nan,0.00,0.66,0.37,9.26,-0.00,0.00,0.00
2026-06-23 20:02:12.448,0.00,991.49,99148.64,nan,0.00,0.66,0.38,9.29,-0.00,0.00,-0.00
2026-06-23 20:02:12.449,0.00,991.49,99148.64,nan,0.00,0.66,0.38,9.29,-0.00,0.00,-0.00
2026-06-23 20:02:12.450,0.00,991.49,99148.64,nan,0.00,0.66,0.38,9.29,-0.00,0.00,-0.00
2026-06-23 20:02:12.455,0.00,991.49,99148.64,nan,0.00,0.66,0.38,9.29,-0.00,0.00,-0.00
2026-06-23 20:02:12.457,0.00,991.49,99148.64,nan,0.00,0.66,0.38,9.29,0.00,-0.00,-0.00
2026-06-23 20:02:12.458,0.00,991.49,99148.64,nan,0.00,0.66,0.38,9.29,0.00,-0.00,-0.00
2026-06-23 20:02:12.460,0.00,991.49,99148.64,nan,0.00,0.66,0.38,9.29,0.00,-0.00,-0.00
2026-06-23 20:02:12.461,0.00,991.49,99148.64,nan,0.00,0.66,0.38,9.29,0.00,-0.00,-0.00
2026-06-23 20:02:12.462,0.00,991.49,99148.64,nan,0.00,0.66,0.38,9.29,0.00,-0.00,-0.00
2026-06-23 20:02:12.463,0.00,991.49,99148.64,nan,0.00,0.66,0.38,9.29,0.00,-0.00,-0.00
2026-06-23 20:02:12.464,0.00,991.49,99148.64,nan,0.00,0.66,0.38,9.29,0.00,-0.00,-0.00
2026-06-23 20:02:12.657,0.00,991.43,99142.56,nan,0.00,0.66,0.39,9.31,-0.00,-0.00,-0.00
2026-06-23 20:02:12.659,0.00,991.43,99142.56,nan,0.00,0.66,0.39,9.28,-0.00,-0.00,-0.00
2026-06-23 20:02:12.660,0.00,991.43,99142.56,nan,0.00,0.66,0.39,9.28,-0.00,-0.00,-0.00
2026-06-23 20:02:12.661,0.00,991.43,99142.56,nan,0.00,0.66,0.39,9.28,-0.00,-0.00,-0.00
2026-06-23 20:02:12.662,0.00,991.43,99142.56,nan,0.00,0.66,0.39,9.28,-0.00,-0.00,-0.00
2026-06-23 20:02:12.663,0.00,991.43,99142.56,nan,0.00,0.66,0.39,9.28,-0.00,-0.00,-0.00
2026-06-23 20:02:12.664,0.00,991.43,99142.56,nan,0.00,0.66,0.39,9.28,-0.00,-0.00,-0.00
2026-06-23 20:02:12.667,0.00,991.43,99142.56,nan,0.00,0.66,0.39,9.28,-0.00,-0.00,-0.00
2026-06-23 20:02:12.668,0.00,991.43,99142.56,nan,0.00,0.65,0.39,9.30,0.00,0.00,0.00
2026-06-23 20:02:12.670,0.00,991.43,99142.56,nan,0.00,0.65,0.39,9.30,0.00,0.00,0.00
2026-06-23 20:02:12.673,0.00,991.43,99142.56,nan,0.00,0.65,0.39,9.30,0.00,0.00,0.00
2026-06-23 20:02:12.677,0.00,991.43,99142.56,nan,0.00,0.65,0.39,9.30,0.00,-0.00,0.00
2026-06-23 20:02:12.678,0.00,991.43,99142.56,nan,0.00,0.65,0.36,9.30,0.00,-0.00,0.00
2026-06-23 20:02:12.680,0.00,991.43,99142.56,nan,0.00,0.65,0.36,9.30,0.00,-0.00,0.00
2026-06-23 20:02:12.681,0.00,991.43,99142.56,nan,0.00,0.65,0.36,9.30,0.00,-0.00,0.00
2026-06-23 20:02:12.683,0.00,991.43,99142.56,nan,0.00,0.65,0.36,9.30,0.00,-0.00,0.00
2026-06-23 20:02:12.687,0.00,991.43,99142.56,nan,0.00,0.65,0.36,9.30,0.00,-0.00,0.00
2026-06-23 20:02:12.689,0.00,991.43,99142.56,nan,0.00,0.65,0.39,9.30,0.00,-0.00,0.00
2026-06-23 20:02:12.690,0.00,991.43,99142.56,nan,0.00,0.65,0.39,9.30,0.00,-0.00,0.00
2026-06-23 20:02:12.691,0.00,991.43,99142.56,nan,0.00,0.65,0.39,9.30,0.00,-0.00,0.00
2026-06-23 20:02:12.692,0.00,991.43,99142.56,nan,0.00,0.65,0.39,9.30,0.00,-0.00,0.00
2026-06-23 20:02:12.697,0.00,991.43,99142.56,nan,0.00,0.65,0.39,9.30,0.00,-0.00,0.00
2026-06-23 20:02:12.698,0.00,991.43,99142.56,nan,0.00,0.65,0.40,9.29,0.00,0.00,0.00
2026-06-23 20:02:12.699,0.00,991.43,99142.56,nan,0.00,0.65,0.40,9.29,0.00,0.00,0.00
2026-06-23 20:02:12.701,0.00,991.43,99142.56,nan,0.00,0.65,0.40,9.29,0.00,0.00,0.00
2026-06-23 20:02:12.706,0.00,991.43,99142.56,nan,0.00,0.65,0.40,9.29,0.00,0.00,0.00
2026-06-23 20:02:12.708,0.00,991.43,99142.56,nan,0.00,0.66,0.40,9.33,0.00,0.00,0.00
2026-06-23 20:02:12.709,0.00,991.43,99142.56,nan,0.00,0.66,0.40,9.33,0.00,0.00,0.00
2026-06-23 20:02:12.710,0.00,991.43,99142.56,nan,0.00,0.66,0.40,9.33,0.00,0.00,0.00
2026-06-23 20:02:12.711,0.00,991.43,99142.56,nan,0.00,0.66,0.40,9.33,0.00,0.00,0.00
2026-06-23 20:02:12.713,0.00,991.43,99142.56,nan,0.00,0.66,0.40,9.33,0.00,0.00,0.00
2026-06-23 20:02:12.714,0.00,991.43,99142.56,nan,0.00,0.66,0.40,9.33,0.00,0.00,0.00
2026-06-23 20:02:12.715,0.00,991.43,99142.56,nan,0.00,0.66,0.40,9.33,0.00,0.00,0.00
2026-06-23 20:02:12.718,0.00,991.43,99142.56,nan,0.00,0.66,0.40,9.33,0.00,0.00,-0.00
2026-06-23 20:02:12.719,0.00,991.43,99142.56,nan,0.00,0.64,0.38,9.30,0.00,0.00,-0.00
2026-06-23 20:02:12.721,0.00,991.43,99142.56,nan,0.00,0.64,0.38,9.30,0.00,0.00,-0.00
2026-06-23 20:02:12.725,0.00,991.43,99142.56,nan,0.00,0.64,0.38,9.30,0.00,0.00,-0.00
2026-06-23 20:02:12.728,0.00,991.43,99142.56,nan,0.00,0.64,0.38,9.30,0.00,0.00,0.00
2026-06-23 20:02:12.729,0.00,991.43,99142.56,nan,0.00,0.66,0.36,9.30,0.00,0.00,0.00
2026-06-23 20:02:12.730,0.00,991.43,99142.56,nan,0.00,0.66,0.36,9.30,0.00,0.00,0.00
2026-06-23 20:02:12.731,0.00,991.43,99142.56,nan,0.00,0.66,0.36,9.30,0.00,0.00,0.00
2026-06-23 20:02:12.735,0.00,991.43,99142.56,nan,0.00,0.66,0.36,9.30,0.00,0.00,0.00
2026-06-23 20:02:12.738,0.00,991.43,99142.56,nan,0.00,0.66,0.36,9.30,0.00,0.00,0.00
2026-06-23 20:02:12.739,0.00,991.43,99142.56,nan,0.00,0.66,0.38,9.27,0.00,0.00,0.00
2026-06-23 20:02:12.741,0.00,991.43,99142.56,nan,0.00,0.66,0.38,9.27,0.00,0.00,0.00
2026-06-23 20:02:12.747,0.00,991.43,99142.56,nan,0.00,0.66,0.38,9.27,0.00,0.00,0.00
2026-06-23 20:02:12.748,0.00,991.43,99142.56,nan,0.00,0.66,0.38,9.30,-0.00,0.00,-0.00
2026-06-23 20:02:12.750,0.00,991.43,99142.56,nan,0.00,0.66,0.38,9.30,-0.00,0.00,-0.00
2026-06-23 20:02:12.751,0.00,991.43,99142.56,nan,0.00,0.66,0.38,9.30,-0.00,0.00,-0.00
2026-06-23 20:02:12.756,0.00,991.43,99142.56,nan,0.00,0.66,0.38,9.30,-0.00,0.00,-0.00
2026-06-23 20:02:12.948,0.00,991.49,99148.65,nan,0.00,0.65,0.39,9.28,0.00,-0.00,0.00
2026-06-23 20:02:12.949,0.00,991.49,99148.65,nan,0.00,0.66,0.38,9.29,0.00,-0.00,0.00
2026-06-23 20:02:12.951,0.00,991.49,99148.65,nan,0.00,0.66,0.38,9.29,0.00,-0.00,0.00
2026-06-23 20:02:12.952,0.00,991.49,99148.65,nan,0.00,0.66,0.38,9.29,0.00,-0.00,0.00
2026-06-23 20:02:12.958,0.00,991.49,99148.65,nan,0.00,0.66,0.38,9.29,0.00,-0.00,0.00
2026-06-23 20:02:12.959,0.00,991.49,99148.65,nan,0.00,0.66,0.37,9.30,-0.00,0.00,0.00
2026-06-23 20:02:12.960,0.00,991.49,99148.65,nan,0.00,0.66,0.37,9.30,-0.00,0.00,0.00
2026-06-23 20:02:12.961,0.00,991.49,99148.65,nan,0.00,0.66,0.37,9.30,-0.00,0.00,0.00
2026-06-23 20:02:12.963,0.00,991.49,99148.65,nan,0.00,0.66,0.37,9.30,-0.00,0.00,0.00
2026-06-23 20:02:12.964,0.00,991.49,99148.65,nan,0.00,0.66,0.37,9.30,-0.00,0.00,0.00
2026-06-23 20:02:12.965,0.00,991.49,99148.65,nan,0.00,0.66,0.37,9.30,-0.00,0.00,0.00
2026-06-23 20:02:12.967,0.00,991.49,99148.65,nan,0.00,0.66,0.37,9.30,-0.00,0.00,0.00
2026-06-23 20:02:12.969,0.00,991.49,99148.65,nan,0.00,0.66,0.40,9.33,0.00,0.00,0.00
2026-06-23 20:02:12.970,0.00,991.49,99148.65,nan,0.00,0.66,0.40,9.33,0.00,0.00,0.00
2026-06-23 20:02:12.972,0.00,991.49,99148.65,nan,0.00,0.66,0.40,9.33,0.00,0.00,0.00
2026-06-23 20:02:12.977,0.00,991.49,99148.65,nan,0.00,0.66,0.40,9.33,0.00,0.00,0.00
2026-06-23 20:02:12.979,0.00,991.49,99148.65,nan,0.00,0.65,0.40,9.31,-0.00,0.00,-0.00
2026-06-23 20:02:12.980,0.00,991.49,99148.65,nan,0.00,0.65,0.40,9.31,-0.00,0.00,-0.00
2026-06-23 20:02:12.981,0.00,991.49,99148.65,nan,0.00,0.65,0.40,9.31,-0.00,0.00,-0.00
2026-06-23 20:02:12.982,0.00,991.49,99148.65,nan,0.00,0.65,0.40,9.31,-0.00,0.00,-0.00
2026-06-23 20:02:12.988,0.00,991.49,99148.65,nan,0.00,0.65,0.40,9.31,-0.00,0.00,-0.00
2026-06-23 20:02:12.989,0.00,991.49,99148.65,nan,0.00,0.66,0.40,9.29,0.00,0.00,-0.00
2026-06-23 20:02:12.990,0.00,991.49,99148.65,nan,0.00,0.66,0.40,9.29,0.00,0.00,-0.00
2026-06-23 20:02:12.991,0.00,991.49,99148.65,nan,0.00,0.66,0.40,9.29,0.00,0.00,-0.00
2026-06-23 20:02:12.993,0.00,991.49,99148.65,nan,0.00,0.66,0.40,9.29,0.00,0.00,-0.00
2026-06-23 20:02:12.997,0.00,991.49,99148.65,nan,0.00,0.66,0.40,9.29,0.00,0.00,-0.00
2026-06-23 20:02:12.999,0.00,991.49,99148.65,nan,0.00,0.67,0.39,9.31,-0.00,-0.00,0.00
2026-06-23 20:02:12.000,0.00,991.49,99148.65,nan,0.00,0.67,0.39,9.31,-0.00,-0.00,0.00
2026-06-23 20:02:12.002,0.00,991.49,99148.65,nan,0.00,0.67,0.39,9.31,-0.00,-0.00,0.00
2026-06-23 20:02:13.007,0.00,991.49,99148.65,nan,0.00,0.67,0.39,9.31,-0.00,-0.00,0.00
2026-06-23 20:02:13.009,0.00,991.49,99148.65,nan,0.00,0.66,0.38,9.31,-0.00,-0.00,0.00
2026-06-23 20:02:13.010,0.00,991.49,99148.65,nan,0.00,0.66,0.38,9.31,-0.00,-0.00,0.00
2026-06-23 20:02:13.011,0.00,991.49,99148.65,nan,0.00,0.66,0.38,9.31,-0.00,-0.00,0.00
2026-06-23 20:02:13.012,0.00,991.49,99148.65,nan,0.00,0.66,0.38,9.31,-0.00,-0.00,0.00
2026-06-23 20:02:13.013,0.00,991.49,99148.65,nan,0.00,0.66,0.38,9.31,-0.00,-0.00,0.00
2026-06-23 20:02:13.015,0.00,991.49,99148.65,nan,0.00,0.66,0.38,9.31,-0.00,-0.00,0.00
2026-06-23 20:02:13.016,0.00,991.49,99148.65,nan,0.00,0.66,0.38,9.31,-0.00,-0.00,0.00
2026-06-23 20:02:13.018,0.00,991.49,99148.65,nan,0.00,0.66,0.38,9.31,-0.00,0.00,0.00
2026-06-23 20:02:13.020,0.00,991.49,99148.65,nan,0.00,0.65,0.38,9.34,-0.00,0.00,0.00
2026-06-23 20:02:13.022,0.00,991.49,99148.65,nan,0.00,0.65,0.38,9.34,-0.00,0.00,0.00
2026-06-23 20:02:13.027,0.00,991.49,99148.65,nan,0.00,0.65,0.38,9.34,-0.00,0.00,0.00
2026-06-23 20:02:13.028,0.00,991.49,99148.65,nan,0.00,0.65,0.37,9.32,0.00,-0.00,-0.00
2026-06-23 20:02:13.030,0.00,991.49,99148.65,nan,0.00,0.65,0.37,9.32,0.00,-0.00,-0.00
2026-06-23 20:02:13.031,0.00,991.49,99148.65,nan,0.00,0.65,0.37,9.32,0.00,-0.00,-0.00
2026-06-23 20:02:13.032,0.00,991.49,99148.65,nan,0.00,0.65,0.37,9.32,0.00,-0.00,-0.00
2026-06-23 20:02:13.038,0.00,991.49,99148.65,nan,0.00,0.65,0.37,9.32,0.00,-0.00,-0.00
2026-06-23 20:02:13.039,0.00,991.49,99148.65,nan,0.00,0.66,0.40,9.28,0.00,-0.00,0.00
2026-06-23 20:02:13.040,0.00,991.49,99148.65,nan,0.00,0.66,0.40,9.28,0.00,-0.00,0.00
2026-06-23 20:02:13.041,0.00,991.49,99148.65,nan,0.00,0.66,0.40,9.28,0.00,-0.00,0.00
2026-06-23 20:02:13.044,0.00,991.49,99148.65,nan,0.00,0.66,0.40,9.28,0.00,-0.00,0.00
2026-06-23 20:02:13.233,0.00,991.48,99148.00,nan,0.00,0.66,0.35,9.32,0.00,0.00,-0.00
2026-06-23 20:02:13.239,0.00,991.48,99148.00,nan,0.00,0.66,0.35,9.32,0.00,0.00,0.00
2026-06-23 20:02:13.246,0.00,991.48,99148.00,nan,0.00,0.66,0.40,9.29,0.00,0.00,0.00
2026-06-23 20:02:13.249,0.00,991.48,99148.00,nan,0.00,0.66,0.40,9.29,0.00,-0.00,0.00
2026-06-23 20:02:13.257,0.00,991.48,99148.00,nan,0.00,0.67,0.39,9.31,0.00,-0.00,0.00
2026-06-23 20:02:13.264,0.00,991.48,99148.00,nan,0.00,0.67,0.39,9.33,0.00,-0.00,-0.00
2026-06-23 20:02:13.269,0.00,991.48,99148.00,nan,0.00,0.67,0.39,9.33,0.00,-0.00,-0.00
2026-06-23 20:02:13.271,0.00,991.48,99148.00,nan,0.00,0.65,0.37,9.32,0.00,-0.00,-0.00
2026-06-23 20:02:13.274,0.00,991.48,99148.00,nan,0.00,0.65,0.37,9.32,0.00,-0.00,-0.00
2026-06-23 20:02:13.279,0.00,991.48,99148.00,nan,0.00,0.65,0.37,9.32,0.00,-0.01,0.00
2026-06-23 20:02:13.285,0.00,991.48,99148.00,nan,0.00,0.67,0.38,9.33,0.00,-0.01,0.00
2026-06-23 20:02:13.292,0.00,991.48,99148.00,nan,0.00,0.67,0.38,9.33,0.00,-0.00,0.00
2026-06-23 20:02:13.298,0.00,991.48,99148.00,nan,0.00,0.65,0.36,9.30,0.00,-0.00,0.00
2026-06-23 20:02:13.300,0.00,991.48,99148.00,nan,0.00,0.65,0.38,9.32,0.00,0.00,0.00
2026-06-23 20:02:13.309,0.00,991.48,99148.00,nan,0.00,0.65,0.38,9.32,0.00,0.00,0.00
2026-06-23 20:02:13.311,0.00,991.48,99148.00,nan,0.00,0.66,0.39,9.29,0.00,-0.00,0.00
2026-06-23 20:02:13.318,0.00,991.48,99148.00,nan,0.00,0.66,0.39,9.29,0.00,-0.00,0.00
2026-06-23 20:02:13.320,0.00,991.48,99148.00,nan,0.00,0.65,0.38,9.31,0.00,0.00,0.00
2026-06-23 20:02:13.322,0.00,991.48,99148.00,nan,0.00,0.65,0.38,9.31,0.00,0.00,0.00
2026-06-23 20:02:13.328,0.00,991.48,99148.00,nan,0.00,0.65,0.38,9.31,0.00,0.00,0.00
2026-06-23 20:02:13.335,0.00,991.48,99148.00,nan,0.00,0.66,0.38,9.29,0.00,0.00,0.00
2026-06-23 20:02:13.529,0.00,991.48,99147.76,nan,0.00,0.66,0.37,9.33,-0.00,-0.00,0.00
2026-06-23 20:02:13.531,0.00,991.48,99147.76,nan,0.00,0.66,0.37,9.31,-0.00,-0.00,0.00
2026-06-23 20:02:13.532,0.00,991.48,99147.76,nan,0.00,0.66,0.37,9.31,-0.00,-0.00,0.00
2026-06-23 20:02:13.533,0.00,991.48,99147.76,nan,0.00,0.66,0.37,9.31,-0.00,-0.00,0.00
2026-06-23 20:02:13.539,0.00,991.48,99147.76,nan,0.00,0.66,0.37,9.31,-0.00,-0.00,0.00
2026-06-23 20:02:13.540,0.00,991.48,99147.76,nan,0.00,0.65,0.40,9.28,0.00,0.00,0.00
2026-06-23 20:02:13.541,0.00,991.48,99147.76,nan,0.00,0.65,0.40,9.28,0.00,0.00,0.00
2026-06-23 20:02:13.543,0.00,991.48,99147.76,nan,0.00,0.65,0.40,9.28,0.00,0.00,0.00
2026-06-23 20:02:13.549,0.00,991.48,99147.76,nan,0.00,0.65,0.40,9.28,0.00,0.00,0.00
2026-06-23 20:02:13.550,0.00,991.48,99147.76,nan,0.00,0.66,0.38,9.28,0.00,0.00,-0.00
2026-06-23 20:02:13.552,0.00,991.48,99147.76,nan,0.00,0.66,0.38,9.28,0.00,0.00,-0.00
2026-06-23 20:02:13.553,0.00,991.48,99147.76,nan,0.00,0.66,0.38,9.28,0.00,0.00,-0.00
2026-06-23 20:02:13.559,0.00,991.48,99147.76,nan,0.00,0.66,0.38,9.28,-0.00,0.00,-0.00
2026-06-23 20:02:13.560,0.00,991.48,99147.76,nan,0.00,0.65,0.37,9.30,-0.00,0.00,-0.00
2026-06-23 20:02:13.562,0.00,991.48,99147.76,nan,0.00,0.65,0.37,9.30,-0.00,0.00,-0.00
2026-06-23 20:02:13.563,0.00,991.48,99147.76,nan,0.00,0.65,0.37,9.30,-0.00,0.00,-0.00
2026-06-23 20:02:13.564,0.00,991.48,99147.76,nan,0.00,0.65,0.37,9.30,-0.00,0.00,-0.00
2026-06-23 20:02:13.565,0.00,991.48,99147.76,nan,0.00,0.65,0.37,9.30,-0.00,0.00,-0.00
2026-06-23 20:02:13.567,0.00,991.48,99147.76,nan,0.00,0.65,0.37,9.30,-0.00,0.00,-0.00
2026-06-23 20:02:13.570,0.00,991.48,99147.76,nan,0.00,0.65,0.37,9.30,-0.00,-0.00,0.00
2026-06-23 20:02:13.572,0.00,991.48,99147.76,nan,0.00,0.65,0.39,9.31,-0.00,-0.00,0.00
2026-06-23 20:02:13.576,0.00,991.48,99147.76,nan,0.00,0.65,0.39,9.31,-0.00,-0.00,0.00
2026-06-23 20:02:13.579,0.00,991.48,99147.76,nan,0.00,0.65,0.39,9.31,0.00,0.00,0.00
2026-06-23 20:02:13.581,0.00,991.48,99147.76,nan,0.00,0.67,0.37,9.31,0.00,0.00,0.00
2026-06-23 20:02:13.582,0.00,991.48,99147.76,nan,0.00,0.67,0.37,9.31,0.00,0.00,0.00
2026-06-23 20:02:13.583,0.00,991.48,99147.76,nan,0.00,0.67,0.37,9.31,0.00,0.00,0.00
2026-06-23 20:02:13.589,0.00,991.48,99147.76,nan,0.00,0.67,0.37,9.31,0.00,0.00,0.00
2026-06-23 20:02:13.591,0.00,991.48,99147.76,nan,0.00,0.66,0.37,9.28,-0.00,0.00,-0.00
2026-06-23 20:02:13.592,0.00,991.48,99147.76,nan,0.00,0.66,0.37,9.28,-0.00,0.00,-0.00
2026-06-23 20:02:13.593,0.00,991.48,99147.76,nan,0.00,0.66,0.37,9.28,-0.00,0.00,-0.00
2026-06-23 20:02:13.595,0.00,991.48,99147.76,nan,0.00,0.66,0.37,9.28,-0.00,0.00,-0.00
2026-06-23 20:02:13.599,0.00,991.48,99147.76,nan,0.00,0.66,0.37,9.28,-0.00,0.00,-0.00
2026-06-23 20:02:13.601,0.00,991.48,99147.76,nan,0.00,0.67,0.39,9.32,-0.00,-0.00,0.00
2026-06-23 20:02:13.603,0.00,991.48,99147.76,nan,0.00,0.67,0.39,9.32,-0.00,-0.00,0.00
2026-06-23 20:02:13.608,0.00,991.48,99147.76,nan,0.00,0.67,0.39,9.32,-0.00,-0.00,0.00
2026-06-23 20:02:13.610,0.00,991.48,99147.76,nan,0.00,0.66,0.39,9.31,0.00,0.00,-0.00
2026-06-23 20:02:13.612,0.00,991.48,99147.76,nan,0.00,0.66,0.39,9.31,0.00,0.00,-0.00
2026-06-23 20:02:13.613,0.00,991.48,99147.76,nan,0.00,0.66,0.39,9.31,0.00,0.00,-0.00
2026-06-23 20:02:13.616,0.00,991.48,99147.76,nan,0.00,0.66,0.39,9.31,0.00,0.00,-0.00
2026-06-23 20:02:13.619,0.00,991.48,99147.76,nan,0.00,0.66,0.39,9.31,0.00,0.00,-0.00
2026-06-23 20:02:13.621,0.00,991.48,99147.76,nan,0.00,0.67,0.39,9.29,-0.00,0.00,-0.00
2026-06-23 20:02:13.622,0.00,991.48,99147.76,nan,0.00,0.67,0.39,9.29,-0.00,0.00,-0.00
2026-06-23 20:02:13.623,0.00,991.48,99147.76,nan,0.00,0.67,0.39,9.29,-0.00,0.00,-0.00
2026-06-23 20:02:13.629,0.00,991.48,99147.76,nan,0.00,0.67,0.39,9.29,-0.00,0.00,-0.00
2026-06-23 20:02:13.820,0.00,991.44,99144.22,nan,0.00,0.65,0.37,9.32,-0.00,0.00,0.00
2026-06-23 20:02:13.822,0.00,991.44,99144.22,nan,0.00,0.65,0.37,9.28,-0.00,0.00,0.00
2026-06-23 20:02:13.823,0.00,991.44,99144.22,nan,0.00,0.65,0.37,9.28,-0.00,0.00,0.00
2026-06-23 20:02:13.825,0.00,991.44,99144.22,nan,0.00,0.65,0.37,9.28,-0.00,0.00,0.00
2026-06-23 20:02:13.830,0.00,991.44,99144.22,nan,0.00,0.65,0.37,9.28,-0.00,0.00,0.00
2026-06-23 20:02:13.831,0.00,991.44,99144.22,nan,0.00,0.66,0.37,9.31,-0.00,0.00,-0.00
2026-06-23 20:02:13.832,0.00,991.44,99144.22,nan,0.00,0.66,0.37,9.31,-0.00,0.00,-0.00
2026-06-23 20:02:13.833,0.00,991.44,99144.22,nan,0.00,0.66,0.37,9.31,-0.00,0.00,-0.00
2026-06-23 20:02:13.838,0.00,991.44,99144.22,nan,0.00,0.66,0.37,9.31,-0.00,0.00,-0.00
2026-06-23 20:02:13.840,0.00,991.44,99144.22,nan,0.00,0.66,0.36,9.30,-0.00,-0.00,0.00
2026-06-23 20:02:13.842,0.00,991.44,99144.22,nan,0.00,0.66,0.36,9.30,-0.00,-0.00,0.00
2026-06-23 20:02:13.843,0.00,991.44,99144.22,nan,0.00,0.66,0.36,9.30,-0.00,-0.00,0.00
2026-06-23 20:02:13.844,0.00,991.44,99144.22,nan,0.00,0.66,0.36,9.30,-0.00,-0.00,0.00
2026-06-23 20:02:13.849,0.00,991.44,99144.22,nan,0.00,0.66,0.36,9.30,-0.00,-0.00,0.00
2026-06-23 20:02:13.851,0.00,991.44,99144.22,nan,0.00,0.66,0.38,9.29,-0.00,0.00,0.00
2026-06-23 20:02:13.852,0.00,991.44,99144.22,nan,0.00,0.66,0.38,9.29,-0.00,0.00,0.00
2026-06-23 20:02:13.854,0.00,991.44,99144.22,nan,0.00,0.66,0.38,9.29,-0.00,0.00,0.00
2026-06-23 20:02:13.860,0.00,991.44,99144.22,nan,0.00,0.66,0.38,9.29,-0.00,0.00,0.00
2026-06-23 20:02:13.861,0.00,991.44,99144.22,nan,0.00,0.66,0.38,9.31,-0.00,0.00,0.00
2026-06-23 20:02:13.862,0.00,991.44,99144.22,nan,0.00,0.66,0.38,9.31,-0.00,0.00,0.00
2026-06-23 20:02:13.863,0.00,991.44,99144.22,nan,0.00,0.66,0.38,9.31,-0.00,0.00,0.00
2026-06-23 20:02:13.865,0.00,991.44,99144.22,nan,0.00,0.66,0.38,9.31,-0.00,0.00,0.00
2026-06-23 20:02:13.866,0.00,991.44,99144.22,nan,0.00,0.66,0.38,9.31,-0.00,0.00,0.00
2026-06-23 20:02:13.867,0.00,991.44,99144.22,nan,0.00,0.66,0.38,9.31,-0.00,0.00,0.00
2026-06-23 20:02:13.870,0.00,991.44,99144.22,nan,0.00,0.66,0.38,9.31,0.00,-0.00,0.00
2026-06-23 20:02:13.872,0.00,991.44,99144.22,nan,0.00,0.67,0.38,9.32,0.00,-0.00,0.00
2026-06-23 20:02:13.873,0.00,991.44,99144.22,nan,0.00,0.67,0.38,9.32,0.00,-0.00,0.00
2026-06-23 20:02:13.875,0.00,991.44,99144.22,nan,0.00,0.67,0.38,9.32,0.00,-0.00,0.00
2026-06-23 20:02:13.880,0.00,991.44,99144.22,nan,0.00,0.67,0.38,9.32,-0.00,0.00,-0.00
2026-06-23 20:02:13.881,0.00,991.44,99144.22,nan,0.00,0.66,0.40,9.31,-0.00,0.00,-0.00
2026-06-23 20:02:13.882,0.00,991.44,99144.22,nan,0.00,0.66,0.40,9.31,-0.00,0.00,-0.00
2026-06-23 20:02:13.884,0.00,991.44,99144.22,nan,0.00,0.66,0.40,9.31,-0.00,0.00,-0.00
2026-06-23 20:02:13.889,0.00,991.44,99144.22,nan,0.00,0.66,0.40,9.31,-0.00,0.00,-0.00
2026-06-23 20:02:13.891,0.00,991.44,99144.22,nan,0.00,0.66,0.37,9.28,-0.00,-0.00,0.00
2026-06-23 20:02:13.892,0.00,991.44,99144.22,nan,0.00,0.66,0.37,9.28,-0.00,-0.00,0.00
2026-06-23 20:02:13.893,0.00,991.44,99144.22,nan,0.00,0.66,0.37,9.28,-0.00,-0.00,0.00
2026-06-23 20:02:13.894,0.00,991.44,99144.22,nan,0.00,0.66,0.37,9.28,-0.00,-0.00,0.00
2026-06-23 20:02:13.895,0.00,991.44,99144.22,nan,0.00,0.66,0.37,9.28,-0.00,-0.00,0.00
2026-06-23 20:02:13.900,0.00,991.44,99144.22,nan,0.00,0.66,0.37,9.28,-0.00,-0.00,0.00
2026-06-23 20:02:13.901,0.00,991.44,99144.22,nan,0.00,0.67,0.36,9.30,-0.00,0.00,-0.00
2026-06-23 20:02:13.903,0.00,991.44,99144.22,nan,0.00,0.67,0.36,9.30,-0.00,0.00,-0.00
2026-06-23 20:02:13.906,0.00,991.44,99144.22,nan,0.00,0.67,0.36,9.30,-0.00,0.00,-0.00
2026-06-23 20:02:13.910,0.00,991.44,99144.22,nan,0.00,0.67,0.36,9.30,-0.00,-0.00,0.00
2026-06-23 20:02:13.911,0.00,991.44,99144.22,nan,0.00,0.65,0.38,9.30,-0.00,-0.00,0.00
2026-06-23 20:02:13.913,0.00,991.44,99144.22,nan,0.00,0.65,0.38,9.30,-0.00,-0.00,0.00
2026-06-23 20:02:13.914,0.00,991.44,99144.22,nan,0.00,0.65,0.38,9.30,-0.00,-0.00,0.00
2026-06-23 20:02:13.915,0.00,991.44,99144.22,nan,0.00,0.65,0.38,9.30,-0.00,-0.00,0.00
2026-06-23 20:02:13.916,0.00,991.44,99144.22,nan,0.00,0.65,0.38,9.30,-0.00,-0.00,0.00
2026-06-23 20:02:13.918,0.00,991.44,99144.22,nan,0.00,0.65,0.38,9.30,-0.00,-0.00,0.00
2026-06-23 20:02:14.110,0.00,991.47,99147.46,nan,0.00,0.66,0.40,9.29,0.00,-0.00,0.00
2026-06-23 20:02:14.112,0.00,991.47,99147.46,nan,0.00,0.66,0.39,9.32,0.00,-0.00,0.00
2026-06-23 20:02:14.113,0.00,991.47,99147.46,nan,0.00,0.66,0.39,9.32,0.00,-0.00,0.00
2026-06-23 20:02:14.114,0.00,991.47,99147.46,nan,0.00,0.66,0.39,9.32,0.00,-0.00,0.00
2026-06-23 20:02:14.115,0.00,991.47,99147.46,nan,0.00,0.66,0.39,9.32,0.00,-0.00,0.00
2026-06-23 20:02:14.117,0.00,991.47,99147.46,nan,0.00,0.66,0.39,9.32,0.00,-0.00,0.00
2026-06-23 20:02:14.118,0.00,991.47,99147.46,nan,0.00,0.66,0.39,9.32,0.00,-0.00,0.00
2026-06-23 20:02:14.121,0.00,991.47,99147.46,nan,0.00,0.66,0.39,9.32,-0.00,-0.00,-0.00
2026-06-23 20:02:14.122,0.00,991.47,99147.46,nan,0.00,0.65,0.40,9.31,-0.00,-0.00,-0.00
2026-06-23 20:02:14.124,0.00,991.47,99147.46,nan,0.00,0.65,0.40,9.31,-0.00,-0.00,-0.00
2026-06-23 20:02:14.125,0.00,991.47,99147.46,nan,0.00,0.65,0.40,9.31,-0.00,-0.00,-0.00
2026-06-23 20:02:14.130,0.00,991.47,99147.46,nan,0.00,0.65,0.40,9.31,-0.00,-0.00,-0.00
2026-06-23 20:02:14.131,0.00,991.47,99147.46,nan,0.00,0.66,0.38,9.31,0.00,-0.00,-0.00
2026-06-23 20:02:14.133,0.00,991.47,99147.46,nan,0.00,0.66,0.38,9.31,0.00,-0.00,-0.00
2026-06-23 20:02:14.134,0.00,991.47,99147.46,nan,0.00,0.66,0.38,9.31,0.00,-0.00,-0.00
2026-06-23 20:02:14.139,0.00,991.47,99147.46,nan,0.00,0.66,0.38,9.31,0.00,-0.00,-0.00
2026-06-23 20:02:14.141,0.00,991.47,99147.46,nan,0.00,0.66,0.37,9.27,0.00,0.00,0.00
2026-06-23 20:02:14.142,0.00,991.47,99147.46,nan,0.00,0.66,0.37,9.27,0.00,0.00,0.00
2026-06-23 20:02:14.143,0.00,991.47,99147.46,nan,0.00,0.66,0.37,9.27,0.00,0.00,0.00
2026-06-23 20:02:14.145,0.00,991.47,99147.46,nan,0.00,0.66,0.37,9.27,0.00,0.00,0.00
2026-06-23 20:02:14.150,0.00,991.47,99147.46,nan,0.00,0.66,0.37,9.27,0.00,0.00,0.00
2026-06-23 20:02:14.151,0.00,991.47,99147.46,nan,0.00,0.66,0.40,9.30,0.00,0.00,-0.00
2026-06-23 20:02:14.153,0.00,991.47,99147.46,nan,0.00,0.66,0.40,9.30,0.00,0.00,-0.00
2026-06-23 20:02:14.155,0.00,991.47,99147.46,nan,0.00,0.66,0.40,9.30,0.00,0.00,-0.00
2026-06-23 20:02:14.160,0.00,991.47,99147.46,nan,0.00,0.66,0.40,9.30,0.00,0.00,-0.00
2026-06-23 20:02:14.162,0.00,991.47,99147.46,nan,0.00,0.66,0.38,9.31,0.00,-0.00,0.00
2026-06-23 20:02:14.163,0.00,991.47,99147.46,nan,0.00,0.66,0.38,9.31,0.00,-0.00,0.00
2026-06-23 20:02:14.164,0.00,991.47,99147.46,nan,0.00,0.66,0.38,9.31,0.00,-0.00,0.00
2026-06-23 20:02:14.165,0.00,991.47,99147.46,nan,0.00,0.66,0.38,9.31,0.00,-0.00,0.00
2026-06-23 20:02:14.166,0.00,991.47,99147.46,nan,0.00,0.66,0.38,9.31,0.00,-0.00,0.00
2026-06-23 20:02:14.168,0.00,991.47,99147.46,nan,0.00,0.66,0.38,9.31,0.00,-0.00,0.00
2026-06-23 20:02:14.171,0.00,991.47,99147.46,nan,0.00,0.66,0.38,9.31,0.00,0.00,0.00
2026-06-23 20:02:14.172,0.00,991.47,99147.46,nan,0.00,0.66,0.38,9.30,0.00,0.00,0.00
2026-06-23 20:02:14.174,0.00,991.47,99147.46,nan,0.00,0.66,0.38,9.30,0.00,0.00,0.00
2026-06-23 20:02:14.175,0.00,991.47,99147.46,nan,0.00,0.66,0.38,9.30,0.00,0.00,0.00
2026-06-23 20:02:14.180,0.00,991.47,99147.46,nan,0.00,0.66,0.38,9.30,0.00,0.00,0.00
2026-06-23 20:02:14.181,0.00,991.47,99147.46,nan,0.00,0.66,0.38,9.31,-0.00,0.00,0.00
2026-06-23 20:02:14.183,0.00,991.47,99147.46,nan,0.00,0.66,0.38,9.31,-0.00,0.00,0.00
2026-06-23 20:02:14.184,0.00,991.47,99147.46,nan,0.00,0.66,0.38,9.31,-0.00,0.00,0.00
2026-06-23 20:02:14.188,0.00,991.47,99147.46,nan,0.00,0.66,0.38,9.31,-0.00,0.00,0.00
2026-06-23 20:02:14.191,0.00,991.47,99147.46,nan,0.00,0.66,0.38,9.31,0.00,0.00,-0.00
2026-06-23 20:02:14.192,0.00,991.47,99147.46,nan,0.00,0.67,0.39,9.27,0.00,0.00,-0.00
2026-06-23 20:02:14.193,0.00,991.47,99147.46,nan,0.00,0.67,0.39,9.27,0.00,0.00,-0.00
2026-06-23 20:02:14.195,0.00,991.47,99147.46,nan,0.00,0.67,0.39,9.27,0.00,0.00,-0.00
2026-06-23 20:02:14.196,0.00,991.47,99147.46,nan,0.00,0.67,0.39,9.27,0.00,0.00,-0.00
2026-06-23 20:02:14.200,0.00,991.47,99147.46,nan,0.00,0.67,0.39,9.27,0.00,0.00,-0.00
2026-06-23 20:02:14.202,0.00,991.47,99147.46,nan,0.00,0.66,0.38,9.28,0.00,0.00,-0.00
2026-06-23 20:02:14.203,0.00,991.47,99147.46,nan,0.00,0.66,0.38,9.28,0.00,0.00,-0.00
2026-06-23 20:02:14.205,0.00,991.47,99147.46,nan,0.00,0.66,0.38,9.28,0.00,0.00,-0.00
2026-06-23 20:02:14.395,0.00,991.45,99144.87,nan,0.00,0.66,0.39,9.29,0.00,0.00,0.00
2026-06-23 20:02:14.397,0.00,991.45,99144.87,nan,0.00,0.66,0.39,9.29,0.00,0.00,0.00
2026-06-23 20:02:14.401,0.00,991.45,99144.87,nan,0.00,0.66,0.39,9.29,0.00,-0.00,-0.00
2026-06-23 20:02:14.403,0.00,991.45,99144.87,nan,0.00,0.66,0.38,9.30,0.00,-0.00,-0.00
2026-06-23 20:02:14.404,0.00,991.45,99144.87,nan,0.00,0.66,0.38,9.30,0.00,-0.00,-0.00
2026-06-23 20:02:14.406,0.00,991.45,99144.87,nan,0.00,0.66,0.38,9.30,0.00,-0.00,-0.00
2026-06-23 20:02:14.411,0.00,991.45,99144.87,nan,0.00,0.66,0.38,9.30,0.00,-0.00,-0.00
2026-06-23 20:02:14.412,0.00,991.45,99144.87,nan,0.00,0.66,0.38,9.30,0.00,-0.00,0.00
2026-06-23 20:02:14.414,0.00,991.45,99144.87,nan,0.00,0.66,0.38,9.30,0.00,-0.00,0.00
2026-06-23 20:02:14.415,0.00,991.45,99144.87,nan,0.00,0.66,0.38,9.30,0.00,-0.00,0.00
2026-06-23 20:02:14.416,0.00,991.45,99144.87,nan,0.00,0.66,0.38,9.30,0.00,-0.00,0.00
2026-06-23 20:02:14.419,0.00,991.45,99144.87,nan,0.00,0.66,0.38,9.30,0.00,-0.00,0.00
2026-06-23 20:02:14.421,0.00,991.45,99144.87,nan,0.00,0.66,0.38,9.30,0.00,0.00,0.00
2026-06-23 20:02:14.423,0.00,991.45,99144.87,nan,0.00,0.67,0.40,9.29,0.00,0.00,0.00
2026-06-23 20:02:14.424,0.00,991.45,99144.87,nan,0.00,0.67,0.40,9.29,0.00,0.00,0.00
2026-06-23 20:02:14.425,0.00,991.45,99144.87,nan,0.00,0.67,0.40,9.29,0.00,0.00,0.00
2026-06-23 20:02:14.430,0.00,991.45,99144.87,nan,0.00,0.67,0.40,9.29,0.00,0.00,0.00
2026-06-23 20:02:14.432,0.00,991.45,99144.87,nan,0.00,0.67,0.39,9.29,0.00,0.00,-0.00
2026-06-23 20:02:14.433,0.00,991.45,99144.87,nan,0.00,0.67,0.39,9.29,0.00,0.00,-0.00
2026-06-23 20:02:14.435,0.00,991.45,99144.87,nan,0.00,0.67,0.39,9.29,0.00,0.00,-0.00
2026-06-23 20:02:14.439,0.00,991.45,99144.87,nan,0.00,0.67,0.39,9.29,0.00,0.00,-0.00
2026-06-23 20:02:14.441,0.00,991.45,99144.87,nan,0.00,0.67,0.39,9.29,-0.00,-0.00,-0.00
2026-06-23 20:02:14.443,0.00,991.45,99144.87,nan,0.00,0.66,0.38,9.28,-0.00,-0.00,-0.00
2026-06-23 20:02:14.444,0.00,991.45,99144.87,nan,0.00,0.66,0.38,9.28,-0.00,-0.00,-0.00
2026-06-23 20:02:14.445,0.00,991.45,99144.87,nan,0.00,0.66,0.38,9.28,-0.00,-0.00,-0.00
2026-06-23 20:02:14.449,0.00,991.45,99144.87,nan,0.00,0.66,0.38,9.28,-0.00,-0.00,-0.00
2026-06-23 20:02:14.452,0.00,991.45,99144.87,nan,0.00,0.66,0.38,9.28,0.00,-0.00,-0.00
2026-06-23 20:02:14.453,0.00,991.45,99144.87,nan,0.00,0.66,0.38,9.30,0.00,-0.00,-0.00
2026-06-23 20:02:14.455,0.00,991.45,99144.87,nan,0.00,0.66,0.38,9.30,0.00,-0.00,-0.00
2026-06-23 20:02:14.458,0.00,991.45,99144.87,nan,0.00,0.66,0.38,9.30,0.00,-0.00,-0.00
2026-06-23 20:02:14.462,0.00,991.45,99144.87,nan,0.00,0.66,0.38,9.30,-0.00,0.00,-0.00
2026-06-23 20:02:14.463,0.00,991.45,99144.87,nan,0.00,0.65,0.38,9.31,-0.00,0.00,-0.00
2026-06-23 20:02:14.464,0.00,991.45,99144.87,nan,0.00,0.65,0.38,9.31,-0.00,0.00,-0.00
2026-06-23 20:02:14.465,0.00,991.45,99144.87,nan,0.00,0.65,0.38,9.31,-0.00,0.00,-0.00
2026-06-23 20:02:14.467,0.00,991.45,99144.87,nan,0.00,0.65,0.38,9.31,-0.00,0.00,-0.00
2026-06-23 20:02:14.468,0.00,991.45,99144.87,nan,0.00,0.65,0.38,9.31,-0.00,0.00,-0.00
2026-06-23 20:02:14.471,0.00,991.45,99144.87,nan,0.00,0.65,0.38,9.31,-0.00,0.00,-0.00
2026-06-23 20:02:14.472,0.00,991.45,99144.87,nan,0.00,0.67,0.38,9.28,-0.00,0.00,0.00
2026-06-23 20:02:14.474,0.00,991.45,99144.87,nan,0.00,0.67,0.38,9.28,-0.00,0.00,0.00
2026-06-23 20:02:14.475,0.00,991.45,99144.87,nan,0.00,0.67,0.38,9.28,-0.00,0.00,0.00
2026-06-23 20:02:14.478,0.00,991.45,99144.87,nan,0.00,0.67,0.38,9.28,-0.00,0.00,0.00
2026-06-23 20:02:14.481,0.00,991.45,99144.87,nan,0.00,0.67,0.38,9.28,0.00,0.00,-0.00
2026-06-23 20:02:14.483,0.00,991.45,99144.87,nan,0.00,0.66,0.39,9.30,0.00,0.00,-0.00
2026-06-23 20:02:14.484,0.00,991.45,99144.87,nan,0.00,0.66,0.39,9.30,0.00,0.00,-0.00
2026-06-23 20:02:14.486,0.00,991.45,99144.87,nan,0.00,0.66,0.39,9.30,0.00,0.00,-0.00
2026-06-23 20:02:14.491,0.00,991.45,99144.87,nan,0.00,0.66,0.39,9.30,0.00,0.00,-0.00
2026-06-23 20:02:14.492,0.00,991.45,99144.87,nan,0.00,0.66,0.39,9.27,-0.00,-0.00,0.00
2026-06-23 20:02:14.494,0.00,991.45,99144.87,nan,0.00,0.66,0.39,9.27,-0.00,-0.00,0.00
2026-06-23 20:02:14.684,0.00,991.50,99149.98,nan,0.00,0.66,0.36,9.27,0.00,0.00,0.00
2026-06-23 20:02:14.685,0.00,991.50,99149.98,nan,0.00,0.66,0.36,9.27,0.00,0.00,0.00
2026-06-23 20:02:14.690,0.00,991.50,99149.98,nan,0.00,0.66,0.36,9.27,0.00,0.00,0.00
2026-06-23 20:02:14.692,0.00,991.50,99149.98,nan,0.00,0.66,0.36,9.27,0.00,0.00,0.00
2026-06-23 20:02:14.693,0.00,991.50,99149.98,nan,0.00,0.67,0.36,9.25,0.00,0.00,0.00
2026-06-23 20:02:14.695,0.00,991.50,99149.98,nan,0.00,0.67,0.36,9.25,0.00,0.00,0.00
2026-06-23 20:02:14.696,0.00,991.50,99149.98,nan,0.00,0.67,0.36,9.25,0.00,0.00,0.00
2026-06-23 20:02:14.697,0.00,991.50,99149.98,nan,0.00,0.67,0.36,9.25,0.00,0.00,0.00
2026-06-23 20:02:14.702,0.00,991.50,99149.98,nan,0.00,0.67,0.36,9.25,0.00,0.00,0.00
2026-06-23 20:02:14.703,0.00,991.50,99149.98,nan,0.00,0.66,0.38,9.30,0.00,0.00,0.00
2026-06-23 20:02:14.705,0.00,991.50,99149.98,nan,0.00,0.66,0.38,9.30,0.00,0.00,0.00
2026-06-23 20:02:14.706,0.00,991.50,99149.98,nan,0.00,0.66,0.38,9.30,0.00,0.00,0.00
2026-06-23 20:02:14.712,0.00,991.50,99149.98,nan,0.00,0.66,0.38,9.30,0.00,0.00,0.00
2026-06-23 20:02:14.713,0.00,991.50,99149.98,nan,0.00,0.66,0.40,9.31,0.00,0.00,0.00
2026-06-23 20:02:14.714,0.00,991.50,99149.98,nan,0.00,0.66,0.40,9.31,0.00,0.00,0.00
2026-06-23 20:02:14.715,0.00,991.50,99149.98,nan,0.00,0.66,0.40,9.31,0.00,0.00,0.00
2026-06-23 20:02:14.717,0.00,991.50,99149.98,nan,0.00,0.66,0.40,9.31,0.00,0.00,0.00
2026-06-23 20:02:14.718,0.00,991.50,99149.98,nan,0.00,0.66,0.40,9.31,0.00,0.00,0.00
2026-06-23 20:02:14.720,0.00,991.50,99149.98,nan,0.00,0.66,0.40,9.31,0.00,0.00,0.00
2026-06-23 20:02:14.722,0.00,991.50,99149.98,nan,0.00,0.66,0.40,9.31,-0.00,0.00,-0.00
2026-06-23 20:02:14.724,0.00,991.50,99149.98,nan,0.00,0.65,0.37,9.30,-0.00,0.00,-0.00
2026-06-23 20:02:14.725,0.00,991.50,99149.98,nan,0.00,0.65,0.37,9.30,-0.00,0.00,-0.00
2026-06-23 20:02:14.726,0.00,991.50,99149.98,nan,0.00,0.65,0.37,9.30,-0.00,0.00,-0.00
2026-06-23 20:02:14.731,0.00,991.50,99149.98,nan,0.00,0.65,0.37,9.30,-0.00,0.00,-0.00
2026-06-23 20:02:14.733,0.00,991.50,99149.98,nan,0.00,0.66,0.38,9.35,0.00,0.00,0.00
2026-06-23 20:02:14.734,0.00,991.50,99149.98,nan,0.00,0.66,0.38,9.35,0.00,0.00,0.00
2026-06-23 20:02:14.736,0.00,991.50,99149.98,nan,0.00,0.66,0.38,9.35,0.00,0.00,0.00
2026-06-23 20:02:14.742,0.00,991.50,99149.98,nan,0.00,0.66,0.38,9.35,0.00,0.00,0.00
2026-06-23 20:02:14.743,0.00,991.50,99149.98,nan,0.00,0.65,0.38,9.27,-0.00,0.00,-0.00
2026-06-23 20:02:14.744,0.00,991.50,99149.98,nan,0.00,0.65,0.38,9.27,-0.00,0.00,-0.00
2026-06-23 20:02:14.745,0.00,991.50,99149.98,nan,0.00,0.65,0.38,9.27,-0.00,0.00,-0.00
2026-06-23 20:02:14.747,0.00,991.50,99149.98,nan,0.00,0.65,0.38,9.27,-0.00,0.00,-0.00
2026-06-23 20:02:14.752,0.00,991.50,99149.98,nan,0.00,0.65,0.38,9.27,-0.00,0.00,-0.00
2026-06-23 20:02:14.753,0.00,991.50,99149.98,nan,0.00,0.66,0.39,9.29,-0.00,-0.00,0.00
2026-06-23 20:02:14.755,0.00,991.50,99149.98,nan,0.00,0.66,0.39,9.29,-0.00,-0.00,0.00
2026-06-23 20:02:14.756,0.00,991.50,99149.98,nan,0.00,0.66,0.39,9.29,-0.00,-0.00,0.00
2026-06-23 20:02:14.762,0.00,991.50,99149.98,nan,0.00,0.66,0.39,9.29,-0.00,-0.00,0.00
2026-06-23 20:02:14.763,0.00,991.50,99149.98,nan,0.00,0.66,0.38,9.29,0.00,0.00,0.00
2026-06-23 20:02:14.764,0.00,991.50,99149.98,nan,0.00,0.66,0.38,9.29,0.00,0.00,0.00
2026-06-23 20:02:14.765,0.00,991.50,99149.98,nan,0.00,0.66,0.38,9.29,0.00,0.00,0.00
2026-06-23 20:02:14.767,0.00,991.50,99149.98,nan,0.00,0.66,0.38,9.29,0.00,0.00,0.00
2026-06-23 20:02:14.768,0.00,991.50,99149.98,nan,0.00,0.66,0.38,9.29,0.00,0.00,0.00
2026-06-23 20:02:14.770,0.00,991.50,99149.98,nan,0.00,0.66,0.38,9.29,0.00,0.00,0.00
2026-06-23 20:02:14.772,0.00,991.50,99149.98,nan,0.00,0.66,0.38,9.29,-0.00,-0.00,0.00
2026-06-23 20:02:14.774,0.00,991.50,99149.98,nan,0.00,0.66,0.37,9.32,-0.00,-0.00,0.00
2026-06-23 20:02:14.775,0.00,991.50,99149.98,nan,0.00,0.66,0.37,9.32,-0.00,-0.00,0.00
2026-06-23 20:02:14.776,0.00,991.50,99149.98,nan,0.00,0.66,0.37,9.32,-0.00,-0.00,0.00
2026-06-23 20:02:14.781,0.00,991.50,99149.98,nan,0.00,0.66,0.37,9.32,-0.00,-0.00,0.00
2026-06-23 20:02:14.783,0.00,991.50,99149.98,nan,0.00,0.66,0.39,9.27,-0.00,0.00,0.00
2026-06-23 20:02:14.973,0.00,991.45,99144.58,nan,0.00,0.66,0.38,9.30,0.00,-0.00,-0.00
2026-06-23 20:02:14.974,0.00,991.45,99144.58,nan,0.00,0.66,0.38,9.30,0.00,-0.00,-0.00
2026-06-23 20:02:14.976,0.00,991.45,99144.58,nan,0.00,0.66,0.38,9.30,0.00,-0.00,-0.00
2026-06-23 20:02:14.977,0.00,991.45,99144.58,nan,0.00,0.66,0.38,9.30,0.00,-0.00,-0.00
2026-06-23 20:02:14.982,0.00,991.45,99144.58,nan,0.00,0.66,0.38,9.30,0.00,-0.00,-0.00
2026-06-23 20:02:14.984,0.00,991.45,99144.58,nan,0.00,0.66,0.37,9.31,0.00,0.00,0.00
2026-06-23 20:02:14.985,0.00,991.45,99144.58,nan,0.00,0.66,0.37,9.31,0.00,0.00,0.00
2026-06-23 20:02:14.987,0.00,991.45,99144.58,nan,0.00,0.66,0.37,9.31,0.00,0.00,0.00
2026-06-23 20:02:14.992,0.00,991.45,99144.58,nan,0.00,0.66,0.37,9.31,0.00,0.00,0.00
2026-06-23 20:02:14.994,0.00,991.45,99144.58,nan,0.00,0.66,0.36,9.28,0.00,0.00,0.00
2026-06-23 20:02:14.995,0.00,991.45,99144.58,nan,0.00,0.66,0.36,9.28,0.00,0.00,0.00
2026-06-23 20:02:14.996,0.00,991.45,99144.58,nan,0.00,0.66,0.36,9.28,0.00,0.00,0.00
2026-06-23 20:02:14.997,0.00,991.45,99144.58,nan,0.00,0.66,0.36,9.28,0.00,0.00,0.00
2026-06-23 20:02:14.001,0.00,991.45,99144.58,nan,0.00,0.66,0.36,9.28,0.00,0.00,0.00
2026-06-23 20:02:14.003,0.00,991.45,99144.58,nan,0.00,0.66,0.37,9.28,0.00,0.00,0.00
2026-06-23 20:02:15.005,0.00,991.45,99144.58,nan,0.00,0.66,0.37,9.28,0.00,0.00,0.00
2026-06-23 20:02:15.006,0.00,991.45,99144.58,nan,0.00,0.66,0.37,9.28,0.00,0.00,0.00
2026-06-23 20:02:15.011,0.00,991.45,99144.58,nan,0.00,0.66,0.37,9.28,0.00,0.00,0.00
2026-06-23 20:02:15.013,0.00,991.45,99144.58,nan,0.00,0.66,0.37,9.28,-0.00,0.00,0.00
2026-06-23 20:02:15.014,0.00,991.45,99144.58,nan,0.00,0.66,0.38,9.28,-0.00,0.00,0.00
2026-06-23 20:02:15.016,0.00,991.45,99144.58,nan,0.00,0.66,0.38,9.28,-0.00,0.00,0.00
2026-06-23 20:02:15.017,0.00,991.45,99144.58,nan,0.00,0.66,0.38,9.28,-0.00,0.00,0.00
2026-06-23 20:02:15.019,0.00,991.45,99144.58,nan,0.00,0.66,0.38,9.28,-0.00,0.00,0.00
2026-06-23 20:02:15.020,0.00,991.45,99144.58,nan,0.00,0.66,0.38,9.28,-0.00,0.00,0.00
2026-06-23 20:02:15.023,0.00,991.45,99144.58,nan,0.00,0.66,0.38,9.28,-0.00,-0.00,0.00
2026-06-23 20:02:15.024,0.00,991.45,99144.58,nan,0.00,0.66,0.39,9.32,-0.00,-0.00,0.00
2026-06-23 20:02:15.026,0.00,991.45,99144.58,nan,0.00,0.66,0.39,9.32,-0.00,-0.00,0.00
2026-06-23 20:02:15.027,0.00,991.45,99144.58,nan,0.00,0.66,0.39,9.32,-0.00,-0.00,0.00
2026-06-23 20:02:15.031,0.00,991.45,99144.58,nan,0.00,0.66,0.39,9.32,-0.00,-0.00,0.00
2026-06-23 20:02:15.034,0.00,991.45,99144.58,nan,0.00,0.67,0.39,9.29,0.00,0.00,0.00
2026-06-23 20:02:15.036,0.00,991.45,99144.58,nan,0.00,0.67,0.39,9.29,0.00,0.00,0.00
2026-06-23 20:02:15.042,0.00,991.45,99144.58,nan,0.00,0.67,0.39,9.29,0.00,0.00,0.00
2026-06-23 20:02:15.043,0.00,991.45,99144.58,nan,0.00,0.66,0.39,9.27,0.00,0.00,-0.00
2026-06-23 20:02:15.044,0.00,991.45,99144.58,nan,0.00,0.66,0.39,9.27,0.00,0.00,-0.00
2026-06-23 20:02:15.046,0.00,991.45,99144.58,nan,0.00,0.66,0.39,9.27,0.00,0.00,-0.00
2026-06-23 20:02:15.047,0.00,991.45,99144.58,nan,0.00,0.66,0.39,9.27,0.00,0.00,-0.00
2026-06-23 20:02:15.052,0.00,991.45,99144.58,nan,0.00,0.66,0.39,9.27,0.00,0.00,-0.00
2026-06-23 20:02:15.054,0.00,991.45,99144.58,nan,0.00,0.66,0.37,9.32,0.00,-0.01,0.00
2026-06-23 20:02:15.055,0.00,991.45,99144.58,nan,0.00,0.66,0.37,9.32,0.00,-0.01,0.00
2026-06-23 20:02:15.057,0.00,991.45,99144.58,nan,0.00,0.66,0.37,9.32,0.00,-0.01,0.00
2026-06-23 20:02:15.062,0.00,991.45,99144.58,nan,0.00,0.66,0.37,9.32,0.00,-0.01,0.00
2026-06-23 20:02:15.063,0.00,991.45,99144.58,nan,0.00,0.66,0.38,9.27,0.00,-0.01,0.00
2026-06-23 20:02:15.065,0.00,991.45,99144.58,nan,0.00,0.66,0.38,9.27,0.00,-0.01,0.00
2026-06-23 20:02:15.066,0.00,991.45,99144.58,nan,0.00,0.66,0.38,9.27,0.00,-0.01,0.00
2026-06-23 20:02:15.067,0.00,991.45,99144.58,nan,0.00,0.66,0.38,9.27,0.00,-0.01,0.00
2026-06-23 20:02:15.069,0.00,991.45,99144.58,nan,0.00,0.66,0.38,9.27,0.00,-0.01,0.00
2026-06-23 20:02:15.070,0.00,991.45,99144.58,nan,0.00,0.66,0.38,9.27,0.00,-0.01,0.00
2026-06-23 20:02:15.073,0.00,991.45,99144.58,nan,0.00,0.66,0.38,9.27,0.00,0.00,0.00
2026-06-23 20:02:15.264,0.00,991.48,99148.38,nan,0.00,0.66,0.41,9.30,0.00,-0.00,0.00
2026-06-23 20:02:15.265,0.00,991.48,99148.38,nan,0.00,0.65,0.39,9.30,0.00,-0.00,0.00
2026-06-23 20:02:15.267,0.00,991.48,99148.38,nan,0.00,0.65,0.39,9.30,0.00,-0.00,0.00
2026-06-23 20:02:15.268,0.00,991.48,99148.38,nan,0.00,0.65,0.39,9.30,0.00,-0.00,0.00
2026-06-23 20:02:15.269,0.00,991.48,99148.38,nan,0.00,0.65,0.39,9.30,0.00,-0.00,0.00
2026-06-23 20:02:15.271,0.00,991.48,99148.38,nan,0.00,0.65,0.39,9.30,0.00,-0.00,0.00
2026-06-23 20:02:15.274,0.00,991.48,99148.38,nan,0.00,0.65,0.39,9.30,0.00,-0.00,0.00
2026-06-23 20:02:15.275,0.00,991.48,99148.38,nan,0.00,0.65,0.38,9.30,0.00,-0.00,0.00
2026-06-23 20:02:15.276,0.00,991.48,99148.38,nan,0.00,0.65,0.38,9.30,0.00,-0.00,0.00
2026-06-23 20:02:15.277,0.00,991.48,99148.38,nan,0.00,0.65,0.38,9.30,0.00,-0.00,0.00
2026-06-23 20:02:15.281,0.00,991.48,99148.38,nan,0.00,0.65,0.38,9.30,0.00,-0.00,0.00
2026-06-23 20:02:15.284,0.00,991.48,99148.38,nan,0.00,0.65,0.38,9.30,0.00,0.00,0.00
2026-06-23 20:02:15.285,0.00,991.48,99148.38,nan,0.00,0.65,0.38,9.33,0.00,0.00,0.00
2026-06-23 20:02:15.287,0.00,991.48,99148.38,nan,0.00,0.65,0.38,9.33,0.00,0.00,0.00
2026-06-23 20:02:15.291,0.00,991.48,99148.38,nan,0.00,0.65,0.38,9.33,0.00,0.00,0.00
2026-06-23 20:02:15.294,0.00,991.48,99148.38,nan,0.00,0.65,0.38,9.33,0.00,0.00,0.00
2026-06-23 20:02:15.295,0.00,991.48,99148.38,nan,0.00,0.66,0.41,9.27,0.00,0.00,0.00
2026-06-23 20:02:15.296,0.00,991.48,99148.38,nan,0.00,0.66,0.41,9.27,0.00,0.00,0.00
2026-06-23 20:02:15.297,0.00,991.48,99148.38,nan,0.00,0.66,0.41,9.27,0.00,0.00,0.00
2026-06-23 20:02:15.298,0.00,991.48,99148.38,nan,0.00,0.66,0.41,9.27,0.00,0.00,0.00
2026-06-23 20:02:15.303,0.00,991.48,99148.38,nan,0.00,0.66,0.41,9.27,0.00,0.00,0.00
2026-06-23 20:02:15.305,0.00,991.48,99148.38,nan,0.00,0.66,0.37,9.29,0.00,0.00,0.00
2026-06-23 20:02:15.306,0.00,991.48,99148.38,nan,0.00,0.66,0.37,9.29,0.00,0.00,0.00
2026-06-23 20:02:15.307,0.00,991.48,99148.38,nan,0.00,0.66,0.37,9.29,0.00,0.00,0.00
2026-06-23 20:02:15.313,0.00,991.48,99148.38,nan,0.00,0.66,0.37,9.29,0.00,0.00,0.00
2026-06-23 20:02:15.314,0.00,991.48,99148.38,nan,0.00,0.67,0.37,9.28,0.00,-0.00,0.00
2026-06-23 20:02:15.315,0.00,991.48,99148.38,nan,0.00,0.67,0.37,9.28,0.00,-0.00,0.00
2026-06-23 20:02:15.317,0.00,991.48,99148.38,nan,0.00,0.67,0.37,9.28,0.00,-0.00,0.00
2026-06-23 20:02:15.318,0.00,991.48,99148.38,nan,0.00,0.67,0.37,9.28,0.00,-0.00,0.00
2026-06-23 20:02:15.320,0.00,991.48,99148.38,nan,0.00,0.67,0.37,9.28,0.00,-0.00,0.00
2026-06-23 20:02:15.323,0.00,991.48,99148.38,nan,0.00,0.67,0.37,9.28,0.00,-0.00,0.00
2026-06-23 20:02:15.324,0.00,991.48,99148.38,nan,0.00,0.66,0.38,9.35,0.00,-0.00,0.00
2026-06-23 20:02:15.325,0.00,991.48,99148.38,nan,0.00,0.66,0.38,9.35,0.00,-0.00,0.00
2026-06-23 20:02:15.327,0.00,991.48,99148.38,nan,0.00,0.66,0.38,9.35,0.00,-0.00,0.00
2026-06-23 20:02:15.328,0.00,991.48,99148.38,nan,0.00,0.66,0.38,9.35,0.00,-0.00,0.00
2026-06-23 20:02:15.333,0.00,991.48,99148.38,nan,0.00,0.66,0.38,9.35,0.00,-0.00,0.00
2026-06-23 20:02:15.335,0.00,991.48,99148.38,nan,0.00,0.66,0.37,9.32,0.00,0.00,0.00
2026-06-23 20:02:15.336,0.00,991.48,99148.38,nan,0.00,0.66,0.37,9.32,0.00,0.00,0.00
2026-06-23 20:02:15.340,0.00,991.48,99148.38,nan,0.00,0.66,0.37,9.32,0.00,0.00,0.00
2026-06-23 20:02:15.344,0.00,991.48,99148.38,nan,0.00,0.66,0.37,9.32,0.00,0.00,0.00
2026-06-23 20:02:15.345,0.00,991.48,99148.38,nan,0.00,0.66,0.38,9.27,0.00,0.00,0.00
2026-06-23 20:02:15.346,0.00,991.48,99148.38,nan,0.00,0.66,0.38,9.27,0.00,0.00,0.00
2026-06-23 20:02:15.347,0.00,991.48,99148.38,nan,0.00,0.66,0.38,9.27,0.00,0.00,0.00
2026-06-23 20:02:15.351,0.00,991.48,99148.38,nan,0.00,0.66,0.38,9.27,0.00,0.00,0.00
2026-06-23 20:02:15.354,0.00,991.48,99148.38,nan,0.00,0.66,0.38,9.27,0.00,0.00,-0.00
2026-06-23 20:02:15.355,0.00,991.48,99148.38,nan,0.00,0.67,0.38,9.30,0.00,0.00,-0.00
2026-06-23 20:02:15.357,0.00,991.48,99148.38,nan,0.00,0.67,0.38,9.30,0.00,0.00,-0.00
2026-06-23 20:02:15.358,0.00,991.48,99148.38,nan,0.00,0.67,0.38,9.30,0.00,0.00,-0.00
2026-06-23 20:02:15.363,0.00,991.48,99148.38,nan,0.00,0.67,0.38,9.30,0.00,0.00,-0.00
2026-06-23 20:02:15.555,0.00,991.44,99143.76,nan,0.00,0.70,0.34,9.33,-0.00,0.00,-0.00
2026-06-23 20:02:15.560,0.00,991.44,99143.76,nan,0.00,0.70,0.34,9.33,-0.00,0.00,-0.00
2026-06-23 20:02:15.564,0.00,991.44,99143.76,nan,0.00,0.70,0.34,9.33,-0.00,-0.00,0.00
2026-06-23 20:02:15.566,0.00,991.44,99143.76,nan,0.00,0.66,0.36,9.32,-0.00,-0.00,0.00
2026-06-23 20:02:15.567,0.00,991.44,99143.76,nan,0.00,0.66,0.36,9.32,-0.00,-0.00,0.00
2026-06-23 20:02:15.569,0.00,991.44,99143.76,nan,0.00,0.66,0.36,9.32,-0.00,-0.00,0.00
2026-06-23 20:02:15.570,0.00,991.44,99143.76,nan,0.00,0.66,0.36,9.32,-0.00,-0.00,0.00
2026-06-23 20:02:15.574,0.00,991.44,99143.76,nan,0.00,0.66,0.36,9.32,0.00,-0.00,0.00
2026-06-23 20:02:15.576,0.00,991.44,99143.76,nan,0.00,0.64,0.34,9.28,0.00,-0.00,0.00
2026-06-23 20:02:15.577,0.00,991.44,99143.76,nan,0.00,0.64,0.34,9.28,0.00,-0.00,0.00
2026-06-23 20:02:15.580,0.00,991.44,99143.76,nan,0.00,0.64,0.34,9.28,0.00,-0.00,0.00
2026-06-23 20:02:15.584,0.00,991.44,99143.76,nan,0.00,0.64,0.34,9.28,0.00,-0.01,0.00
2026-06-23 20:02:15.586,0.00,991.44,99143.76,nan,0.00,0.65,0.36,9.27,0.00,-0.01,0.00
2026-06-23 20:02:15.588,0.00,991.44,99143.76,nan,0.00,0.65,0.36,9.27,0.00,-0.01,0.00
2026-06-23 20:02:15.594,0.00,991.44,99143.76,nan,0.00,0.65,0.36,9.27,0.00,-0.00,-0.00
2026-06-23 20:02:15.595,0.00,991.44,99143.76,nan,0.00,0.67,0.35,9.25,0.00,-0.00,-0.00
2026-06-23 20:02:15.597,0.00,991.44,99143.76,nan,0.00,0.67,0.35,9.25,0.00,-0.00,-0.00
2026-06-23 20:02:15.598,0.00,991.44,99143.76,nan,0.00,0.67,0.35,9.25,0.00,-0.00,-0.00
2026-06-23 20:02:15.602,0.00,991.44,99143.76,nan,0.00,0.67,0.35,9.25,0.00,-0.00,-0.00
2026-06-23 20:02:15.605,0.00,991.44,99143.76,nan,0.00,0.66,0.37,9.31,-0.00,-0.00,-0.00
2026-06-23 20:02:15.607,0.00,991.44,99143.76,nan,0.00,0.66,0.37,9.31,-0.00,-0.00,-0.00
2026-06-23 20:02:15.613,0.00,991.44,99143.76,nan,0.00,0.66,0.37,9.31,-0.00,-0.00,-0.00
2026-06-23 20:02:15.615,0.00,991.44,99143.76,nan,0.00,0.66,0.39,9.32,0.00,-0.00,-0.00
2026-06-23 20:02:15.617,0.00,991.44,99143.76,nan,0.00,0.66,0.39,9.32,0.00,-0.00,-0.00
2026-06-23 20:02:15.619,0.00,991.44,99143.76,nan,0.00,0.66,0.39,9.32,0.00,-0.00,-0.00
2026-06-23 20:02:15.621,0.00,991.44,99143.76,nan,0.00,0.66,0.39,9.32,0.00,-0.00,-0.00
2026-06-23 20:02:15.625,0.00,991.44,99143.76,nan,0.00,0.66,0.39,9.32,-0.00,-0.00,-0.00
2026-06-23 20:02:15.627,0.00,991.44,99143.76,nan,0.00,0.65,0.40,9.28,-0.00,-0.00,-0.00
2026-06-23 20:02:15.628,0.00,991.44,99143.76,nan,0.00,0.65,0.40,9.28,-0.00,-0.00,-0.00
2026-06-23 20:02:15.634,0.00,991.44,99143.76,nan,0.00,0.65,0.40,9.28,-0.00,-0.00,-0.00
2026-06-23 20:02:15.635,0.00,991.44,99143.76,nan,0.00,0.66,0.40,9.32,0.00,-0.00,0.00
2026-06-23 20:02:15.637,0.00,991.44,99143.76,nan,0.00,0.66,0.40,9.32,0.00,-0.00,0.00
2026-06-23 20:02:15.641,0.00,991.44,99143.76,nan,0.00,0.66,0.40,9.32,0.00,-0.00,0.00
2026-06-23 20:02:15.645,0.00,991.44,99143.76,nan,0.00,0.66,0.40,9.32,0.00,-0.01,0.00
2026-06-23 20:02:15.646,0.00,991.44,99143.76,nan,0.00,0.67,0.44,9.31,0.00,-0.01,0.00
2026-06-23 20:02:15.647,0.00,991.44,99143.76,nan,0.00,0.67,0.44,9.31,0.00,-0.01,0.00
2026-06-23 20:02:15.651,0.00,991.44,99143.76,nan,0.00,0.67,0.44,9.31,0.00,-0.01,0.00
2026-06-23 20:02:15.655,0.00,991.44,99143.76,nan,0.00,0.67,0.44,9.31,-0.00,-0.01,0.00
2026-06-23 20:02:15.845,0.00,991.46,99145.80,nan,0.00,0.66,0.42,9.32,0.00,-0.00,0.00
2026-06-23 20:02:15.846,0.00,991.46,99145.80,nan,0.00,0.66,0.44,9.27,0.00,-0.00,0.00
2026-06-23 20:02:15.848,0.00,991.46,99145.80,nan,0.00,0.66,0.44,9.27,0.00,-0.00,0.00
2026-06-23 20:02:15.851,0.00,991.46,99145.80,nan,0.00,0.66,0.44,9.27,0.00,-0.00,0.00
2026-06-23 20:02:15.855,0.00,991.46,99145.80,nan,0.00,0.66,0.44,9.27,0.00,-0.00,0.00
2026-06-23 20:02:15.857,0.00,991.46,99145.80,nan,0.00,0.64,0.44,9.31,0.00,-0.00,0.00
2026-06-23 20:02:15.858,0.00,991.46,99145.80,nan,0.00,0.64,0.44,9.31,0.00,-0.00,0.00
2026-06-23 20:02:15.864,0.00,991.46,99145.80,nan,0.00,0.64,0.44,9.31,0.00,-0.00,0.00
2026-06-23 20:02:15.866,0.00,991.46,99145.80,nan,0.00,0.62,0.43,9.31,0.00,0.00,0.00
2026-06-23 20:02:15.867,0.00,991.46,99145.80,nan,0.00,0.62,0.43,9.31,0.00,0.00,0.00
2026-06-23 20:02:15.871,0.00,991.46,99145.80,nan,0.00,0.62,0.43,9.31,0.00,0.00,0.00
2026-06-23 20:02:15.874,0.00,991.46,99145.80,nan,0.00,0.62,0.43,9.31,0.00,0.00,0.00
2026-06-23 20:02:15.876,0.00,991.46,99145.80,nan,0.00,0.64,0.42,9.30,0.00,0.00,-0.00
2026-06-23 20:02:15.877,0.00,991.46,99145.80,nan,0.00,0.64,0.42,9.30,0.00,0.00,-0.00
2026-06-23 20:02:15.879,0.00,991.46,99145.80,nan,0.00,0.64,0.42,9.30,0.00,0.00,-0.00
2026-06-23 20:02:15.884,0.00,991.46,99145.80,nan,0.00,0.64,0.42,9.30,0.00,0.00,-0.00
2026-06-23 20:02:15.886,0.00,991.46,99145.80,nan,0.00,0.69,0.39,9.30,-0.00,0.00,-0.00
2026-06-23 20:02:15.888,0.00,991.46,99145.80,nan,0.00,0.69,0.39,9.30,-0.00,0.00,-0.00
2026-06-23 20:02:15.892,0.00,991.46,99145.80,nan,0.00,0.69,0.39,9.30,-0.00,0.00,-0.00
2026-06-23 20:02:15.895,0.00,991.46,99145.80,nan,0.00,0.69,0.39,9.30,0.00,-0.00,-0.00
2026-06-23 20:02:15.896,0.00,991.46,99145.80,nan,0.00,0.63,0.37,9.24,0.00,-0.00,-0.00
2026-06-23 20:02:15.898,0.00,991.46,99145.80,nan,0.00,0.63,0.37,9.24,0.00,-0.00,-0.00
2026-06-23 20:02:15.899,0.00,991.46,99145.80,nan,0.00,0.63,0.37,9.24,0.00,-0.00,-0.00
2026-06-23 20:02:15.904,0.00,991.46,99145.80,nan,0.00,0.63,0.37,9.24,0.00,-0.00,-0.00
2026-06-23 20:02:15.906,0.00,991.46,99145.80,nan,0.00,0.61,0.36,9.31,0.00,-0.00,-0.00
2026-06-23 20:02:15.908,0.00,991.46,99145.80,nan,0.00,0.61,0.36,9.31,0.00,-0.00,-0.00
2026-06-23 20:02:15.912,0.00,991.46,99145.80,nan,0.00,0.61,0.36,9.31,0.00,-0.00,-0.00
2026-06-23 20:02:15.915,0.00,991.46,99145.80,nan,0.00,0.61,0.36,9.31,-0.00,-0.00,0.00
2026-06-23 20:02:15.917,0.00,991.46,99145.80,nan,0.00,0.64,0.33,9.33,-0.00,-0.00,0.00
2026-06-23 20:02:15.918,0.00,991.46,99145.80,nan,0.00,0.64,0.33,9.33,-0.00,-0.00,0.00
2026-06-23 20:02:15.920,0.00,991.46,99145.80,nan,0.00,0.64,0.33,9.33,-0.00,-0.00,0.00
2026-06-23 20:02:15.922,0.00,991.46,99145.80,nan,0.00,0.64,0.33,9.33,-0.00,-0.00,0.00
2026-06-23 20:02:15.925,0.00,991.46,99145.80,nan,0.00,0.64,0.33,9.33,-0.00,-0.00,0.00
2026-06-23 20:02:15.926,0.00,991.46,99145.80,nan,0.00,0.69,0.36,9.31,-0.00,-0.00,0.00
2026-06-23 20:02:15.928,0.00,991.46,99145.80,nan,0.00,0.69,0.36,9.31,-0.00,-0.00,0.00
2026-06-23 20:02:15.929,0.00,991.46,99145.80,nan,0.00,0.69,0.36,9.31,-0.00,-0.00,0.00
2026-06-23 20:02:15.935,0.00,991.46,99145.80,nan,0.00,0.69,0.36,9.31,-0.00,-0.00,0.00
2026-06-23 20:02:15.936,0.00,991.46,99145.80,nan,0.00,0.67,0.40,9.29,0.00,-0.01,0.00
2026-06-23 20:02:15.938,0.00,991.46,99145.80,nan,0.00,0.67,0.40,9.29,0.00,-0.01,0.00
2026-06-23 20:02:15.942,0.00,991.46,99145.80,nan,0.00,0.67,0.40,9.29,0.00,-0.01,0.00
2026-06-23 20:02:16.136,0.00,991.49,99148.94,nan,0.00,0.66,0.40,9.31,-0.00,-0.00,0.00
2026-06-23 20:02:16.138,0.00,991.49,99148.94,nan,0.00,0.64,0.42,9.31,-0.00,-0.00,0.00
2026-06-23 20:02:16.139,0.00,991.49,99148.94,nan,0.00,0.64,0.42,9.31,-0.00,-0.00,0.00
2026-06-23 20:02:16.145,0.00,991.49,99148.94,nan,0.00,0.64,0.42,9.31,-0.00,-0.00,0.00
2026-06-23 20:02:16.146,0.00,991.49,99148.94,nan,0.00,0.66,0.40,9.30,-0.00,-0.00,0.00
2026-06-23 20:02:16.148,0.00,991.49,99148.94,nan,0.00,0.66,0.40,9.30,-0.00,-0.00,0.00
2026-06-23 20:02:16.149,0.00,991.49,99148.94,nan,0.00,0.66,0.40,9.30,-0.00,-0.00,0.00
2026-06-23 20:02:16.155,0.00,991.49,99148.94,nan,0.00,0.66,0.40,9.30,-0.00,-0.00,0.00
2026-06-23 20:02:16.157,0.00,991.49,99148.94,nan,0.00,0.67,0.41,9.30,-0.00,-0.00,0.00
2026-06-23 20:02:16.159,0.00,991.49,99148.94,nan,0.00,0.67,0.41,9.30,-0.00,-0.00,0.00
2026-06-23 20:02:16.162,0.00,991.49,99148.94,nan,0.00,0.67,0.41,9.30,-0.00,-0.00,0.00
2026-06-23 20:02:16.166,0.00,991.49,99148.94,nan,0.00,0.67,0.41,9.30,0.00,-0.00,0.00
2026-06-23 20:02:16.168,0.00,991.49,99148.94,nan,0.00,0.66,0.40,9.29,0.00,-0.00,0.00
2026-06-23 20:02:16.169,0.00,991.49,99148.94,nan,0.00,0.66,0.40,9.29,0.00,-0.00,0.00
2026-06-23 20:02:16.171,0.00,991.49,99148.94,nan,0.00,0.66,0.40,9.29,0.00,-0.00,0.00
2026-06-23 20:02:16.173,0.00,991.49,99148.94,nan,0.00,0.66,0.40,9.29,0.00,-0.00,0.00
2026-06-23 20:02:16.176,0.00,991.49,99148.94,nan,0.00,0.66,0.40,9.29,-0.00,-0.00,-0.00
2026-06-23 20:02:16.177,0.00,991.49,99148.94,nan,0.00,0.65,0.37,9.29,-0.00,-0.00,-0.00
2026-06-23 20:02:16.179,0.00,991.49,99148.94,nan,0.00,0.65,0.37,9.29,-0.00,-0.00,-0.00
2026-06-23 20:02:16.182,0.00,991.49,99148.94,nan,0.00,0.65,0.37,9.29,-0.00,-0.00,-0.00
2026-06-23 20:02:16.186,0.00,991.49,99148.94,nan,0.00,0.65,0.37,9.29,-0.00,-0.01,0.00
2026-06-23 20:02:16.187,0.00,991.49,99148.94,nan,0.00,0.66,0.34,9.30,-0.00,-0.01,0.00
2026-06-23 20:02:16.189,0.00,991.49,99148.94,nan,0.00,0.66,0.34,9.30,-0.00,-0.01,0.00
2026-06-23 20:02:16.195,0.00,991.49,99148.94,nan,0.00,0.66,0.34,9.30,-0.00,-0.01,0.00
2026-06-23 20:02:16.197,0.00,991.49,99148.94,nan,0.00,0.67,0.37,9.27,0.00,-0.00,-0.00
2026-06-23 20:02:16.198,0.00,991.49,99148.94,nan,0.00,0.67,0.37,9.27,0.00,-0.00,-0.00
2026-06-23 20:02:16.199,0.00,991.49,99148.94,nan,0.00,0.67,0.37,9.27,0.00,-0.00,-0.00
2026-06-23 20:02:16.203,0.00,991.49,99148.94,nan,0.00,0.67,0.37,9.27,0.00,-0.00,-0.00
2026-06-23 20:02:16.206,0.00,991.49,99148.94,nan,0.00,0.66,0.36,9.30,0.00,-0.00,0.00
2026-06-23 20:02:16.208,0.00,991.49,99148.94,nan,0.00,0.66,0.36,9.30,0.00,-0.00,0.00
2026-06-23 20:02:16.209,0.00,991.49,99148.94,nan,0.00,0.66,0.36,9.30,0.00,-0.00,0.00
2026-06-23 20:02:16.215,0.00,991.49,99148.94,nan,0.00,0.66,0.36,9.30,0.00,-0.00,0.00
2026-06-23 20:02:16.217,0.00,991.49,99148.94,nan,0.00,0.66,0.37,9.29,-0.00,-0.00,0.00
2026-06-23 20:02:16.219,0.00,991.49,99148.94,nan,0.00,0.66,0.37,9.29,-0.00,-0.00,0.00
2026-06-23 20:02:16.220,0.00,991.49,99148.94,nan,0.00,0.66,0.37,9.29,-0.00,-0.00,0.00
2026-06-23 20:02:16.222,0.00,991.49,99148.94,nan,0.00,0.66,0.37,9.29,-0.00,-0.00,0.00
2026-06-23 20:02:16.225,0.00,991.49,99148.94,nan,0.00,0.66,0.37,9.29,0.00,-0.00,0.00
2026-06-23 20:02:16.227,0.00,991.49,99148.94,nan,0.00,0.69,0.38,9.29,0.00,-0.00,0.00
2026-06-23 20:02:16.228,0.00,991.49,99148.94,nan,0.00,0.69,0.38,9.29,0.00,-0.00,0.00
2026-06-23 20:02:16.230,0.00,991.49,99148.94,nan,0.00,0.69,0.38,9.29,0.00,-0.00,0.00
2026-06-23 20:02:16.235,0.00,991.49,99148.94,nan,0.00,0.69,0.38,9.29,0.00,-0.00,0.00
2026-06-23 20:02:16.427,0.00,991.47,99146.61,nan,0.00,0.66,0.39,9.29,-0.00,-0.01,0.00
2026-06-23 20:02:16.428,0.00,991.47,99146.61,nan,0.00,0.66,0.39,9.29,-0.00,-0.01,0.00
2026-06-23 20:02:16.430,0.00,991.47,99146.61,nan,0.00,0.66,0.39,9.29,-0.00,-0.01,0.00
2026-06-23 20:02:16.434,0.00,991.47,99146.61,nan,0.00,0.66,0.39,9.29,-0.00,-0.01,0.00
2026-06-23 20:02:16.437,0.00,991.47,99146.61,nan,0.00,0.67,0.40,9.28,0.00,-0.00,0.00
2026-06-23 20:02:16.438,0.00,991.47,99146.61,nan,0.00,0.67,0.40,9.28,0.00,-0.00,0.00
2026-06-23 20:02:16.442,0.00,991.47,99146.61,nan,0.00,0.67,0.40,9.28,0.00,-0.00,0.00
2026-06-23 20:02:16.446,0.00,991.47,99146.61,nan,0.00,0.67,0.40,9.28,0.00,-0.00,-0.00
2026-06-23 20:02:16.448,0.00,991.47,99146.61,nan,0.00,0.67,0.39,9.28,0.00,-0.00,-0.00
2026-06-23 20:02:16.449,0.00,991.47,99146.61,nan,0.00,0.67,0.39,9.28,0.00,-0.00,-0.00
2026-06-23 20:02:16.452,0.00,991.47,99146.61,nan,0.00,0.67,0.39,9.28,0.00,-0.00,-0.00
2026-06-23 20:02:16.457,0.00,991.47,99146.61,nan,0.00,0.67,0.39,9.28,0.00,0.00,-0.00
2026-06-23 20:02:16.458,0.00,991.47,99146.61,nan,0.00,0.67,0.39,9.28,0.00,0.00,-0.00
2026-06-23 20:02:16.459,0.00,991.47,99146.61,nan,0.00,0.67,0.39,9.28,0.00,0.00,-0.00
2026-06-23 20:02:16.463,0.00,991.47,99146.61,nan,0.00,0.67,0.39,9.28,0.00,0.00,-0.00
2026-06-23 20:02:16.467,0.00,991.47,99146.61,nan,0.00,0.67,0.39,9.28,0.00,0.00,-0.00
2026-06-23 20:02:16.469,0.00,991.47,99146.61,nan,0.00,0.67,0.39,9.29,0.00,0.00,-0.00
2026-06-23 20:02:16.470,0.00,991.47,99146.61,nan,0.00,0.67,0.39,9.29,0.00,0.00,-0.00
2026-06-23 20:02:16.472,0.00,991.47,99146.61,nan,0.00,0.67,0.39,9.29,0.00,0.00,-0.00
2026-06-23 20:02:16.474,0.00,991.47,99146.61,nan,0.00,0.67,0.39,9.29,0.00,0.00,-0.00
2026-06-23 20:02:16.477,0.00,991.47,99146.61,nan,0.00,0.67,0.38,9.32,0.00,0.00,-0.00
2026-06-23 20:02:16.478,0.00,991.47,99146.61,nan,0.00,0.67,0.38,9.32,0.00,0.00,-0.00
2026-06-23 20:02:16.480,0.00,991.47,99146.61,nan,0.00,0.67,0.38,9.32,0.00,0.00,-0.00
2026-06-23 20:02:16.483,0.00,991.47,99146.61,nan,0.00,0.67,0.38,9.32,0.00,0.00,-0.00
2026-06-23 20:02:16.487,0.00,991.47,99146.61,nan,0.00,0.67,0.38,9.32,0.00,0.00,0.00
2026-06-23 20:02:16.488,0.00,991.47,99146.61,nan,0.00,0.66,0.38,9.31,0.00,0.00,0.00
2026-06-23 20:02:16.490,0.00,991.47,99146.61,nan,0.00,0.66,0.38,9.31,0.00,0.00,0.00
2026-06-23 20:02:16.496,0.00,991.47,99146.61,nan,0.00,0.66,0.38,9.31,0.00,0.00,0.00
2026-06-23 20:02:16.497,0.00,991.47,99146.61,nan,0.00,0.67,0.39,9.30,0.00,0.00,0.00
2026-06-23 20:02:16.499,0.00,991.47,99146.61,nan,0.00,0.67,0.39,9.30,0.00,0.00,0.00
2026-06-23 20:02:16.500,0.00,991.47,99146.61,nan,0.00,0.67,0.39,9.30,0.00,0.00,0.00
2026-06-23 20:02:16.505,0.00,991.47,99146.61,nan,0.00,0.67,0.39,9.30,0.00,0.00,0.00
2026-06-23 20:02:16.507,0.00,991.47,99146.61,nan,0.00,0.65,0.40,9.30,0.00,0.01,0.00
2026-06-23 20:02:16.509,0.00,991.47,99146.61,nan,0.00,0.65,0.40,9.30,0.00,0.01,0.00
2026-06-23 20:02:16.510,0.00,991.47,99146.61,nan,0.00,0.65,0.40,9.30,0.00,0.01,0.00
2026-06-23 20:02:16.515,0.00,991.47,99146.61,nan,0.00,0.65,0.40,9.30,0.00,0.01,0.00
2026-06-23 20:02:16.517,0.00,991.47,99146.61,nan,0.00,0.66,0.39,9.33,0.00,0.00,-0.00
2026-06-23 20:02:16.519,0.00,991.47,99146.61,nan,0.00,0.66,0.39,9.33,0.00,0.00,-0.00
2026-06-23 20:02:16.521,0.00,991.47,99146.61,nan,0.00,0.66,0.39,9.33,0.00,0.00,-0.00
2026-06-23 20:02:16.522,0.00,991.47,99146.61,nan,0.00,0.66,0.39,9.33,0.00,0.00,-0.00
2026-06-23 20:02:16.524,0.00,991.47,99146.61,nan,0.00,0.66,0.39,9.33,0.00,0.00,-0.00
2026-06-23 20:02:16.527,0.00,991.47,99146.61,nan,0.00,0.67,0.40,9.29,0.00,0.00,0.00
2026-06-23 20:02:16.717,0.00,991.46,99145.83,nan,0.00,0.66,0.39,9.29,0.00,0.00,-0.00
2026-06-23 20:02:16.719,0.00,991.46,99145.83,nan,0.00,0.66,0.41,9.32,0.00,0.00,-0.00
2026-06-23 20:02:16.721,0.00,991.46,99145.83,nan,0.00,0.66,0.41,9.32,0.00,0.00,-0.00
2026-06-23 20:02:16.726,0.00,991.46,99145.83,nan,0.00,0.66,0.41,9.32,0.00,0.00,-0.00
2026-06-23 20:02:16.727,0.00,991.46,99145.83,nan,0.00,0.67,0.40,9.30,0.00,0.00,0.00
2026-06-23 20:02:16.729,0.00,991.46,99145.83,nan,0.00,0.67,0.40,9.30,0.00,0.00,0.00
2026-06-23 20:02:16.730,0.00,991.46,99145.83,nan,0.00,0.67,0.40,9.30,0.00,0.00,0.00
2026-06-23 20:02:16.736,0.00,991.46,99145.83,nan,0.00,0.67,0.40,9.30,0.00,0.00,0.00
2026-06-23 20:02:16.738,0.00,991.46,99145.83,nan,0.00,0.67,0.35,9.31,0.00,0.00,0.00
2026-06-23 20:02:16.739,0.00,991.46,99145.83,nan,0.00,0.67,0.35,9.31,0.00,0.00,0.00
2026-06-23 20:02:16.743,0.00,991.46,99145.83,nan,0.00,0.67,0.35,9.31,0.00,0.00,0.00
2026-06-23 20:02:16.747,0.00,991.46,99145.83,nan,0.00,0.67,0.35,9.31,0.00,0.00,0.00
2026-06-23 20:02:16.748,0.00,991.46,99145.83,nan,0.00,0.66,0.38,9.29,0.00,0.00,0.00
2026-06-23 20:02:16.750,0.00,991.46,99145.83,nan,0.00,0.66,0.38,9.29,0.00,0.00,0.00
2026-06-23 20:02:16.754,0.00,991.46,99145.83,nan,0.00,0.66,0.38,9.29,0.00,0.00,0.00
2026-06-23 20:02:16.757,0.00,991.46,99145.83,nan,0.00,0.66,0.38,9.29,0.00,0.00,-0.00
2026-06-23 20:02:16.759,0.00,991.46,99145.83,nan,0.00,0.67,0.38,9.30,0.00,0.00,-0.00
2026-06-23 20:02:16.760,0.00,991.46,99145.83,nan,0.00,0.67,0.38,9.30,0.00,0.00,-0.00
2026-06-23 20:02:16.763,0.00,991.46,99145.83,nan,0.00,0.67,0.38,9.30,0.00,0.00,-0.00
2026-06-23 20:02:16.767,0.00,991.46,99145.83,nan,0.00,0.67,0.38,9.30,0.00,0.00,0.00
2026-06-23 20:02:16.769,0.00,991.46,99145.83,nan,0.00,0.66,0.37,9.30,0.00,0.00,0.00
2026-06-23 20:02:16.771,0.00,991.46,99145.83,nan,0.00,0.66,0.37,9.30,0.00,0.00,0.00
2026-06-23 20:02:16.772,0.00,991.46,99145.83,nan,0.00,0.66,0.37,9.30,0.00,0.00,0.00
2026-06-23 20:02:16.774,0.00,991.46,99145.83,nan,0.00,0.66,0.37,9.30,0.00,0.00,0.00
2026-06-23 20:02:16.777,0.00,991.46,99145.83,nan,0.00,0.66,0.37,9.30,0.00,0.00,0.00
2026-06-23 20:02:16.779,0.00,991.46,99145.83,nan,0.00,0.66,0.37,9.29,0.00,0.00,0.00
2026-06-23 20:02:16.780,0.00,991.46,99145.83,nan,0.00,0.66,0.37,9.29,0.00,0.00,0.00
2026-06-23 20:02:16.781,0.00,991.46,99145.83,nan,0.00,0.66,0.37,9.29,0.00,0.00,0.00
2026-06-23 20:02:16.787,0.00,991.46,99145.83,nan,0.00,0.66,0.37,9.29,0.00,0.00,0.00
2026-06-23 20:02:16.788,0.00,991.46,99145.83,nan,0.00,0.66,0.41,9.28,0.00,0.00,0.00
2026-06-23 20:02:16.790,0.00,991.46,99145.83,nan,0.00,0.66,0.41,9.28,0.00,0.00,0.00
2026-06-23 20:02:16.793,0.00,991.46,99145.83,nan,0.00,0.66,0.41,9.28,0.00,0.00,0.00
2026-06-23 20:02:16.797,0.00,991.46,99145.83,nan,0.00,0.66,0.41,9.28,-0.00,0.00,0.00
2026-06-23 20:02:16.798,0.00,991.46,99145.83,nan,0.00,0.66,0.38,9.31,-0.00,0.00,0.00
2026-06-23 20:02:16.800,0.00,991.46,99145.83,nan,0.00,0.66,0.38,9.31,-0.00,0.00,0.00
2026-06-23 20:02:16.802,0.00,991.46,99145.83,nan,0.00,0.66,0.38,9.31,-0.00,0.00,0.00
2026-06-23 20:02:16.807,0.00,991.46,99145.83,nan,0.00,0.66,0.38,9.31,-0.00,0.00,0.00
2026-06-23 20:02:16.808,0.00,991.46,99145.83,nan,0.00,0.67,0.37,9.31,0.00,-0.00,0.00
2026-06-23 20:02:16.810,0.00,991.46,99145.83,nan,0.00,0.67,0.37,9.31,0.00,-0.00,0.00
2026-06-23 20:02:16.811,0.00,991.46,99145.83,nan,0.00,0.67,0.37,9.31,0.00,-0.00,0.00
2026-06-23 20:02:16.816,0.00,991.46,99145.83,nan,0.00,0.67,0.37,9.31,0.00,-0.00,0.00
2026-06-23 20:02:17.008,0.00,991.45,99144.79,nan,0.00,0.67,0.38,9.29,-0.00,0.00,0.00
2026-06-23 20:02:17.010,0.00,991.45,99144.79,nan,0.00,0.67,0.38,9.29,-0.00,0.00,0.00
2026-06-23 20:02:17.011,0.00,991.45,99144.79,nan,0.00,0.67,0.38,9.29,-0.00,0.00,0.00
2026-06-23 20:02:17.016,0.00,991.45,99144.79,nan,0.00,0.67,0.38,9.29,-0.00,0.00,0.00
2026-06-23 20:02:17.018,0.00,991.45,99144.79,nan,0.00,0.66,0.40,9.30,0.00,0.00,0.00
2026-06-23 20:02:17.020,0.00,991.45,99144.79,nan,0.00,0.66,0.40,9.30,0.00,0.00,0.00
2026-06-23 20:02:17.022,0.00,991.45,99144.79,nan,0.00,0.66,0.40,9.30,0.00,0.00,0.00
2026-06-23 20:02:17.023,0.00,991.45,99144.79,nan,0.00,0.66,0.40,9.30,0.00,0.00,0.00
2026-06-23 20:02:17.025,0.00,991.45,99144.79,nan,0.00,0.66,0.40,9.30,0.00,0.00,0.00
2026-06-23 20:02:17.028,0.00,991.45,99144.79,nan,0.00,0.66,0.40,9.30,0.00,0.00,-0.00
2026-06-23 20:02:17.029,0.00,991.45,99144.79,nan,0.00,0.67,0.38,9.28,0.00,0.00,-0.00
2026-06-23 20:02:17.030,0.00,991.45,99144.79,nan,0.00,0.67,0.38,9.28,0.00,0.00,-0.00
2026-06-23 20:02:17.032,0.00,991.45,99144.79,nan,0.00,0.67,0.38,9.28,0.00,0.00,-0.00
2026-06-23 20:02:17.037,0.00,991.45,99144.79,nan,0.00,0.67,0.38,9.28,0.00,0.00,-0.00
2026-06-23 20:02:17.039,0.00,991.45,99144.79,nan,0.00,0.66,0.39,9.28,0.00,-0.00,0.00
2026-06-23 20:02:17.041,0.00,991.45,99144.79,nan,0.00,0.66,0.39,9.28,0.00,-0.00,0.00
2026-06-23 20:02:17.043,0.00,991.45,99144.79,nan,0.00,0.66,0.39,9.28,0.00,-0.00,0.00
2026-06-23 20:02:17.047,0.00,991.45,99144.79,nan,0.00,0.66,0.39,9.28,0.00,0.00,0.00
2026-06-23 20:02:17.049,0.00,991.45,99144.79,nan,0.00,0.66,0.39,9.26,0.00,0.00,0.00
2026-06-23 20:02:17.051,0.00,991.45,99144.79,nan,0.00,0.66,0.39,9.26,0.00,0.00,0.00
2026-06-23 20:02:17.055,0.00,991.45,99144.79,nan,0.00,0.66,0.39,9.26,0.00,0.00,0.00
2026-06-23 20:02:17.058,0.00,991.45,99144.79,nan,0.00,0.66,0.39,9.26,-0.00,0.00,-0.00
2026-06-23 20:02:17.060,0.00,991.45,99144.79,nan,0.00,0.66,0.39,9.28,-0.00,0.00,-0.00
2026-06-23 20:02:17.061,0.00,991.45,99144.79,nan,0.00,0.66,0.39,9.28,-0.00,0.00,-0.00
2026-06-23 20:02:17.066,0.00,991.45,99144.79,nan,0.00,0.66,0.39,9.28,-0.00,0.00,-0.00
2026-06-23 20:02:17.069,0.00,991.45,99144.79,nan,0.00,0.65,0.39,9.31,0.00,0.00,-0.00
2026-06-23 20:02:17.070,0.00,991.45,99144.79,nan,0.00,0.65,0.39,9.31,0.00,0.00,-0.00
2026-06-23 20:02:17.072,0.00,991.45,99144.79,nan,0.00,0.65,0.39,9.31,0.00,0.00,-0.00
2026-06-23 20:02:17.074,0.00,991.45,99144.79,nan,0.00,0.65,0.39,9.31,0.00,0.00,-0.00
2026-06-23 20:02:17.077,0.00,991.45,99144.79,nan,0.00,0.65,0.39,9.31,0.00,0.00,-0.00
2026-06-23 20:02:17.078,0.00,991.45,99144.79,nan,0.00,0.65,0.37,9.28,0.00,-0.00,-0.00
2026-06-23 20:02:17.080,0.00,991.45,99144.79,nan,0.00,0.65,0.37,9.28,0.00,-0.00,-0.00
2026-06-23 20:02:17.081,0.00,991.45,99144.79,nan,0.00,0.65,0.37,9.28,0.00,-0.00,-0.00
2026-06-23 20:02:17.085,0.00,991.45,99144.79,nan,0.00,0.65,0.37,9.28,0.00,-0.00,-0.00
2026-06-23 20:02:17.088,0.00,991.45,99144.79,nan,0.00,0.65,0.37,9.28,0.00,-0.00,0.00
2026-06-23 20:02:17.090,0.00,991.45,99144.79,nan,0.00,0.66,0.37,9.31,0.00,-0.00,0.00
2026-06-23 20:02:17.091,0.00,991.45,99144.79,nan,0.00,0.66,0.37,9.31,0.00,-0.00,0.00
2026-06-23 20:02:17.097,0.00,991.45,99144.79,nan,0.00,0.66,0.37,9.31,0.00,-0.00,0.00
2026-06-23 20:02:17.098,0.00,991.45,99144.79,nan,0.00,0.66,0.39,9.27,0.00,-0.00,0.00
2026-06-23 20:02:17.100,0.00,991.45,99144.79,nan,0.00,0.66,0.39,9.27,0.00,-0.00,0.00
2026-06-23 20:02:17.101,0.00,991.45,99144.79,nan,0.00,0.66,0.39,9.27,0.00,-0.00,0.00
2026-06-23 20:02:17.106,0.00,991.45,99144.79,nan,0.00,0.66,0.39,9.27,0.00,-0.00,0.00
2026-06-23 20:02:17.108,0.00,991.45,99144.79,nan,0.00,0.66,0.38,9.31,0.00,0.00,0.00
2026-06-23 20:02:17.299,0.00,991.44,99144.43,nan,0.00,0.65,0.40,9.27,0.00,-0.00,-0.00
2026-06-23 20:02:17.301,0.00,991.44,99144.43,nan,0.00,0.65,0.40,9.27,0.00,-0.00,-0.00
2026-06-23 20:02:17.303,0.00,991.44,99144.43,nan,0.00,0.65,0.40,9.27,0.00,-0.00,-0.00
2026-06-23 20:02:17.308,0.00,991.44,99144.43,nan,0.00,0.65,0.40,9.27,0.00,-0.00,-0.00
2026-06-23 20:02:17.309,0.00,991.44,99144.43,nan,0.00,0.66,0.38,9.29,-0.00,-0.00,0.00
2026-06-23 20:02:17.311,0.00,991.44,99144.43,nan,0.00,0.66,0.38,9.29,-0.00,-0.00,0.00
2026-06-23 20:02:17.312,0.00,991.44,99144.43,nan,0.00,0.66,0.38,9.29,-0.00,-0.00,0.00
2026-06-23 20:02:17.318,0.00,991.44,99144.43,nan,0.00,0.66,0.38,9.29,-0.00,-0.00,0.00
2026-06-23 20:02:17.320,0.00,991.44,99144.43,nan,0.00,0.64,0.39,9.30,0.00,-0.00,0.00
2026-06-23 20:02:17.322,0.00,991.44,99144.43,nan,0.00,0.64,0.39,9.30,0.00,-0.00,0.00
2026-06-23 20:02:17.323,0.00,991.44,99144.43,nan,0.00,0.64,0.39,9.30,0.00,-0.00,0.00
2026-06-23 20:02:17.325,0.00,991.44,99144.43,nan,0.00,0.64,0.39,9.30,0.00,-0.00,0.00
2026-06-23 20:02:17.328,0.00,991.44,99144.43,nan,0.00,0.64,0.39,9.30,0.00,-0.00,0.00
2026-06-23 20:02:17.329,0.00,991.44,99144.43,nan,0.00,0.66,0.39,9.29,-0.00,-0.00,0.00
2026-06-23 20:02:17.331,0.00,991.44,99144.43,nan,0.00,0.66,0.39,9.29,-0.00,-0.00,0.00
2026-06-23 20:02:17.332,0.00,991.44,99144.43,nan,0.00,0.66,0.39,9.29,-0.00,-0.00,0.00
2026-06-23 20:02:17.338,0.00,991.44,99144.43,nan,0.00,0.66,0.39,9.29,-0.00,-0.00,0.00
2026-06-23 20:02:17.340,0.00,991.44,99144.43,nan,0.00,0.66,0.36,9.29,0.00,-0.01,0.00
2026-06-23 20:02:17.341,0.00,991.44,99144.43,nan,0.00,0.66,0.36,9.29,0.00,-0.01,0.00
2026-06-23 20:02:17.345,0.00,991.44,99144.43,nan,0.00,0.66,0.36,9.29,0.00,-0.01,0.00
2026-06-23 20:02:17.348,0.00,991.44,99144.43,nan,0.00,0.66,0.36,9.29,0.00,-0.00,-0.00
2026-06-23 20:02:17.350,0.00,991.44,99144.43,nan,0.00,0.65,0.39,9.29,0.00,-0.00,-0.00
2026-06-23 20:02:17.352,0.00,991.44,99144.43,nan,0.00,0.65,0.39,9.29,0.00,-0.00,-0.00
2026-06-23 20:02:17.358,0.00,991.44,99144.43,nan,0.00,0.65,0.39,9.29,0.00,-0.00,-0.00
2026-06-23 20:02:17.360,0.00,991.44,99144.43,nan,0.00,0.67,0.37,9.31,0.00,-0.00,-0.00
2026-06-23 20:02:17.361,0.00,991.44,99144.43,nan,0.00,0.67,0.37,9.31,0.00,-0.00,-0.00
2026-06-23 20:02:17.363,0.00,991.44,99144.43,nan,0.00,0.67,0.37,9.31,0.00,-0.00,-0.00
2026-06-23 20:02:17.368,0.00,991.44,99144.43,nan,0.00,0.67,0.37,9.31,0.00,-0.00,-0.00
2026-06-23 20:02:17.370,0.00,991.44,99144.43,nan,0.00,0.66,0.39,9.32,-0.00,-0.00,-0.00
2026-06-23 20:02:17.372,0.00,991.44,99144.43,nan,0.00,0.66,0.39,9.32,-0.00,-0.00,-0.00
2026-06-23 20:02:17.374,0.00,991.44,99144.43,nan,0.00,0.66,0.39,9.32,-0.00,-0.00,-0.00
2026-06-23 20:02:17.375,0.00,991.44,99144.43,nan,0.00,0.66,0.39,9.32,-0.00,-0.00,-0.00
2026-06-23 20:02:17.378,0.00,991.44,99144.43,nan,0.00,0.66,0.39,9.32,0.00,-0.00,0.00
2026-06-23 20:02:17.380,0.00,991.44,99144.43,nan,0.00,0.67,0.39,9.30,0.00,-0.00,0.00
2026-06-23 20:02:17.381,0.00,991.44,99144.43,nan,0.00,0.67,0.39,9.30,0.00,-0.00,0.00
2026-06-23 20:02:17.385,0.00,991.44,99144.43,nan,0.00,0.67,0.39,9.30,0.00,-0.00,0.00
2026-06-23 20:02:17.389,0.00,991.44,99144.43,nan,0.00,0.67,0.39,9.30,0.00,0.00,0.00
2026-06-23 20:02:17.391,0.00,991.44,99144.43,nan,0.00,0.67,0.39,9.30,0.00,0.00,0.00
2026-06-23 20:02:17.392,0.00,991.44,99144.43,nan,0.00,0.67,0.39,9.30,0.00,0.00,0.00
2026-06-23 20:02:17.398,0.00,991.44,99144.43,nan,0.00,0.67,0.39,9.30,0.00,0.00,0.00
2026-06-23 20:02:17.590,0.00,991.45,99144.96,nan,0.00,0.66,0.39,9.31,-0.00,-0.00,0.00
2026-06-23 20:02:17.592,0.00,991.45,99144.96,nan,0.00,0.66,0.39,9.31,-0.00,-0.00,0.00
2026-06-23 20:02:17.598,0.00,991.45,99144.96,nan,0.00,0.66,0.39,9.31,-0.00,-0.00,0.00
2026-06-23 20:02:17.600,0.00,991.45,99144.96,nan,0.00,0.66,0.40,9.29,0.00,-0.00,-0.00
2026-06-23 20:02:17.601,0.00,991.45,99144.96,nan,0.00,0.66,0.40,9.29,0.00,-0.00,-0.00
2026-06-23 20:02:17.603,0.00,991.45,99144.96,nan,0.00,0.66,0.40,9.29,0.00,-0.00,-0.00
2026-06-23 20:02:17.608,0.00,991.45,99144.96,nan,0.00,0.66,0.40,9.29,0.00,-0.00,-0.00
2026-06-23 20:02:17.610,0.00,991.45,99144.96,nan,0.00,0.66,0.38,9.29,-0.00,-0.00,0.00
2026-06-23 20:02:17.611,0.00,991.45,99144.96,nan,0.00,0.66,0.38,9.29,-0.00,-0.00,0.00
2026-06-23 20:02:17.617,0.00,991.45,99144.96,nan,0.00,0.66,0.38,9.29,-0.00,-0.00,0.00
2026-06-23 20:02:17.620,0.00,991.45,99144.96,nan,0.00,0.66,0.38,9.28,0.00,-0.00,0.00
2026-06-23 20:02:17.621,0.00,991.45,99144.96,nan,0.00,0.66,0.38,9.28,0.00,-0.00,0.00
2026-06-23 20:02:17.623,0.00,991.45,99144.96,nan,0.00,0.66,0.38,9.28,0.00,-0.00,0.00
2026-06-23 20:02:17.625,0.00,991.45,99144.96,nan,0.00,0.66,0.38,9.28,0.00,-0.00,0.00
2026-06-23 20:02:17.626,0.00,991.45,99144.96,nan,0.00,0.66,0.38,9.28,0.00,-0.00,0.00
2026-06-23 20:02:17.629,0.00,991.45,99144.96,nan,0.00,0.66,0.38,9.28,-0.00,-0.00,-0.00
2026-06-23 20:02:17.631,0.00,991.45,99144.96,nan,0.00,0.66,0.38,9.30,-0.00,-0.00,-0.00
2026-06-23 20:02:17.632,0.00,991.45,99144.96,nan,0.00,0.66,0.38,9.30,-0.00,-0.00,-0.00
2026-06-23 20:02:17.636,0.00,991.45,99144.96,nan,0.00,0.66,0.38,9.30,-0.00,-0.00,-0.00
2026-06-23 20:02:17.640,0.00,991.45,99144.96,nan,0.00,0.66,0.38,9.30,-0.00,-0.01,0.00
2026-06-23 20:02:17.641,0.00,991.45,99144.96,nan,0.00,0.66,0.40,9.30,-0.00,-0.01,0.00
2026-06-23 20:02:17.643,0.00,991.45,99144.96,nan,0.00,0.66,0.40,9.30,-0.00,-0.01,0.00
2026-06-23 20:02:17.647,0.00,991.45,99144.96,nan,0.00,0.66,0.40,9.30,-0.00,-0.01,0.00
2026-06-23 20:02:17.650,0.00,991.45,99144.96,nan,0.00,0.66,0.40,9.30,0.00,0.00,0.00
2026-06-23 20:02:17.651,0.00,991.45,99144.96,nan,0.00,0.65,0.38,9.30,0.00,0.00,0.00
2026-06-23 20:02:17.653,0.00,991.45,99144.96,nan,0.00,0.65,0.38,9.30,0.00,0.00,0.00
2026-06-23 20:02:17.659,0.00,991.45,99144.96,nan,0.00,0.65,0.38,9.30,0.00,0.00,0.00
2026-06-23 20:02:17.660,0.00,991.45,99144.96,nan,0.00,0.66,0.36,9.28,0.00,-0.00,0.00
2026-06-23 20:02:17.662,0.00,991.45,99144.96,nan,0.00,0.66,0.36,9.28,0.00,-0.00,0.00
2026-06-23 20:02:17.663,0.00,991.45,99144.96,nan,0.00,0.66,0.36,9.28,0.00,-0.00,0.00
2026-06-23 20:02:17.669,0.00,991.45,99144.96,nan,0.00,0.66,0.36,9.28,0.00,-0.00,0.00
2026-06-23 20:02:17.671,0.00,991.45,99144.96,nan,0.00,0.66,0.40,9.29,0.00,0.00,-0.00
2026-06-23 20:02:17.672,0.00,991.45,99144.96,nan,0.00,0.66,0.40,9.29,0.00,0.00,-0.00
2026-06-23 20:02:17.674,0.00,991.45,99144.96,nan,0.00,0.66,0.40,9.29,0.00,0.00,-0.00
2026-06-23 20:02:17.676,0.00,991.45,99144.96,nan,0.00,0.66,0.40,9.29,0.00,0.00,-0.00
2026-06-23 20:02:17.679,0.00,991.45,99144.96,nan,0.00,0.66,0.40,9.29,0.00,0.00,-0.00
2026-06-23 20:02:17.680,0.00,991.45,99144.96,nan,0.00,0.66,0.38,9.29,0.00,0.00,-0.00
2026-06-23 20:02:17.682,0.00,991.45,99144.96,nan,0.00,0.66,0.38,9.29,0.00,0.00,-0.00
2026-06-23 20:02:17.683,0.00,991.45,99144.96,nan,0.00,0.66,0.38,9.29,0.00,0.00,-0.00
2026-06-23 20:02:17.689,0.00,991.45,99144.96,nan,0.00,0.66,0.38,9.29,0.00,0.00,-0.00
2026-06-23 20:02:17.880,0.00,991.47,99146.62,nan,0.00,0.66,0.37,9.29,0.00,0.00,0.00
2026-06-23 20:02:17.882,0.00,991.47,99146.62,nan,0.00,0.66,0.37,9.29,0.00,0.00,0.00
2026-06-23 20:02:17.884,0.00,991.47,99146.62,nan,0.00,0.66,0.37,9.29,0.00,0.00,0.00
2026-06-23 20:02:17.889,0.00,991.47,99146.62,nan,0.00,0.66,0.37,9.29,0.00,0.00,0.00
2026-06-23 20:02:17.891,0.00,991.47,99146.62,nan,0.00,0.66,0.39,9.29,-0.00,-0.00,0.00
2026-06-23 20:02:17.892,0.00,991.47,99146.62,nan,0.00,0.66,0.39,9.29,-0.00,-0.00,0.00
2026-06-23 20:02:17.894,0.00,991.47,99146.62,nan,0.00,0.66,0.39,9.29,-0.00,-0.00,0.00
2026-06-23 20:02:17.899,0.00,991.47,99146.62,nan,0.00,0.66,0.39,9.29,-0.00,-0.00,0.00
2026-06-23 20:02:17.901,0.00,991.47,99146.62,nan,0.00,0.66,0.38,9.30,-0.00,0.00,0.00
2026-06-23 20:02:17.902,0.00,991.47,99146.62,nan,0.00,0.66,0.38,9.30,-0.00,0.00,0.00
2026-06-23 20:02:17.904,0.00,991.47,99146.62,nan,0.00,0.66,0.38,9.30,-0.00,0.00,0.00
2026-06-23 20:02:17.909,0.00,991.47,99146.62,nan,0.00,0.66,0.38,9.30,-0.00,0.00,0.00
2026-06-23 20:02:17.911,0.00,991.47,99146.62,nan,0.00,0.66,0.37,9.28,-0.00,0.00,-0.00
2026-06-23 20:02:17.912,0.00,991.47,99146.62,nan,0.00,0.66,0.37,9.28,-0.00,0.00,-0.00
2026-06-23 20:02:17.914,0.00,991.47,99146.62,nan,0.00,0.66,0.37,9.28,-0.00,0.00,-0.00
2026-06-23 20:02:17.920,0.00,991.47,99146.62,nan,0.00,0.66,0.37,9.28,-0.00,0.00,-0.00
2026-06-23 20:02:17.921,0.00,991.47,99146.62,nan,0.00,0.67,0.39,9.32,0.00,0.00,0.00
2026-06-23 20:02:17.923,0.00,991.47,99146.62,nan,0.00,0.67,0.39,9.32,0.00,0.00,0.00
2026-06-23 20:02:17.925,0.00,991.47,99146.62,nan,0.00,0.67,0.39,9.32,0.00,0.00,0.00
2026-06-23 20:02:17.926,0.00,991.47,99146.62,nan,0.00,0.67,0.39,9.32,0.00,0.00,0.00
2026-06-23 20:02:17.927,0.00,991.47,99146.62,nan,0.00,0.67,0.39,9.32,0.00,0.00,0.00
2026-06-23 20:02:17.930,0.00,991.47,99146.62,nan,0.00,0.67,0.39,9.32,-0.00,-0.00,0.00
2026-06-23 20:02:17.931,0.00,991.47,99146.62,nan,0.00,0.65,0.36,9.32,-0.00,-0.00,0.00
2026-06-23 20:02:17.933,0.00,991.47,99146.62,nan,0.00,0.65,0.36,9.32,-0.00,-0.00,0.00
2026-06-23 20:02:17.937,0.00,991.47,99146.62,nan,0.00,0.65,0.36,9.32,-0.00,-0.00,0.00
2026-06-23 20:02:17.940,0.00,991.47,99146.62,nan,0.00,0.65,0.36,9.32,0.00,0.00,0.00
2026-06-23 20:02:17.942,0.00,991.47,99146.62,nan,0.00,0.65,0.36,9.31,0.00,0.00,0.00
2026-06-23 20:02:17.943,0.00,991.47,99146.62,nan,0.00,0.65,0.36,9.31,0.00,0.00,0.00
2026-06-23 20:02:17.947,0.00,991.47,99146.62,nan,0.00,0.65,0.36,9.31,0.00,0.00,0.00
2026-06-23 20:02:17.950,0.00,991.47,99146.62,nan,0.00,0.65,0.36,9.31,0.00,0.00,0.00
2026-06-23 20:02:17.952,0.00,991.47,99146.62,nan,0.00,0.66,0.39,9.29,0.00,0.00,0.00
2026-06-23 20:02:17.954,0.00,991.47,99146.62,nan,0.00,0.66,0.39,9.29,0.00,0.00,0.00
2026-06-23 20:02:17.959,0.00,991.47,99146.62,nan,0.00,0.66,0.39,9.29,0.00,0.00,0.00
2026-06-23 20:02:17.961,0.00,991.47,99146.62,nan,0.00,0.66,0.38,9.30,0.00,0.00,0.00
2026-06-23 20:02:17.962,0.00,991.47,99146.62,nan,0.00,0.66,0.38,9.30,0.00,0.00,0.00
2026-06-23 20:02:17.964,0.00,991.47,99146.62,nan,0.00,0.66,0.38,9.30,0.00,0.00,0.00
2026-06-23 20:02:17.970,0.00,991.47,99146.62,nan,0.00,0.66,0.38,9.30,0.00,0.00,0.00
2026-06-23 20:02:17.971,0.00,991.47,99146.62,nan,0.00,0.66,0.36,9.32,-0.00,0.00,0.00
2026-06-23 20:02:17.973,0.00,991.47,99146.62,nan,0.00,0.66,0.36,9.32,-0.00,0.00,0.00
2026-06-23 20:02:17.975,0.00,991.47,99146.62,nan,0.00,0.66,0.36,9.32,-0.00,0.00,0.00
2026-06-23 20:02:17.976,0.00,991.47,99146.62,nan,0.00,0.66,0.36,9.32,-0.00,0.00,0.00
2026-06-23 20:02:17.979,0.00,991.47,99146.62,nan,0.00,0.66,0.36,9.32,-0.00,0.00,0.00
2026-06-23 20:02:17.980,0.00,991.47,99146.62,nan,0.00,0.66,0.39,9.31,-0.00,0.00,0.00
2026-06-23 20:02:18.172,0.00,991.43,99142.61,nan,0.00,0.67,0.39,9.31,-0.00,0.00,0.00
2026-06-23 20:02:18.174,0.00,991.43,99142.61,nan,0.00,0.67,0.39,9.31,-0.00,0.00,0.00
2026-06-23 20:02:18.175,0.00,991.43,99142.61,nan,0.00,0.67,0.39,9.31,-0.00,0.00,0.00
2026-06-23 20:02:18.177,0.00,991.43,99142.61,nan,0.00,0.67,0.39,9.31,-0.00,0.00,0.00
2026-06-23 20:02:18.180,0.00,991.43,99142.61,nan,0.00,0.67,0.39,9.31,-0.00,0.00,0.00
2026-06-23 20:02:18.181,0.00,991.43,99142.61,nan,0.00,0.66,0.39,9.31,0.00,0.00,0.00
2026-06-23 20:02:18.183,0.00,991.43,99142.61,nan,0.00,0.66,0.39,9.31,0.00,0.00,0.00
2026-06-23 20:02:18.184,0.00,991.43,99142.61,nan,0.00,0.66,0.39,9.31,0.00,0.00,0.00
2026-06-23 20:02:18.190,0.00,991.43,99142.61,nan,0.00,0.66,0.39,9.31,0.00,0.00,0.00
2026-06-23 20:02:18.192,0.00,991.43,99142.61,nan,0.00,0.65,0.37,9.31,-0.00,0.00,0.00
2026-06-23 20:02:18.193,0.00,991.43,99142.61,nan,0.00,0.65,0.37,9.31,-0.00,0.00,0.00
2026-06-23 20:02:18.194,0.00,991.43,99142.61,nan,0.00,0.65,0.37,9.31,-0.00,0.00,0.00
2026-06-23 20:02:18.200,0.00,991.43,99142.61,nan,0.00,0.65,0.37,9.31,-0.00,0.00,0.00
2026-06-23 20:02:18.202,0.00,991.43,99142.61,nan,0.00,0.66,0.37,9.30,-0.00,0.00,-0.00
2026-06-23 20:02:18.203,0.00,991.43,99142.61,nan,0.00,0.66,0.37,9.30,-0.00,0.00,-0.00
2026-06-23 20:02:18.205,0.00,991.43,99142.61,nan,0.00,0.66,0.37,9.30,-0.00,0.00,-0.00
2026-06-23 20:02:18.210,0.00,991.43,99142.61,nan,0.00,0.66,0.37,9.30,-0.00,0.00,-0.00
2026-06-23 20:02:18.212,0.00,991.43,99142.61,nan,0.00,0.66,0.37,9.29,-0.00,0.00,0.00
2026-06-23 20:02:18.213,0.00,991.43,99142.61,nan,0.00,0.66,0.37,9.29,-0.00,0.00,0.00
2026-06-23 20:02:18.216,0.00,991.43,99142.61,nan,0.00,0.66,0.37,9.29,-0.00,0.00,0.00
2026-06-23 20:02:18.221,0.00,991.43,99142.61,nan,0.00,0.66,0.37,9.29,0.00,0.00,0.00
2026-06-23 20:02:18.222,0.00,991.43,99142.61,nan,0.00,0.67,0.40,9.32,0.00,0.00,0.00
2026-06-23 20:02:18.224,0.00,991.43,99142.61,nan,0.00,0.67,0.40,9.32,0.00,0.00,0.00
2026-06-23 20:02:18.226,0.00,991.43,99142.61,nan,0.00,0.67,0.40,9.32,0.00,0.00,0.00
2026-06-23 20:02:18.227,0.00,991.43,99142.61,nan,0.00,0.67,0.40,9.32,0.00,0.00,0.00
2026-06-23 20:02:18.230,0.00,991.43,99142.61,nan,0.00,0.67,0.40,9.32,0.00,0.00,0.00
2026-06-23 20:02:18.231,0.00,991.43,99142.61,nan,0.00,0.65,0.40,9.30,0.00,0.00,-0.00
2026-06-23 20:02:18.233,0.00,991.43,99142.61,nan,0.00,0.65,0.40,9.30,0.00,0.00,-0.00
2026-06-23 20:02:18.236,0.00,991.43,99142.61,nan,0.00,0.65,0.40,9.30,0.00,0.00,-0.00
2026-06-23 20:02:18.241,0.00,991.43,99142.61,nan,0.00,0.65,0.40,9.30,0.00,0.00,-0.00
2026-06-23 20:02:18.242,0.00,991.43,99142.61,nan,0.00,0.67,0.38,9.33,0.00,0.00,-0.00
2026-06-23 20:02:18.243,0.00,991.43,99142.61,nan,0.00,0.67,0.38,9.33,0.00,0.00,-0.00
2026-06-23 20:02:18.246,0.00,991.43,99142.61,nan,0.00,0.67,0.38,9.33,0.00,0.00,-0.00
2026-06-23 20:02:18.250,0.00,991.43,99142.61,nan,0.00,0.67,0.38,9.33,0.00,0.00,0.00
2026-06-23 20:02:18.252,0.00,991.43,99142.61,nan,0.00,0.65,0.38,9.27,0.00,0.00,0.00
2026-06-23 20:02:18.254,0.00,991.43,99142.61,nan,0.00,0.65,0.38,9.27,0.00,0.00,0.00
2026-06-23 20:02:18.259,0.00,991.43,99142.61,nan,0.00,0.65,0.38,9.27,0.00,0.00,0.00
2026-06-23 20:02:18.261,0.00,991.43,99142.61,nan,0.00,0.66,0.37,9.32,0.00,0.00,0.00
2026-06-23 20:02:18.262,0.00,991.43,99142.61,nan,0.00,0.66,0.37,9.32,0.00,0.00,0.00
2026-06-23 20:02:18.264,0.00,991.43,99142.61,nan,0.00,0.66,0.37,9.32,0.00,0.00,0.00
2026-06-23 20:02:18.268,0.00,991.43,99142.61,nan,0.00,0.66,0.37,9.32,0.00,0.00,0.00
2026-06-23 20:02:18.271,0.00,991.43,99142.61,nan,0.00,0.66,0.37,9.32,0.00,0.00,0.00
2026-06-23 20:02:18.464,0.00,991.49,99148.68,nan,0.00,0.65,0.38,9.30,-0.00,-0.00,-0.00
2026-06-23 20:02:18.467,0.00,991.49,99148.68,nan,0.00,0.65,0.38,9.30,-0.00,-0.00,-0.00
2026-06-23 20:02:18.471,0.00,991.49,99148.68,nan,0.00,0.65,0.38,9.30,-0.00,-0.00,-0.00
2026-06-23 20:02:18.473,0.00,991.49,99148.68,nan,0.00,0.66,0.40,9.29,-0.00,-0.00,-0.00
2026-06-23 20:02:18.474,0.00,991.49,99148.68,nan,0.00,0.66,0.40,9.29,-0.00,-0.00,-0.00
2026-06-23 20:02:18.476,0.00,991.49,99148.68,nan,0.00,0.66,0.40,9.29,-0.00,-0.00,-0.00
2026-06-23 20:02:18.477,0.00,991.49,99148.68,nan,0.00,0.66,0.40,9.29,-0.00,-0.00,-0.00
2026-06-23 20:02:18.479,0.00,991.49,99148.68,nan,0.00,0.66,0.40,9.29,-0.00,-0.00,-0.00
2026-06-23 20:02:18.481,0.00,991.49,99148.68,nan,0.00,0.66,0.40,9.29,0.00,-0.00,0.00
2026-06-23 20:02:18.483,0.00,991.49,99148.68,nan,0.00,0.65,0.40,9.30,0.00,-0.00,0.00
2026-06-23 20:02:18.485,0.00,991.49,99148.68,nan,0.00,0.65,0.40,9.30,0.00,-0.00,0.00
2026-06-23 20:02:18.491,0.00,991.49,99148.68,nan,0.00,0.65,0.40,9.30,0.00,-0.00,0.00
2026-06-23 20:02:18.492,0.00,991.49,99148.68,nan,0.00,0.66,0.38,9.33,0.00,-0.00,0.00
2026-06-23 20:02:18.494,0.00,991.49,99148.68,nan,0.00,0.66,0.38,9.33,0.00,-0.00,0.00
2026-06-23 20:02:18.501,0.00,991.49,99148.68,nan,0.00,0.66,0.38,9.33,0.00,-0.00,0.00
2026-06-23 20:02:18.503,0.00,991.49,99148.68,nan,0.00,0.66,0.35,9.30,0.00,-0.00,0.00
2026-06-23 20:02:18.504,0.00,991.49,99148.68,nan,0.00,0.66,0.35,9.30,0.00,-0.00,0.00
2026-06-23 20:02:18.506,0.00,991.49,99148.68,nan,0.00,0.66,0.35,9.30,0.00,-0.00,0.00
2026-06-23 20:02:18.511,0.00,991.49,99148.68,nan,0.00,0.66,0.35,9.30,0.00,-0.00,0.00
2026-06-23 20:02:18.512,0.00,991.49,99148.68,nan,0.00,0.65,0.39,9.27,-0.00,0.00,0.00
2026-06-23 20:02:18.513,0.00,991.49,99148.68,nan,0.00,0.65,0.39,9.27,-0.00,0.00,0.00
2026-06-23 20:02:18.515,0.00,991.49,99148.68,nan,0.00,0.65,0.39,9.27,-0.00,0.00,0.00
2026-06-23 20:02:18.520,0.00,991.49,99148.68,nan,0.00,0.65,0.39,9.27,-0.00,0.00,0.00
2026-06-23 20:02:18.522,0.00,991.49,99148.68,nan,0.00,0.66,0.41,9.30,0.00,-0.00,0.00
2026-06-23 20:02:18.524,0.00,991.49,99148.68,nan,0.00,0.66,0.41,9.30,0.00,-0.00,0.00
2026-06-23 20:02:18.525,0.00,991.49,99148.68,nan,0.00,0.66,0.41,9.30,0.00,-0.00,0.00
2026-06-23 20:02:18.526,0.00,991.49,99148.68,nan,0.00,0.66,0.41,9.30,0.00,-0.00,0.00
2026-06-23 20:02:18.528,0.00,991.49,99148.68,nan,0.00,0.66,0.41,9.30,0.00,-0.00,0.00
2026-06-23 20:02:18.531,0.00,991.49,99148.68,nan,0.00,0.66,0.41,9.30,0.00,-0.00,0.00
2026-06-23 20:02:18.532,0.00,991.49,99148.68,nan,0.00,0.65,0.39,9.31,0.00,-0.00,-0.00
2026-06-23 20:02:18.534,0.00,991.49,99148.68,nan,0.00,0.65,0.39,9.31,0.00,-0.00,-0.00
2026-06-23 20:02:18.535,0.00,991.49,99148.68,nan,0.00,0.65,0.39,9.31,0.00,-0.00,-0.00
2026-06-23 20:02:18.541,0.00,991.49,99148.68,nan,0.00,0.65,0.39,9.31,0.00,-0.00,-0.00
2026-06-23 20:02:18.543,0.00,991.49,99148.68,nan,0.00,0.66,0.38,9.32,-0.00,0.00,0.00
2026-06-23 20:02:18.544,0.00,991.49,99148.68,nan,0.00,0.66,0.38,9.32,-0.00,0.00,0.00
2026-06-23 20:02:18.548,0.00,991.49,99148.68,nan,0.00,0.66,0.38,9.32,-0.00,0.00,0.00
2026-06-23 20:02:18.552,0.00,991.49,99148.68,nan,0.00,0.66,0.38,9.32,-0.00,-0.00,0.00
2026-06-23 20:02:18.553,0.00,991.49,99148.68,nan,0.00,0.65,0.38,9.29,-0.00,-0.00,0.00
2026-06-23 20:02:18.555,0.00,991.49,99148.68,nan,0.00,0.65,0.38,9.29,-0.00,-0.00,0.00
2026-06-23 20:02:18.561,0.00,991.49,99148.68,nan,0.00,0.65,0.38,9.29,-0.00,-0.00,0.00
2026-06-23 20:02:18.563,0.00,991.49,99148.68,nan,0.00,0.65,0.39,9.27,-0.00,-0.00,0.00
2026-06-23 20:02:18.752,0.00,991.44,99144.38,nan,0.00,0.65,0.39,9.28,0.00,-0.00,-0.00
2026-06-23 20:02:18.754,0.00,991.44,99144.38,nan,0.00,0.66,0.37,9.28,0.00,-0.00,-0.00
2026-06-23 20:02:18.756,0.00,991.44,99144.38,nan,0.00,0.66,0.37,9.28,0.00,-0.00,-0.00
2026-06-23 20:02:18.761,0.00,991.44,99144.38,nan,0.00,0.66,0.37,9.28,0.00,-0.00,-0.00
2026-06-23 20:02:18.763,0.00,991.44,99144.38,nan,0.00,0.66,0.37,9.29,-0.00,-0.00,0.00
2026-06-23 20:02:18.764,0.00,991.44,99144.38,nan,0.00,0.66,0.37,9.29,-0.00,-0.00,0.00
2026-06-23 20:02:18.765,0.00,991.44,99144.38,nan,0.00,0.66,0.37,9.29,-0.00,-0.00,0.00
2026-06-23 20:02:18.772,0.00,991.44,99144.38,nan,0.00,0.66,0.37,9.29,-0.00,-0.00,0.00
2026-06-23 20:02:18.773,0.00,991.44,99144.38,nan,0.00,0.67,0.40,9.29,-0.00,-0.00,-0.00
2026-06-23 20:02:18.775,0.00,991.44,99144.38,nan,0.00,0.67,0.40,9.29,-0.00,-0.00,-0.00
2026-06-23 20:02:18.776,0.00,991.44,99144.38,nan,0.00,0.67,0.40,9.29,-0.00,-0.00,-0.00
2026-06-23 20:02:18.777,0.00,991.44,99144.38,nan,0.00,0.67,0.40,9.29,-0.00,-0.00,-0.00
2026-06-23 20:02:18.779,0.00,991.44,99144.38,nan,0.00,0.67,0.40,9.29,-0.00,-0.00,-0.00
2026-06-23 20:02:18.781,0.00,991.44,99144.38,nan,0.00,0.67,0.40,9.29,-0.00,0.00,0.00
2026-06-23 20:02:18.783,0.00,991.44,99144.38,nan,0.00,0.65,0.38,9.28,-0.00,0.00,0.00
2026-06-23 20:02:18.785,0.00,991.44,99144.38,nan,0.00,0.65,0.38,9.28,-0.00,0.00,0.00
2026-06-23 20:02:18.788,0.00,991.44,99144.38,nan,0.00,0.65,0.38,9.28,-0.00,0.00,0.00
2026-06-23 20:02:18.792,0.00,991.44,99144.38,nan,0.00,0.65,0.38,9.28,0.00,0.00,0.00
2026-06-23 20:02:18.793,0.00,991.44,99144.38,nan,0.00,0.67,0.38,9.29,0.00,0.00,0.00
2026-06-23 20:02:18.795,0.00,991.44,99144.38,nan,0.00,0.67,0.38,9.29,0.00,0.00,0.00
2026-06-23 20:02:18.796,0.00,991.44,99144.38,nan,0.00,0.67,0.38,9.29,0.00,0.00,0.00
2026-06-23 20:02:18.802,0.00,991.44,99144.38,nan,0.00,0.67,0.38,9.29,0.00,0.00,0.00
2026-06-23 20:02:18.803,0.00,991.44,99144.38,nan,0.00,0.66,0.39,9.30,-0.00,0.00,0.00
2026-06-23 20:02:18.805,0.00,991.44,99144.38,nan,0.00,0.66,0.39,9.30,-0.00,0.00,0.00
2026-06-23 20:02:18.807,0.00,991.44,99144.38,nan,0.00,0.66,0.39,9.30,-0.00,0.00,0.00
2026-06-23 20:02:18.812,0.00,991.44,99144.38,nan,0.00,0.66,0.39,9.30,-0.00,0.00,0.00
2026-06-23 20:02:18.813,0.00,991.44,99144.38,nan,0.00,0.66,0.38,9.29,-0.00,-0.00,-0.00
2026-06-23 20:02:18.814,0.00,991.44,99144.38,nan,0.00,0.66,0.38,9.29,-0.00,-0.00,-0.00
2026-06-23 20:02:18.816,0.00,991.44,99144.38,nan,0.00,0.66,0.38,9.29,-0.00,-0.00,-0.00
2026-06-23 20:02:18.822,0.00,991.44,99144.38,nan,0.00,0.66,0.38,9.29,-0.00,-0.00,-0.00
2026-06-23 20:02:18.823,0.00,991.44,99144.38,nan,0.00,0.65,0.38,9.33,0.00,-0.00,0.00
2026-06-23 20:02:18.825,0.00,991.44,99144.38,nan,0.00,0.65,0.38,9.33,0.00,-0.00,0.00
2026-06-23 20:02:18.826,0.00,991.44,99144.38,nan,0.00,0.65,0.38,9.33,0.00,-0.00,0.00
2026-06-23 20:02:18.827,0.00,991.44,99144.38,nan,0.00,0.65,0.38,9.33,0.00,-0.00,0.00
2026-06-23 20:02:18.829,0.00,991.44,99144.38,nan,0.00,0.65,0.38,9.33,0.00,-0.00,0.00
2026-06-23 20:02:18.832,0.00,991.44,99144.38,nan,0.00,0.65,0.38,9.33,-0.00,0.00,0.00
2026-06-23 20:02:18.834,0.00,991.44,99144.38,nan,0.00,0.67,0.38,9.32,-0.00,0.00,0.00
2026-06-23 20:02:18.835,0.00,991.44,99144.38,nan,0.00,0.67,0.38,9.32,-0.00,0.00,0.00
2026-06-23 20:02:18.841,0.00,991.44,99144.38,nan,0.00,0.67,0.38,9.32,-0.00,0.00,0.00
2026-06-23 20:02:18.843,0.00,991.44,99144.38,nan,0.00,0.66,0.37,9.29,0.00,0.00,0.00
2026-06-23 20:02:18.844,0.00,991.44,99144.38,nan,0.00,0.66,0.37,9.29,0.00,0.00,0.00
2026-06-23 20:02:18.845,0.00,991.44,99144.38,nan,0.00,0.66,0.37,9.29,0.00,0.00,0.00
2026-06-23 20:02:18.849,0.00,991.44,99144.38,nan,0.00,0.66,0.37,9.29,0.00,0.00,0.00
2026-06-23 20:02:19.043,0.00,991.47,99146.89,nan,0.00,0.67,0.39,9.31,-0.00,0.00,-0.00
2026-06-23 20:02:19.044,0.00,991.47,99146.89,nan,0.00,0.65,0.40,9.28,-0.00,0.00,-0.00
2026-06-23 20:02:19.046,0.00,991.47,99146.89,nan,0.00,0.65,0.40,9.28,-0.00,0.00,-0.00
2026-06-23 20:02:19.050,0.00,991.47,99146.89,nan,0.00,0.65,0.40,9.28,-0.00,0.00,-0.00
2026-06-23 20:02:19.053,0.00,991.47,99146.89,nan,0.00,0.65,0.40,9.28,0.00,-0.00,0.00
2026-06-23 20:02:19.055,0.00,991.47,99146.89,nan,0.00,0.65,0.39,9.29,0.00,-0.00,0.00
2026-06-23 20:02:19.056,0.00,991.47,99146.89,nan,0.00,0.65,0.39,9.29,0.00,-0.00,0.00
2026-06-23 20:02:19.062,0.00,991.47,99146.89,nan,0.00,0.65,0.39,9.29,0.00,-0.00,0.00
2026-06-23 20:02:19.063,0.00,991.47,99146.89,nan,0.00,0.66,0.37,9.32,-0.00,-0.00,0.00
2026-06-23 20:02:19.065,0.00,991.47,99146.89,nan,0.00,0.66,0.37,9.32,-0.00,-0.00,0.00
2026-06-23 20:02:19.066,0.00,991.47,99146.89,nan,0.00,0.66,0.37,9.32,-0.00,-0.00,0.00
2026-06-23 20:02:19.072,0.00,991.47,99146.89,nan,0.00,0.66,0.37,9.32,-0.00,-0.00,0.00
2026-06-23 20:02:19.074,0.00,991.47,99146.89,nan,0.00,0.66,0.40,9.30,0.00,-0.00,-0.00
2026-06-23 20:02:19.075,0.00,991.47,99146.89,nan,0.00,0.66,0.40,9.30,0.00,-0.00,-0.00
2026-06-23 20:02:19.077,0.00,991.47,99146.89,nan,0.00,0.66,0.40,9.30,0.00,-0.00,-0.00
2026-06-23 20:02:19.078,0.00,991.47,99146.89,nan,0.00,0.66,0.40,9.30,0.00,-0.00,-0.00
2026-06-23 20:02:19.080,0.00,991.47,99146.89,nan,0.00,0.66,0.40,9.30,0.00,-0.00,-0.00
2026-06-23 20:02:19.083,0.00,991.47,99146.89,nan,0.00,0.66,0.40,9.30,0.00,-0.00,0.00
2026-06-23 20:02:19.084,0.00,991.47,99146.89,nan,0.00,0.66,0.39,9.30,0.00,-0.00,0.00
2026-06-23 20:02:19.086,0.00,991.47,99146.89,nan,0.00,0.66,0.39,9.30,0.00,-0.00,0.00
2026-06-23 20:02:19.092,0.00,991.47,99146.89,nan,0.00,0.66,0.39,9.30,0.00,-0.00,0.00
2026-06-23 20:02:19.094,0.00,991.47,99146.89,nan,0.00,0.66,0.39,9.32,0.00,0.00,0.00
2026-06-23 20:02:19.095,0.00,991.47,99146.89,nan,0.00,0.66,0.39,9.32,0.00,0.00,0.00
2026-06-23 20:02:19.096,0.00,991.47,99146.89,nan,0.00,0.66,0.39,9.32,0.00,0.00,0.00
2026-06-23 20:02:19.102,0.00,991.47,99146.89,nan,0.00,0.66,0.39,9.32,0.00,0.00,0.00
2026-06-23 20:02:19.104,0.00,991.47,99146.89,nan,0.00,0.65,0.39,9.29,0.00,-0.00,0.00
2026-06-23 20:02:19.106,0.00,991.47,99146.89,nan,0.00,0.65,0.39,9.29,0.00,-0.00,0.00
2026-06-23 20:02:19.108,0.00,991.47,99146.89,nan,0.00,0.65,0.39,9.29,0.00,-0.00,0.00
2026-06-23 20:02:19.112,0.00,991.47,99146.89,nan,0.00,0.65,0.39,9.29,-0.00,-0.00,0.00
2026-06-23 20:02:19.114,0.00,991.47,99146.89,nan,0.00,0.66,0.38,9.31,-0.00,-0.00,0.00
2026-06-23 20:02:19.115,0.00,991.47,99146.89,nan,0.00,0.66,0.38,9.31,-0.00,-0.00,0.00
2026-06-23 20:02:19.119,0.00,991.47,99146.89,nan,0.00,0.66,0.38,9.31,-0.00,-0.00,0.00
2026-06-23 20:02:19.123,0.00,991.47,99146.89,nan,0.00,0.66,0.38,9.31,0.00,-0.00,0.00
2026-06-23 20:02:19.125,0.00,991.47,99146.89,nan,0.00,0.66,0.38,9.30,0.00,-0.00,0.00
2026-06-23 20:02:19.126,0.00,991.47,99146.89,nan,0.00,0.66,0.38,9.30,0.00,-0.00,0.00
2026-06-23 20:02:19.127,0.00,991.47,99146.89,nan,0.00,0.66,0.38,9.30,0.00,-0.00,0.00
2026-06-23 20:02:19.129,0.00,991.47,99146.89,nan,0.00,0.66,0.38,9.30,0.00,-0.00,0.00
2026-06-23 20:02:19.130,0.00,991.47,99146.89,nan,0.00,0.66,0.38,9.30,0.00,-0.00,0.00
2026-06-23 20:02:19.133,0.00,991.47,99146.89,nan,0.00,0.66,0.38,9.30,0.00,0.00,0.00
2026-06-23 20:02:19.135,0.00,991.47,99146.89,nan,0.00,0.66,0.38,9.31,0.00,0.00,0.00
2026-06-23 20:02:19.136,0.00,991.47,99146.89,nan,0.00,0.66,0.38,9.31,0.00,0.00,0.00
2026-06-23 20:02:19.142,0.00,991.47,99146.89,nan,0.00,0.66,0.38,9.31,0.00,0.00,0.00
2026-06-23 20:02:19.334,0.00,991.48,99148.08,nan,0.00,0.65,0.39,9.31,0.00,-0.00,0.00
2026-06-23 20:02:19.335,0.00,991.48,99148.08,nan,0.00,0.65,0.39,9.31,0.00,-0.00,0.00
2026-06-23 20:02:19.337,0.00,991.48,99148.08,nan,0.00,0.65,0.39,9.31,0.00,-0.00,0.00
2026-06-23 20:02:19.343,0.00,991.48,99148.08,nan,0.00,0.65,0.39,9.31,0.00,-0.00,0.00
2026-06-23 20:02:19.344,0.00,991.48,99148.08,nan,0.00,0.66,0.41,9.31,-0.00,-0.00,0.00
2026-06-23 20:02:19.346,0.00,991.48,99148.08,nan,0.00,0.66,0.41,9.31,-0.00,-0.00,0.00
2026-06-23 20:02:19.347,0.00,991.48,99148.08,nan,0.00,0.66,0.41,9.31,-0.00,-0.00,0.00
2026-06-23 20:02:19.353,0.00,991.48,99148.08,nan,0.00,0.66,0.41,9.31,-0.00,-0.00,0.00
2026-06-23 20:02:19.355,0.00,991.48,99148.08,nan,0.00,0.67,0.40,9.28,0.00,-0.00,0.00
