timestamp,pressure_bag,pressure_bme,diff_pressure,v_wind_est,speed,accel_x,accel_y,accel_z,gyro_x,gyro_y,gyro_z,power
2026-06-27 10:06:16.587,995.05,995.00,-4.92,-2.93,0.00,-0.33,0.38,9.38,0.00,-0.00,-0.00,0.00
2026-06-27 10:06:16.588,995.05,995.00,-4.92,-2.93,0.00,-0.32,0.40,9.36,0.00,-0.00,-0.00,0.00
2026-06-27 10:06:16.590,995.05,995.00,-4.92,-2.93,0.00,-0.32,0.40,9.36,0.00,-0.00,-0.00,0.00
2026-06-27 10:06:16.591,995.05,995.00,-4.92,-2.93,0.00,-0.32,0.40,9.36,0.00,-0.00,-0.00,0.00
2026-06-27 10:06:16.595,995.05,995.00,-4.92,-2.93,0.00,-0.32,0.40,9.36,0.00,-0.00,-0.00,0.00
2026-06-27 10:06:16.597,995.05,995.00,-4.92,-2.93,0.00,-0.33,0.40,9.39,0.00,-0.00,0.00,0.00
2026-06-27 10:06:16.600,995.05,995.00,-4.92,-2.93,0.00,-0.33,0.40,9.39,0.00,-0.00,0.00,0.00
2026-06-27 10:06:16.604,995.05,995.00,-4.92,-2.93,0.00,-0.33,0.40,9.39,0.00,-0.00,0.00,0.00
2026-06-27 10:06:16.607,995.05,995.00,-4.92,-2.93,0.00,-0.33,0.38,9.35,-0.00,0.00,0.00,0.00
2026-06-27 10:06:16.608,995.05,995.00,-4.92,-2.93,0.00,-0.33,0.38,9.35,-0.00,0.00,0.00,0.00
2026-06-27 10:06:16.610,995.05,995.00,-4.92,-2.93,0.00,-0.33,0.38,9.35,-0.00,0.00,0.00,0.00
2026-06-27 10:06:16.611,995.05,995.00,-4.92,-2.93,0.00,-0.33,0.38,9.35,-0.00,0.00,0.00,0.00
2026-06-27 10:06:16.612,995.05,995.00,-4.92,-2.93,0.00,-0.33,0.38,9.35,-0.00,0.00,0.00,0.00
2026-06-27 10:06:16.615,995.05,995.00,-4.92,-2.93,0.00,-0.33,0.38,9.35,-0.00,0.00,0.00,0.00
2026-06-27 10:06:16.617,995.05,995.00,-4.92,-2.93,0.00,-0.31,0.36,9.38,0.00,0.00,-0.00,0.00
2026-06-27 10:06:16.618,995.05,995.00,-4.92,-2.93,0.00,-0.31,0.36,9.38,0.00,0.00,-0.00,0.00
2026-06-27 10:06:16.620,995.05,995.00,-4.92,-2.93,0.00,-0.31,0.36,9.38,0.00,0.00,-0.00,0.00
2026-06-27 10:06:16.762,995.07,994.99,-8.04,-3.74,0.00,-0.33,0.38,9.36,0.00,-0.00,0.00,0.00
2026-06-27 10:06:16.766,995.07,994.99,-8.04,-3.74,0.00,-0.33,0.38,9.36,0.00,-0.00,0.00,0.00
2026-06-27 10:06:16.770,995.07,994.99,-8.04,-3.74,0.00,-0.33,0.38,9.39,0.00,0.00,0.00,0.00
2026-06-27 10:06:16.774,995.07,994.99,-8.04,-3.74,0.00,-0.33,0.38,9.39,0.00,0.00,0.00,0.00
2026-06-27 10:06:16.778,995.07,994.99,-8.04,-3.74,0.00,-0.33,0.38,9.39,0.00,-0.00,0.00,0.00
2026-06-27 10:06:16.780,995.07,994.99,-8.04,-3.74,0.00,-0.34,0.38,9.38,0.00,-0.00,0.00,0.00
2026-06-27 10:06:16.786,995.07,994.99,-8.04,-3.74,0.00,-0.34,0.38,9.38,0.00,-0.00,0.00,0.00
2026-06-27 10:06:16.788,995.07,994.99,-8.04,-3.74,0.00,-0.34,0.36,9.35,-0.00,0.00,0.00,0.00
2026-06-27 10:06:16.790,995.07,994.99,-8.04,-3.74,0.00,-0.34,0.36,9.35,-0.00,0.00,0.00,0.00
2026-06-27 10:06:16.792,995.07,994.99,-8.04,-3.74,0.00,-0.34,0.36,9.35,-0.00,0.00,0.00,0.00
2026-06-27 10:06:16.797,995.07,994.99,-8.04,-3.74,0.00,-0.34,0.36,9.35,0.00,-0.00,0.00,0.00
2026-06-27 10:06:16.938,995.05,995.01,-4.06,-2.66,0.00,-0.33,0.36,9.33,0.00,-0.00,0.00,0.00
2026-06-27 10:06:16.940,995.05,995.01,-4.06,-2.66,0.00,-0.33,0.36,9.33,0.00,-0.00,0.00,0.00
2026-06-27 10:06:16.941,995.05,995.01,-4.06,-2.66,0.00,-0.33,0.36,9.33,0.00,-0.00,0.00,0.00
2026-06-27 10:06:16.947,995.05,995.01,-4.06,-2.66,0.00,-0.33,0.36,9.33,-0.00,-0.00,0.00,0.00
2026-06-27 10:06:16.950,995.05,995.01,-4.06,-2.66,0.00,-0.32,0.36,9.38,-0.00,-0.00,0.00,0.00
2026-06-27 10:06:16.951,995.05,995.01,-4.06,-2.66,0.00,-0.32,0.36,9.38,-0.00,-0.00,0.00,0.00
2026-06-27 10:06:16.957,995.05,995.01,-4.06,-2.66,0.00,-0.32,0.36,9.38,-0.00,-0.00,0.00,0.00
2026-06-27 10:06:16.959,995.05,995.01,-4.06,-2.66,0.00,-0.33,0.37,9.35,-0.00,0.00,0.00,0.00
2026-06-27 10:06:16.961,995.05,995.01,-4.06,-2.66,0.00,-0.33,0.37,9.35,-0.00,0.00,0.00,0.00
2026-06-27 10:06:16.962,995.05,995.01,-4.06,-2.66,0.00,-0.33,0.37,9.35,-0.00,0.00,0.00,0.00
2026-06-27 10:06:16.963,995.05,995.01,-4.06,-2.66,0.00,-0.33,0.37,9.35,-0.00,0.00,0.00,0.00
2026-06-27 10:06:16.964,995.05,995.01,-4.06,-2.66,0.00,-0.33,0.37,9.35,-0.00,0.00,0.00,0.00
2026-06-27 10:06:16.966,995.05,995.01,-4.06,-2.66,0.00,-0.33,0.37,9.35,-0.00,0.00,0.00,0.00
2026-06-27 10:06:16.968,995.05,995.01,-4.06,-2.66,0.00,-0.32,0.38,9.39,0.00,0.00,-0.00,0.00
2026-06-27 10:06:16.969,995.05,995.01,-4.06,-2.66,0.00,-0.32,0.38,9.39,0.00,0.00,-0.00,0.00
2026-06-27 10:06:16.970,995.05,995.01,-4.06,-2.66,0.00,-0.32,0.38,9.39,0.00,0.00,-0.00,0.00
2026-06-27 10:06:16.972,995.05,995.01,-4.06,-2.66,0.00,-0.32,0.38,9.39,0.00,0.00,-0.00,0.00
2026-06-27 10:06:16.976,995.05,995.01,-4.06,-2.66,0.00,-0.32,0.38,9.39,0.00,0.00,-0.00,0.00
2026-06-27 10:06:17.119,995.06,994.98,-8.07,-3.75,0.00,-0.33,0.37,9.35,-0.00,0.00,-0.00,0.00
2026-06-27 10:06:17.121,995.06,994.98,-8.07,-3.75,0.00,-0.33,0.39,9.39,-0.00,0.00,-0.00,0.00
2026-06-27 10:06:17.125,995.06,994.98,-8.07,-3.75,0.00,-0.33,0.39,9.39,-0.00,0.00,-0.00,0.00
2026-06-27 10:06:17.128,995.06,994.98,-8.07,-3.75,0.00,-0.33,0.39,9.39,-0.00,-0.00,0.00,0.00
2026-06-27 10:06:17.129,995.06,994.98,-8.07,-3.75,0.00,-0.33,0.38,9.39,-0.00,-0.00,0.00,0.00
2026-06-27 10:06:17.132,995.06,994.98,-8.07,-3.75,0.00,-0.33,0.38,9.39,-0.00,-0.00,0.00,0.00
2026-06-27 10:06:17.138,995.06,994.98,-8.07,-3.75,0.00,-0.33,0.38,9.39,-0.00,0.00,0.00,0.00
2026-06-27 10:06:17.139,995.06,994.98,-8.07,-3.75,0.00,-0.32,0.39,9.34,-0.00,0.00,0.00,0.00
2026-06-27 10:06:17.140,995.06,994.98,-8.07,-3.75,0.00,-0.32,0.39,9.34,-0.00,0.00,0.00,0.00
2026-06-27 10:06:17.142,995.06,994.98,-8.07,-3.75,0.00,-0.32,0.39,9.34,-0.00,0.00,0.00,0.00
2026-06-27 10:06:17.145,995.06,994.98,-8.07,-3.75,0.00,-0.32,0.39,9.34,-0.00,0.00,0.00,0.00
2026-06-27 10:06:17.148,995.06,994.98,-8.07,-3.75,0.00,-0.32,0.39,9.34,0.00,-0.00,0.00,0.00
2026-06-27 10:06:17.149,995.06,994.98,-8.07,-3.75,0.00,-0.32,0.38,9.37,0.00,-0.00,0.00,0.00
2026-06-27 10:06:17.151,995.06,994.98,-8.07,-3.75,0.00,-0.32,0.38,9.37,0.00,-0.00,0.00,0.00
2026-06-27 10:06:17.297,995.05,995.00,-5.04,-2.96,0.00,-0.33,0.39,9.35,0.00,0.00,0.00,0.00
2026-06-27 10:06:17.299,995.05,995.00,-5.04,-2.96,0.00,-0.33,0.37,9.35,0.00,-0.00,-0.00,0.00
2026-06-27 10:06:17.301,995.05,995.00,-5.04,-2.96,0.00,-0.33,0.37,9.35,0.00,-0.00,-0.00,0.00
2026-06-27 10:06:17.303,995.05,995.00,-5.04,-2.96,0.00,-0.33,0.37,9.35,0.00,-0.00,-0.00,0.00
2026-06-27 10:06:17.308,995.05,995.00,-5.04,-2.96,0.00,-0.33,0.37,9.35,0.00,-0.00,-0.00,0.00
2026-06-27 10:06:17.309,995.05,995.00,-5.04,-2.96,0.00,-0.34,0.37,9.37,-0.00,-0.00,-0.00,0.00
2026-06-27 10:06:17.311,995.05,995.00,-5.04,-2.96,0.00,-0.34,0.37,9.37,-0.00,-0.00,-0.00,0.00
2026-06-27 10:06:17.312,995.05,995.00,-5.04,-2.96,0.00,-0.34,0.37,9.37,-0.00,-0.00,-0.00,0.00
2026-06-27 10:06:17.313,995.05,995.00,-5.04,-2.96,0.00,-0.34,0.37,9.37,-0.00,-0.00,-0.00,0.00
2026-06-27 10:06:17.314,995.05,995.00,-5.04,-2.96,0.00,-0.34,0.37,9.37,-0.00,-0.00,-0.00,0.00
2026-06-27 10:06:17.316,995.05,995.00,-5.04,-2.96,0.00,-0.34,0.37,9.37,-0.00,-0.00,-0.00,0.00
2026-06-27 10:06:17.319,995.05,995.00,-5.04,-2.96,0.00,-0.32,0.37,9.38,0.00,0.00,0.00,0.00
2026-06-27 10:06:17.321,995.05,995.00,-5.04,-2.96,0.00,-0.32,0.37,9.38,0.00,0.00,0.00,0.00
2026-06-27 10:06:17.323,995.05,995.00,-5.04,-2.96,0.00,-0.32,0.37,9.38,0.00,0.00,0.00,0.00
2026-06-27 10:06:17.328,995.05,995.00,-5.04,-2.96,0.00,-0.32,0.37,9.38,0.00,0.00,0.00,0.00
2026-06-27 10:06:17.465,995.08,994.99,-9.44,-4.05,0.00,-0.32,0.40,9.37,0.00,0.00,0.00,0.00
2026-06-27 10:06:17.469,995.08,994.99,-9.44,-4.05,0.00,-0.32,0.40,9.37,0.00,0.00,0.00,0.00
2026-06-27 10:06:17.472,995.08,994.99,-9.44,-4.05,0.00,-0.34,0.36,9.37,0.00,0.00,0.00,0.00
2026-06-27 10:06:17.477,995.08,994.99,-9.44,-4.05,0.00,-0.34,0.36,9.37,0.00,0.00,0.00,0.00
2026-06-27 10:06:17.479,995.08,994.99,-9.44,-4.05,0.00,-0.34,0.36,9.37,0.00,0.00,0.00,0.00
2026-06-27 10:06:17.480,995.08,994.99,-9.44,-4.05,0.00,-0.33,0.37,9.38,0.00,0.00,0.00,0.00
2026-06-27 10:06:17.482,995.08,994.99,-9.44,-4.05,0.00,-0.33,0.37,9.38,0.00,0.00,0.00,0.00
2026-06-27 10:06:17.483,995.08,994.99,-9.44,-4.05,0.00,-0.33,0.37,9.38,0.00,0.00,0.00,0.00
2026-06-27 10:06:17.489,995.08,994.99,-9.44,-4.05,0.00,-0.33,0.37,9.38,0.00,0.00,-0.00,0.00
2026-06-27 10:06:17.490,995.08,994.99,-9.44,-4.05,0.00,-0.33,0.38,9.37,0.00,0.00,-0.00,0.00
2026-06-27 10:06:17.491,995.08,994.99,-9.44,-4.05,0.00,-0.33,0.38,9.37,0.00,0.00,-0.00,0.00
2026-06-27 10:06:17.493,995.08,994.99,-9.44,-4.05,0.00,-0.33,0.38,9.37,0.00,0.00,-0.00,0.00
2026-06-27 10:06:17.494,995.08,994.99,-9.44,-4.05,0.00,-0.33,0.38,9.37,0.00,0.00,-0.00,0.00
2026-06-27 10:06:17.498,995.08,994.99,-9.44,-4.05,0.00,-0.33,0.38,9.37,0.00,0.00,-0.00,0.00
2026-06-27 10:06:17.501,995.08,994.99,-9.44,-4.05,0.00,-0.31,0.37,9.35,0.00,0.00,0.00,0.00
2026-06-27 10:06:17.639,995.05,995.00,-4.80,-2.89,0.00,-0.32,0.39,9.38,-0.00,0.00,-0.00,0.00
2026-06-27 10:06:17.641,995.05,995.00,-4.80,-2.89,0.00,-0.33,0.38,9.31,-0.00,0.00,-0.00,0.00
2026-06-27 10:06:17.642,995.05,995.00,-4.80,-2.89,0.00,-0.33,0.38,9.31,-0.00,0.00,-0.00,0.00
2026-06-27 10:06:17.643,995.05,995.00,-4.80,-2.89,0.00,-0.33,0.38,9.31,-0.00,0.00,-0.00,0.00
2026-06-27 10:06:17.649,995.05,995.00,-4.80,-2.89,0.00,-0.33,0.38,9.31,-0.00,0.00,-0.00,0.00
2026-06-27 10:06:17.652,995.05,995.00,-4.80,-2.89,0.00,-0.34,0.40,9.35,-0.00,0.00,0.00,0.00
2026-06-27 10:06:17.656,995.05,995.00,-4.80,-2.89,0.00,-0.34,0.40,9.35,-0.00,0.00,0.00,0.00
2026-06-27 10:06:17.660,995.05,995.00,-4.80,-2.89,0.00,-0.34,0.40,9.35,0.00,0.00,0.00,0.00
2026-06-27 10:06:17.661,995.05,995.00,-4.80,-2.89,0.00,-0.32,0.38,9.38,0.00,0.00,0.00,0.00
2026-06-27 10:06:17.662,995.05,995.00,-4.80,-2.89,0.00,-0.32,0.38,9.38,0.00,0.00,0.00,0.00
2026-06-27 10:06:17.663,995.05,995.00,-4.80,-2.89,0.00,-0.32,0.38,9.38,0.00,0.00,0.00,0.00
2026-06-27 10:06:17.665,995.05,995.00,-4.80,-2.89,0.00,-0.32,0.38,9.38,0.00,0.00,0.00,0.00
2026-06-27 10:06:17.666,995.05,995.00,-4.80,-2.89,0.00,-0.32,0.38,9.38,0.00,0.00,0.00,0.00
2026-06-27 10:06:17.669,995.05,995.00,-4.80,-2.89,0.00,-0.32,0.38,9.38,0.00,0.00,0.00,0.00
2026-06-27 10:06:17.670,995.05,995.00,-4.80,-2.89,0.00,-0.34,0.36,9.36,0.00,0.00,-0.00,0.00
2026-06-27 10:06:17.671,995.05,995.00,-4.80,-2.89,0.00,-0.34,0.36,9.36,0.00,0.00,-0.00,0.00
2026-06-27 10:06:17.673,995.05,995.00,-4.80,-2.89,0.00,-0.34,0.36,9.36,0.00,0.00,-0.00,0.00
2026-06-27 10:06:17.678,995.05,995.00,-4.80,-2.89,0.00,-0.34,0.36,9.36,0.00,0.00,-0.00,0.00
2026-06-27 10:06:17.820,995.06,995.00,-6.28,-3.31,0.00,-0.32,0.37,9.38,0.00,0.00,-0.00,0.00
2026-06-27 10:06:17.823,995.06,995.00,-6.28,-3.31,0.00,-0.31,0.37,9.36,0.00,0.00,-0.00,0.00
2026-06-27 10:06:17.831,995.06,995.00,-6.28,-3.31,0.00,-0.31,0.37,9.36,0.00,-0.00,0.00,0.00
2026-06-27 10:06:17.840,995.06,995.00,-6.28,-3.31,0.00,-0.33,0.38,9.39,-0.00,-0.00,-0.00,0.00
2026-06-27 10:06:17.842,995.06,995.00,-6.28,-3.31,0.00,-0.34,0.38,9.34,-0.00,-0.00,-0.00,0.00
2026-06-27 10:06:17.843,995.06,995.00,-6.28,-3.31,0.00,-0.34,0.38,9.34,-0.00,-0.00,-0.00,0.00
2026-06-27 10:06:17.850,995.06,995.00,-6.28,-3.31,0.00,-0.34,0.38,9.34,-0.00,-0.00,-0.00,0.00
2026-06-27 10:06:17.852,995.06,995.00,-6.28,-3.31,0.00,-0.34,0.41,9.38,-0.00,0.00,-0.00,0.00
2026-06-27 10:06:17.994,995.08,995.01,-6.82,-3.45,0.00,-0.33,0.38,9.34,0.00,0.00,0.00,0.00
2026-06-27 10:06:17.999,995.08,995.01,-6.82,-3.45,0.00,-0.33,0.38,9.34,0.00,0.00,0.00,0.00
2026-06-27 10:06:17.002,995.08,995.01,-6.82,-3.45,0.00,-0.33,0.36,9.37,-0.00,0.00,0.00,0.00
2026-06-27 10:06:18.006,995.08,995.01,-6.82,-3.45,0.00,-0.33,0.36,9.37,-0.00,0.00,0.00,0.00
2026-06-27 10:06:18.012,995.08,995.01,-6.82,-3.45,0.00,-0.33,0.36,9.37,0.00,-0.00,0.00,0.00
2026-06-27 10:06:18.013,995.08,995.01,-6.82,-3.45,0.00,-0.33,0.40,9.38,0.00,-0.00,0.00,0.00
2026-06-27 10:06:18.014,995.08,995.01,-6.82,-3.45,0.00,-0.33,0.40,9.38,0.00,-0.00,0.00,0.00
2026-06-27 10:06:18.016,995.08,995.01,-6.82,-3.45,0.00,-0.33,0.40,9.38,0.00,-0.00,0.00,0.00
2026-06-27 10:06:18.022,995.08,995.01,-6.82,-3.45,0.00,-0.33,0.40,9.38,0.00,-0.00,0.00,0.00
2026-06-27 10:06:18.027,995.08,995.01,-6.82,-3.45,0.00,-0.32,0.37,9.38,0.00,-0.00,0.00,0.00
2026-06-27 10:06:18.031,995.08,995.01,-6.82,-3.45,0.00,-0.31,0.38,9.36,0.00,-0.00,-0.00,0.00
2026-06-27 10:06:18.173,995.06,994.99,-7.70,-3.66,0.00,-0.33,0.39,9.39,0.00,-0.00,-0.00,0.00
2026-06-27 10:06:18.176,995.06,994.99,-7.70,-3.66,0.00,-0.33,0.39,9.39,0.00,-0.00,-0.00,0.00
2026-06-27 10:06:18.180,995.06,994.99,-7.70,-3.66,0.00,-0.33,0.39,9.39,0.00,0.00,-0.00,0.00
2026-06-27 10:06:18.182,995.06,994.99,-7.70,-3.66,0.00,-0.34,0.37,9.38,0.00,0.00,-0.00,0.00
2026-06-27 10:06:18.183,995.06,994.99,-7.70,-3.66,0.00,-0.34,0.37,9.38,0.00,0.00,-0.00,0.00
2026-06-27 10:06:18.185,995.06,994.99,-7.70,-3.66,0.00,-0.34,0.37,9.38,0.00,0.00,-0.00,0.00
2026-06-27 10:06:18.190,995.06,994.99,-7.70,-3.66,0.00,-0.34,0.37,9.38,0.00,0.00,-0.00,0.00
2026-06-27 10:06:18.192,995.06,994.99,-7.70,-3.66,0.00,-0.33,0.39,9.37,0.00,0.00,0.00,0.00
2026-06-27 10:06:18.193,995.06,994.99,-7.70,-3.66,0.00,-0.33,0.39,9.37,0.00,0.00,0.00,0.00
2026-06-27 10:06:18.194,995.06,994.99,-7.70,-3.66,0.00,-0.33,0.39,9.37,0.00,0.00,0.00,0.00
2026-06-27 10:06:18.195,995.06,994.99,-7.70,-3.66,0.00,-0.33,0.39,9.37,0.00,0.00,0.00,0.00
2026-06-27 10:06:18.201,995.06,994.99,-7.70,-3.66,0.00,-0.33,0.39,9.37,0.00,0.00,0.00,0.00
2026-06-27 10:06:18.204,995.06,994.99,-7.70,-3.66,0.00,-0.32,0.38,9.39,-0.00,0.00,0.00,0.00
2026-06-27 10:06:18.347,995.05,994.98,-7.15,-3.53,0.00,-0.33,0.39,9.39,0.00,0.00,-0.00,0.00
2026-06-27 10:06:18.351,995.05,994.98,-7.15,-3.53,0.00,-0.33,0.39,9.39,-0.00,-0.00,0.00,0.00
2026-06-27 10:06:18.353,995.05,994.98,-7.15,-3.53,0.00,-0.32,0.36,9.39,-0.00,-0.00,0.00,0.00
2026-06-27 10:06:18.355,995.05,994.98,-7.15,-3.53,0.00,-0.32,0.36,9.39,-0.00,-0.00,0.00,0.00
2026-06-27 10:06:18.361,995.05,994.98,-7.15,-3.53,0.00,-0.32,0.36,9.39,-0.00,-0.00,0.00,0.00
2026-06-27 10:06:18.362,995.05,994.98,-7.15,-3.53,0.00,-0.33,0.38,9.38,0.00,-0.00,0.00,0.00
2026-06-27 10:06:18.363,995.05,994.98,-7.15,-3.53,0.00,-0.33,0.38,9.38,0.00,-0.00,0.00,0.00
2026-06-27 10:06:18.365,995.05,994.98,-7.15,-3.53,0.00,-0.33,0.38,9.38,0.00,-0.00,0.00,0.00
2026-06-27 10:06:18.366,995.05,994.98,-7.15,-3.53,0.00,-0.33,0.38,9.38,0.00,-0.00,0.00,0.00
2026-06-27 10:06:18.367,995.05,994.98,-7.15,-3.53,0.00,-0.33,0.38,9.38,0.00,-0.00,0.00,0.00
2026-06-27 10:06:18.371,995.05,994.98,-7.15,-3.53,0.00,-0.33,0.38,9.38,0.00,-0.00,-0.00,0.00
2026-06-27 10:06:18.373,995.05,994.98,-7.15,-3.53,0.00,-0.31,0.37,9.38,0.00,-0.00,-0.00,0.00
2026-06-27 10:06:18.374,995.05,994.98,-7.15,-3.53,0.00,-0.31,0.37,9.38,0.00,-0.00,-0.00,0.00
2026-06-27 10:06:18.378,995.05,994.98,-7.15,-3.53,0.00,-0.31,0.37,9.38,0.00,-0.00,-0.00,0.00
2026-06-27 10:06:18.381,995.05,994.98,-7.15,-3.53,0.00,-0.31,0.37,9.38,-0.00,-0.00,0.00,0.00
2026-06-27 10:06:18.524,995.07,995.00,-6.84,-3.45,0.00,-0.33,0.35,9.36,0.00,0.00,0.00,0.00
2026-06-27 10:06:18.529,995.07,995.00,-6.84,-3.45,0.00,-0.33,0.35,9.36,0.00,0.00,0.00,0.00
2026-06-27 10:06:18.532,995.07,995.00,-6.84,-3.45,0.00,-0.33,0.35,9.36,0.00,0.00,0.00,0.00
2026-06-27 10:06:18.533,995.07,995.00,-6.84,-3.45,0.00,-0.33,0.37,9.35,0.00,0.00,0.00,0.00
2026-06-27 10:06:18.536,995.07,995.00,-6.84,-3.45,0.00,-0.33,0.37,9.35,0.00,0.00,0.00,0.00
2026-06-27 10:06:18.541,995.07,995.00,-6.84,-3.45,0.00,-0.33,0.37,9.35,-0.00,0.00,-0.00,0.00
2026-06-27 10:06:18.543,995.07,995.00,-6.84,-3.45,0.00,-0.32,0.40,9.36,-0.00,0.00,-0.00,0.00
2026-06-27 10:06:18.544,995.07,995.00,-6.84,-3.45,0.00,-0.32,0.40,9.36,-0.00,0.00,-0.00,0.00
2026-06-27 10:06:18.545,995.07,995.00,-6.84,-3.45,0.00,-0.32,0.40,9.36,-0.00,0.00,-0.00,0.00
2026-06-27 10:06:18.551,995.07,995.00,-6.84,-3.45,0.00,-0.32,0.40,9.36,-0.00,0.00,-0.00,0.00
2026-06-27 10:06:18.560,995.07,995.00,-6.84,-3.45,0.00,-0.33,0.38,9.35,-0.00,0.00,0.00,0.00
2026-06-27 10:06:18.709,995.07,994.99,-7.23,-3.55,0.00,-0.33,0.39,9.36,0.00,-0.00,-0.00,0.00
2026-06-27 10:06:18.713,995.07,994.99,-7.23,-3.55,0.00,-0.33,0.39,9.36,0.00,0.00,-0.00,0.00
2026-06-27 10:06:18.716,995.07,994.99,-7.23,-3.55,0.00,-0.31,0.40,9.37,0.00,0.00,-0.00,0.00
2026-06-27 10:06:18.717,995.07,994.99,-7.23,-3.55,0.00,-0.31,0.40,9.37,0.00,0.00,-0.00,0.00
2026-06-27 10:06:18.719,995.07,994.99,-7.23,-3.55,0.00,-0.31,0.40,9.37,0.00,0.00,-0.00,0.00
2026-06-27 10:06:18.723,995.07,994.99,-7.23,-3.55,0.00,-0.31,0.40,9.37,0.00,0.00,0.00,0.00
2026-06-27 10:06:18.724,995.07,994.99,-7.23,-3.55,0.00,-0.34,0.38,9.38,0.00,0.00,0.00,0.00
2026-06-27 10:06:18.725,995.07,994.99,-7.23,-3.55,0.00,-0.34,0.38,9.38,0.00,0.00,0.00,0.00
2026-06-27 10:06:18.731,995.07,994.99,-7.23,-3.55,0.00,-0.34,0.38,9.38,0.00,0.00,0.00,0.00
2026-06-27 10:06:18.733,995.07,994.99,-7.23,-3.55,0.00,-0.32,0.37,9.37,0.00,0.00,0.00,0.00
2026-06-27 10:06:18.735,995.07,994.99,-7.23,-3.55,0.00,-0.32,0.37,9.37,0.00,0.00,0.00,0.00
2026-06-27 10:06:18.741,995.07,994.99,-7.23,-3.55,0.00,-0.32,0.37,9.37,0.00,0.00,0.00,0.00
2026-06-27 10:06:18.883,995.08,995.00,-8.18,-3.77,0.00,-0.32,0.36,9.37,0.00,0.00,0.00,0.00
2026-06-27 10:06:18.885,995.08,995.00,-8.18,-3.77,0.00,-0.32,0.36,9.37,0.00,0.00,0.00,0.00
2026-06-27 10:06:18.886,995.08,995.00,-8.18,-3.77,0.00,-0.32,0.36,9.37,0.00,0.00,0.00,0.00
2026-06-27 10:06:18.890,995.08,995.00,-8.18,-3.77,0.00,-0.32,0.36,9.37,0.00,0.00,0.00,0.00
2026-06-27 10:06:18.892,995.08,995.00,-8.18,-3.77,0.00,-0.32,0.36,9.37,0.00,0.00,0.00,0.00
2026-06-27 10:06:18.894,995.08,995.00,-8.18,-3.77,0.00,-0.32,0.38,9.35,0.00,0.00,0.00,0.00
2026-06-27 10:06:18.895,995.08,995.00,-8.18,-3.77,0.00,-0.32,0.38,9.35,0.00,0.00,0.00,0.00
2026-06-27 10:06:18.896,995.08,995.00,-8.18,-3.77,0.00,-0.32,0.38,9.35,0.00,0.00,0.00,0.00
2026-06-27 10:06:18.902,995.08,995.00,-8.18,-3.77,0.00,-0.32,0.38,9.35,0.00,0.00,0.00,0.00
2026-06-27 10:06:18.904,995.08,995.00,-8.18,-3.77,0.00,-0.35,0.36,9.36,0.00,0.00,0.00,0.00
2026-06-27 10:06:18.906,995.08,995.00,-8.18,-3.77,0.00,-0.35,0.36,9.36,0.00,0.00,0.00,0.00
2026-06-27 10:06:18.912,995.08,995.00,-8.18,-3.77,0.00,-0.35,0.36,9.36,0.00,0.00,0.00,0.00
2026-06-27 10:06:18.914,995.08,995.00,-8.18,-3.77,0.00,-0.32,0.38,9.38,0.00,0.00,-0.00,0.00
2026-06-27 10:06:18.917,995.08,995.00,-8.18,-3.77,0.00,-0.32,0.38,9.38,0.00,0.00,-0.00,0.00
2026-06-27 10:06:19.063,995.06,994.98,-7.26,-3.56,0.00,-0.33,0.37,9.39,0.00,-0.00,0.00,0.00
2026-06-27 10:06:19.065,995.06,994.98,-7.26,-3.56,0.00,-0.30,0.38,9.34,0.00,-0.00,0.00,0.00
2026-06-27 10:06:19.067,995.06,994.98,-7.26,-3.56,0.00,-0.30,0.38,9.34,0.00,-0.00,0.00,0.00
2026-06-27 10:06:19.069,995.06,994.98,-7.26,-3.56,0.00,-0.30,0.38,9.34,0.00,-0.00,0.00,0.00
2026-06-27 10:06:19.071,995.06,994.98,-7.26,-3.56,0.00,-0.30,0.38,9.34,0.00,-0.00,0.00,0.00
2026-06-27 10:06:19.073,995.06,994.98,-7.26,-3.56,0.00,-0.33,0.37,9.36,0.00,0.00,0.00,0.00
2026-06-27 10:06:19.074,995.06,994.98,-7.26,-3.56,0.00,-0.33,0.37,9.36,0.00,0.00,0.00,0.00
2026-06-27 10:06:19.075,995.06,994.98,-7.26,-3.56,0.00,-0.33,0.37,9.36,0.00,0.00,0.00,0.00
2026-06-27 10:06:19.077,995.06,994.98,-7.26,-3.56,0.00,-0.33,0.37,9.36,0.00,0.00,0.00,0.00
2026-06-27 10:06:19.082,995.06,994.98,-7.26,-3.56,0.00,-0.33,0.37,9.36,0.00,0.00,0.00,0.00
2026-06-27 10:06:19.084,995.06,994.98,-7.26,-3.56,0.00,-0.33,0.38,9.36,0.00,0.00,0.00,0.00
2026-06-27 10:06:19.085,995.06,994.98,-7.26,-3.56,0.00,-0.33,0.38,9.36,0.00,0.00,0.00,0.00
2026-06-27 10:06:19.086,995.06,994.98,-7.26,-3.56,0.00,-0.33,0.38,9.36,0.00,0.00,0.00,0.00
2026-06-27 10:06:19.090,995.06,994.98,-7.26,-3.56,0.00,-0.33,0.38,9.36,0.00,0.00,0.00,0.00
2026-06-27 10:06:19.093,995.06,994.98,-7.26,-3.56,0.00,-0.33,0.38,9.36,0.00,0.00,-0.00,0.00
2026-06-27 10:06:19.233,995.08,995.00,-7.40,-3.59,0.00,-0.31,0.40,9.37,0.00,-0.00,0.00,0.00
2026-06-27 10:06:19.235,995.08,995.00,-7.40,-3.59,0.00,-0.33,0.38,9.38,0.00,-0.00,0.00,0.00
2026-06-27 10:06:19.236,995.08,995.00,-7.40,-3.59,0.00,-0.33,0.38,9.38,0.00,-0.00,0.00,0.00
2026-06-27 10:06:19.240,995.08,995.00,-7.40,-3.59,0.00,-0.33,0.38,9.38,0.00,-0.00,0.00,0.00
2026-06-27 10:06:19.244,995.08,995.00,-7.40,-3.59,0.00,-0.33,0.38,9.38,0.00,0.00,0.00,0.00
2026-06-27 10:06:19.246,995.08,995.00,-7.40,-3.59,0.00,-0.33,0.38,9.33,0.00,0.00,0.00,0.00
2026-06-27 10:06:19.248,995.08,995.00,-7.40,-3.59,0.00,-0.33,0.38,9.33,0.00,0.00,0.00,0.00
2026-06-27 10:06:19.253,995.08,995.00,-7.40,-3.59,0.00,-0.33,0.38,9.33,0.00,0.00,0.00,0.00
2026-06-27 10:06:19.254,995.08,995.00,-7.40,-3.59,0.00,-0.33,0.36,9.35,0.00,-0.00,0.00,0.00
2026-06-27 10:06:19.256,995.08,995.00,-7.40,-3.59,0.00,-0.33,0.36,9.35,0.00,-0.00,0.00,0.00
2026-06-27 10:06:19.257,995.08,995.00,-7.40,-3.59,0.00,-0.33,0.36,9.35,0.00,-0.00,0.00,0.00
2026-06-27 10:06:19.261,995.08,995.00,-7.40,-3.59,0.00,-0.33,0.36,9.35,0.00,-0.00,0.00,0.00
2026-06-27 10:06:19.264,995.08,995.00,-7.40,-3.59,0.00,-0.34,0.38,9.36,0.00,0.00,-0.00,0.00
2026-06-27 10:06:19.266,995.08,995.00,-7.40,-3.59,0.00,-0.34,0.38,9.36,0.00,0.00,-0.00,0.00
2026-06-27 10:06:19.404,995.06,995.00,-5.94,-3.22,0.00,-0.32,0.40,9.37,0.00,0.00,-0.00,0.00
2026-06-27 10:06:19.406,995.06,995.00,-5.94,-3.22,0.00,-0.33,0.36,9.35,0.00,0.00,-0.00,0.00
2026-06-27 10:06:19.410,995.06,995.00,-5.94,-3.22,0.00,-0.33,0.36,9.35,0.00,0.00,-0.00,0.00
2026-06-27 10:06:19.420,995.06,995.00,-5.94,-3.22,0.00,-0.33,0.36,9.35,-0.00,0.00,0.00,0.00
2026-06-27 10:06:19.425,995.06,995.00,-5.94,-3.22,0.00,-0.33,0.38,9.39,0.00,-0.00,-0.00,0.00
2026-06-27 10:06:19.428,995.06,995.00,-5.94,-3.22,0.00,-0.33,0.37,9.36,0.00,-0.00,-0.00,0.00
2026-06-27 10:06:19.434,995.06,995.00,-5.94,-3.22,0.00,-0.33,0.37,9.36,0.00,-0.00,-0.00,0.00
2026-06-27 10:06:19.439,995.06,995.00,-5.94,-3.22,0.00,-0.34,0.40,9.37,-0.00,-0.00,0.00,0.00
2026-06-27 10:06:19.585,995.05,995.00,-4.91,-2.92,0.00,-0.34,0.37,9.37,0.00,-0.00,0.00,0.00
2026-06-27 10:06:19.586,995.05,995.00,-4.91,-2.92,0.00,-0.34,0.37,9.37,0.00,-0.00,0.00,0.00
2026-06-27 10:06:19.588,995.05,995.00,-4.91,-2.92,0.00,-0.34,0.37,9.37,0.00,-0.00,0.00,0.00
2026-06-27 10:06:19.594,995.05,995.00,-4.91,-2.92,0.00,-0.34,0.37,9.37,0.00,-0.00,0.00,0.00
2026-06-27 10:06:19.596,995.05,995.00,-4.91,-2.92,0.00,-0.33,0.38,9.38,0.00,-0.00,-0.00,0.00
2026-06-27 10:06:19.598,995.05,995.00,-4.91,-2.92,0.00,-0.33,0.38,9.38,0.00,-0.00,-0.00,0.00
2026-06-27 10:06:19.604,995.05,995.00,-4.91,-2.92,0.00,-0.33,0.38,9.38,0.00,-0.00,-0.00,0.00
2026-06-27 10:06:19.605,995.05,995.00,-4.91,-2.92,0.00,-0.31,0.38,9.36,0.00,0.00,0.00,0.00
2026-06-27 10:06:19.606,995.05,995.00,-4.91,-2.92,0.00,-0.31,0.38,9.36,0.00,0.00,0.00,0.00
2026-06-27 10:06:19.607,995.05,995.00,-4.91,-2.92,0.00,-0.31,0.38,9.36,0.00,0.00,0.00,0.00
2026-06-27 10:06:19.611,995.05,995.00,-4.91,-2.92,0.00,-0.31,0.38,9.36,0.00,0.00,0.00,0.00
2026-06-27 10:06:19.618,995.05,995.00,-4.91,-2.92,0.00,-0.33,0.38,9.39,0.00,-0.00,-0.00,0.00
2026-06-27 10:06:19.622,995.05,995.00,-4.91,-2.92,0.00,-0.33,0.38,9.39,0.00,-0.00,-0.00,0.00
2026-06-27 10:06:19.766,995.06,995.00,-6.52,-3.37,0.00,-0.33,0.37,9.38,0.00,0.00,-0.00,0.00
2026-06-27 10:06:19.767,995.06,995.00,-6.52,-3.37,0.00,-0.33,0.37,9.38,0.00,0.00,-0.00,0.00
2026-06-27 10:06:19.768,995.06,995.00,-6.52,-3.37,0.00,-0.33,0.37,9.38,0.00,0.00,-0.00,0.00
2026-06-27 10:06:19.769,995.06,995.00,-6.52,-3.37,0.00,-0.33,0.37,9.38,0.00,0.00,-0.00,0.00
2026-06-27 10:06:19.771,995.06,995.00,-6.52,-3.37,0.00,-0.33,0.37,9.38,0.00,0.00,-0.00,0.00
2026-06-27 10:06:19.772,995.06,995.00,-6.52,-3.37,0.00,-0.33,0.37,9.38,0.00,0.00,-0.00,0.00
2026-06-27 10:06:19.775,995.06,995.00,-6.52,-3.37,0.00,-0.33,0.37,9.38,0.00,-0.00,0.00,0.00
2026-06-27 10:06:19.776,995.06,995.00,-6.52,-3.37,0.00,-0.33,0.37,9.38,0.00,-0.00,0.00,0.00
2026-06-27 10:06:19.777,995.06,995.00,-6.52,-3.37,0.00,-0.33,0.37,9.38,0.00,-0.00,0.00,0.00
2026-06-27 10:06:19.779,995.06,995.00,-6.52,-3.37,0.00,-0.33,0.37,9.38,0.00,-0.00,0.00,0.00
2026-06-27 10:06:19.784,995.06,995.00,-6.52,-3.37,0.00,-0.33,0.37,9.38,0.00,-0.00,0.00,0.00
2026-06-27 10:06:19.785,995.06,995.00,-6.52,-3.37,0.00,-0.33,0.38,9.39,0.00,0.00,0.00,0.00
2026-06-27 10:06:19.787,995.06,995.00,-6.52,-3.37,0.00,-0.33,0.38,9.39,0.00,0.00,0.00,0.00
2026-06-27 10:06:19.788,995.06,995.00,-6.52,-3.37,0.00,-0.33,0.38,9.39,0.00,0.00,0.00,0.00
2026-06-27 10:06:19.794,995.06,995.00,-6.52,-3.37,0.00,-0.33,0.38,9.39,0.00,0.00,0.00,0.00
2026-06-27 10:06:19.795,995.06,995.00,-6.52,-3.37,0.00,-0.32,0.38,9.37,-0.00,0.00,0.00,0.00
2026-06-27 10:06:19.797,995.06,995.00,-6.52,-3.37,0.00,-0.32,0.38,9.37,-0.00,0.00,0.00,0.00
2026-06-27 10:06:19.798,995.06,995.00,-6.52,-3.37,0.00,-0.32,0.38,9.37,-0.00,0.00,0.00,0.00
2026-06-27 10:06:19.799,995.06,995.00,-6.52,-3.37,0.00,-0.32,0.38,9.37,-0.00,0.00,0.00,0.00
2026-06-27 10:06:19.941,995.07,995.01,-5.93,-3.21,0.00,-0.32,0.37,9.37,0.00,0.00,-0.00,0.00
2026-06-27 10:06:19.945,995.07,995.01,-5.93,-3.21,0.00,-0.32,0.37,9.37,0.00,0.00,-0.00,0.00
2026-06-27 10:06:19.947,995.07,995.01,-5.93,-3.21,0.00,-0.32,0.36,9.38,0.00,0.00,-0.00,0.00
2026-06-27 10:06:19.948,995.07,995.01,-5.93,-3.21,0.00,-0.32,0.36,9.38,0.00,0.00,-0.00,0.00
2026-06-27 10:06:19.952,995.07,995.01,-5.93,-3.21,0.00,-0.32,0.36,9.38,0.00,0.00,-0.00,0.00
2026-06-27 10:06:19.955,995.07,995.01,-5.93,-3.21,0.00,-0.32,0.36,9.38,0.00,0.00,0.00,0.00
2026-06-27 10:06:19.957,995.07,995.01,-5.93,-3.21,0.00,-0.33,0.38,9.36,0.00,0.00,0.00,0.00
2026-06-27 10:06:19.959,995.07,995.01,-5.93,-3.21,0.00,-0.33,0.38,9.36,0.00,0.00,0.00,0.00
2026-06-27 10:06:19.965,995.07,995.01,-5.93,-3.21,0.00,-0.33,0.38,9.36,0.00,0.00,0.00,0.00
2026-06-27 10:06:19.966,995.07,995.01,-5.93,-3.21,0.00,-0.35,0.37,9.36,0.00,-0.00,-0.00,0.00
2026-06-27 10:06:19.968,995.07,995.01,-5.93,-3.21,0.00,-0.35,0.37,9.36,0.00,-0.00,-0.00,0.00
2026-06-27 10:06:19.970,995.07,995.01,-5.93,-3.21,0.00,-0.35,0.37,9.36,0.00,-0.00,-0.00,0.00
2026-06-27 10:06:19.971,995.07,995.01,-5.93,-3.21,0.00,-0.35,0.37,9.36,0.00,-0.00,-0.00,0.00
2026-06-27 10:06:19.973,995.07,995.01,-5.93,-3.21,0.00,-0.35,0.37,9.36,0.00,-0.00,-0.00,0.00
2026-06-27 10:06:19.975,995.07,995.01,-5.93,-3.21,0.00,-0.33,0.37,9.37,0.00,-0.00,0.00,0.00
2026-06-27 10:06:20.117,995.05,994.98,-7.26,-3.56,0.00,-0.32,0.37,9.38,0.00,0.00,0.00,0.00
2026-06-27 10:06:20.119,995.05,994.98,-7.26,-3.56,0.00,-0.32,0.37,9.38,0.00,0.00,0.00,0.00
2026-06-27 10:06:20.121,995.05,994.98,-7.26,-3.56,0.00,-0.32,0.37,9.38,0.00,0.00,0.00,0.00
2026-06-27 10:06:20.124,995.05,994.98,-7.26,-3.56,0.00,-0.32,0.37,9.38,0.00,0.00,0.00,0.00
2026-06-27 10:06:20.126,995.05,994.98,-7.26,-3.56,0.00,-0.33,0.38,9.38,-0.00,0.00,0.00,0.00
2026-06-27 10:06:20.128,995.05,994.98,-7.26,-3.56,0.00,-0.33,0.38,9.38,-0.00,0.00,0.00,0.00
2026-06-27 10:06:20.133,995.05,994.98,-7.26,-3.56,0.00,-0.33,0.38,9.38,-0.00,0.00,0.00,0.00
2026-06-27 10:06:20.136,995.05,994.98,-7.26,-3.56,0.00,-0.31,0.37,9.36,-0.00,0.00,0.00,0.00
2026-06-27 10:06:20.138,995.05,994.98,-7.26,-3.56,0.00,-0.31,0.37,9.36,-0.00,0.00,0.00,0.00
2026-06-27 10:06:20.139,995.05,994.98,-7.26,-3.56,0.00,-0.31,0.37,9.36,-0.00,0.00,0.00,0.00
2026-06-27 10:06:20.145,995.05,994.98,-7.26,-3.56,0.00,-0.31,0.37,9.36,-0.00,0.00,0.00,0.00
2026-06-27 10:06:20.147,995.05,994.98,-7.26,-3.56,0.00,-0.32,0.39,9.35,0.00,0.00,-0.00,0.00
2026-06-27 10:06:20.148,995.05,994.98,-7.26,-3.56,0.00,-0.32,0.39,9.35,0.00,0.00,-0.00,0.00
2026-06-27 10:06:20.154,995.05,994.98,-7.26,-3.56,0.00,-0.32,0.39,9.35,0.00,0.00,-0.00,0.00
2026-06-27 10:06:20.296,995.06,994.98,-8.32,-3.81,0.00,-0.35,0.39,9.35,0.00,-0.00,0.00,0.00
2026-06-27 10:06:20.298,995.06,994.98,-8.32,-3.81,0.00,-0.35,0.39,9.35,0.00,-0.00,0.00,0.00
2026-06-27 10:06:20.300,995.06,994.98,-8.32,-3.81,0.00,-0.35,0.39,9.35,0.00,-0.00,0.00,0.00
2026-06-27 10:06:20.304,995.06,994.98,-8.32,-3.81,0.00,-0.35,0.39,9.35,0.00,-0.00,0.00,0.00
2026-06-27 10:06:20.306,995.06,994.98,-8.32,-3.81,0.00,-0.35,0.39,9.36,0.00,-0.00,0.00,0.00
2026-06-27 10:06:20.308,995.06,994.98,-8.32,-3.81,0.00,-0.35,0.39,9.36,0.00,-0.00,0.00,0.00
2026-06-27 10:06:20.310,995.06,994.98,-8.32,-3.81,0.00,-0.35,0.39,9.36,0.00,-0.00,0.00,0.00
2026-06-27 10:06:20.316,995.06,994.98,-8.32,-3.81,0.00,-0.35,0.39,9.36,0.00,-0.00,0.00,0.00
2026-06-27 10:06:20.318,995.06,994.98,-8.32,-3.81,0.00,-0.32,0.39,9.37,-0.00,0.00,0.00,0.00
2026-06-27 10:06:20.319,995.06,994.98,-8.32,-3.81,0.00,-0.32,0.39,9.37,-0.00,0.00,0.00,0.00
2026-06-27 10:06:20.322,995.06,994.98,-8.32,-3.81,0.00,-0.32,0.39,9.37,-0.00,0.00,0.00,0.00
2026-06-27 10:06:20.326,995.06,994.98,-8.32,-3.81,0.00,-0.32,0.39,9.37,0.00,0.00,-0.00,0.00
2026-06-27 10:06:20.328,995.06,994.98,-8.32,-3.81,0.00,-0.33,0.37,9.38,0.00,0.00,-0.00,0.00
2026-06-27 10:06:20.330,995.06,994.98,-8.32,-3.81,0.00,-0.33,0.37,9.38,0.00,0.00,-0.00,0.00
2026-06-27 10:06:20.335,995.06,994.98,-8.32,-3.81,0.00,-0.33,0.37,9.38,0.00,0.00,-0.00,0.00
2026-06-27 10:06:20.477,995.04,994.99,-5.17,-3.00,0.00,-0.33,0.38,9.36,0.00,-0.00,-0.00,0.00
2026-06-27 10:06:20.478,995.04,994.99,-5.17,-3.00,0.00,-0.33,0.37,9.36,0.00,-0.00,-0.00,0.00
2026-06-27 10:06:20.480,995.04,994.99,-5.17,-3.00,0.00,-0.33,0.37,9.36,0.00,-0.00,-0.00,0.00
2026-06-27 10:06:20.486,995.04,994.99,-5.17,-3.00,0.00,-0.33,0.37,9.36,0.00,-0.00,-0.00,0.00
2026-06-27 10:06:20.487,995.04,994.99,-5.17,-3.00,0.00,-0.34,0.37,9.36,-0.00,-0.00,0.00,0.00
2026-06-27 10:06:20.489,995.04,994.99,-5.17,-3.00,0.00,-0.34,0.37,9.36,-0.00,-0.00,0.00,0.00
2026-06-27 10:06:20.492,995.04,994.99,-5.17,-3.00,0.00,-0.34,0.37,9.36,-0.00,-0.00,0.00,0.00
2026-06-27 10:06:20.497,995.04,994.99,-5.17,-3.00,0.00,-0.34,0.37,9.36,-0.00,-0.00,-0.00,0.00
2026-06-27 10:06:20.499,995.04,994.99,-5.17,-3.00,0.00,-0.33,0.40,9.35,-0.00,-0.00,-0.00,0.00
2026-06-27 10:06:20.501,995.04,994.99,-5.17,-3.00,0.00,-0.33,0.40,9.35,-0.00,-0.00,-0.00,0.00
2026-06-27 10:06:20.506,995.04,994.99,-5.17,-3.00,0.00,-0.33,0.40,9.35,-0.00,-0.00,-0.00,0.00
2026-06-27 10:06:20.508,995.04,994.99,-5.17,-3.00,0.00,-0.32,0.39,9.37,-0.00,0.00,-0.00,0.00
2026-06-27 10:06:20.647,995.04,994.98,-6.41,-3.34,0.00,-0.34,0.38,9.36,0.00,-0.00,-0.00,0.00
2026-06-27 10:06:20.649,995.04,994.98,-6.41,-3.34,0.00,-0.33,0.40,9.35,0.00,-0.00,-0.00,0.00
2026-06-27 10:06:20.650,995.04,994.98,-6.41,-3.34,0.00,-0.33,0.40,9.35,0.00,-0.00,-0.00,0.00
2026-06-27 10:06:20.656,995.04,994.98,-6.41,-3.34,0.00,-0.33,0.40,9.35,0.00,-0.00,-0.00,0.00
2026-06-27 10:06:20.658,995.04,994.98,-6.41,-3.34,0.00,-0.33,0.39,9.36,0.00,-0.00,0.00,0.00
2026-06-27 10:06:20.660,995.04,994.98,-6.41,-3.34,0.00,-0.33,0.39,9.36,0.00,-0.00,0.00,0.00
2026-06-27 10:06:20.666,995.04,994.98,-6.41,-3.34,0.00,-0.33,0.39,9.36,0.00,-0.00,0.00,0.00
2026-06-27 10:06:20.668,995.04,994.98,-6.41,-3.34,0.00,-0.33,0.38,9.37,0.00,0.00,0.00,0.00
2026-06-27 10:06:20.670,995.04,994.98,-6.41,-3.34,0.00,-0.33,0.38,9.37,0.00,0.00,0.00,0.00
2026-06-27 10:06:20.672,995.04,994.98,-6.41,-3.34,0.00,-0.33,0.38,9.37,0.00,0.00,0.00,0.00
2026-06-27 10:06:20.674,995.04,994.98,-6.41,-3.34,0.00,-0.33,0.38,9.37,0.00,0.00,0.00,0.00
2026-06-27 10:06:20.679,995.04,994.98,-6.41,-3.34,0.00,-0.33,0.38,9.37,-0.00,0.00,0.00,0.00
2026-06-27 10:06:20.686,995.04,994.98,-6.41,-3.34,0.00,-0.33,0.36,9.37,-0.00,0.00,0.00,0.00
