timestamp,pressure_bag,pressure_bme,diff_pressure,v_wind_est,speed,accel_x,accel_y,accel_z,gyro_x,gyro_y,gyro_z,power
2026-06-26 17:54:19.274,994.17,994.24,7.08,3.53,0.00,1.03,0.26,9.25,-0.00,-0.00,0.00,0.00
2026-06-26 17:54:19.277,994.17,994.24,7.08,3.53,0.00,1.03,0.26,9.25,-0.00,-0.00,0.00,0.00
2026-06-26 17:54:19.284,994.17,994.24,7.08,3.53,0.00,1.03,0.26,9.25,0.00,-0.00,-0.00,0.00
2026-06-26 17:54:19.286,994.17,994.24,7.08,3.53,0.00,1.01,0.27,9.27,0.00,-0.00,-0.00,0.00
2026-06-26 17:54:19.293,994.17,994.24,7.08,3.53,0.00,1.01,0.27,9.27,0.00,-0.00,-0.00,0.00
2026-06-26 17:54:19.294,994.17,994.24,7.08,3.53,0.00,1.03,0.31,9.26,-0.00,0.00,-0.00,0.00
2026-06-26 17:54:19.296,994.17,994.24,7.08,3.53,0.00,1.03,0.31,9.26,-0.00,0.00,-0.00,0.00
2026-06-26 17:54:19.297,994.17,994.24,7.08,3.53,0.00,1.03,0.31,9.26,-0.00,0.00,-0.00,0.00
2026-06-26 17:54:19.301,994.17,994.24,7.08,3.53,0.00,1.03,0.31,9.26,-0.00,0.00,-0.00,0.00
2026-06-26 17:54:19.304,994.17,994.24,7.08,3.53,0.00,1.03,0.31,9.26,-0.00,0.00,0.00,0.00
2026-06-26 17:54:19.305,994.17,994.24,7.08,3.53,0.00,1.03,0.29,9.27,-0.00,0.00,0.00,0.00
2026-06-26 17:54:19.306,994.17,994.24,7.08,3.53,0.00,1.03,0.29,9.27,-0.00,0.00,0.00,0.00
2026-06-26 17:54:19.308,994.17,994.24,7.08,3.53,0.00,1.03,0.29,9.27,-0.00,0.00,0.00,0.00
2026-06-26 17:54:19.313,994.17,994.24,7.08,3.53,0.00,1.03,0.29,9.27,-0.00,0.00,0.00,0.00
2026-06-26 17:54:19.315,994.17,994.24,7.08,3.53,0.00,1.01,0.28,9.30,-0.00,0.00,-0.00,0.00
2026-06-26 17:54:19.316,994.17,994.24,7.08,3.53,0.00,1.01,0.28,9.30,-0.00,0.00,-0.00,0.00
2026-06-26 17:54:19.318,994.17,994.24,7.08,3.53,0.00,1.01,0.28,9.30,-0.00,0.00,-0.00,0.00
2026-06-26 17:54:19.320,994.17,994.24,7.08,3.53,0.00,1.01,0.28,9.30,-0.00,0.00,-0.00,0.00
2026-06-26 17:54:19.323,994.17,994.24,7.08,3.53,0.00,1.01,0.28,9.30,-0.00,0.00,-0.00,0.00
2026-06-26 17:54:19.324,994.17,994.24,7.08,3.53,0.00,1.00,0.30,9.29,-0.00,0.00,0.00,0.00
2026-06-26 17:54:19.328,994.17,994.24,7.08,3.53,0.00,1.00,0.30,9.29,-0.00,0.00,0.00,0.00
2026-06-26 17:54:19.336,994.17,994.24,7.08,3.53,0.00,1.00,0.30,9.29,0.00,-0.00,-0.00,0.00
2026-06-26 17:54:19.423,994.16,994.24,7.37,3.60,0.00,1.01,0.29,9.27,-0.00,0.00,-0.00,0.00
2026-06-26 17:54:19.425,994.16,994.24,7.37,3.60,0.00,1.01,0.29,9.30,-0.00,0.00,-0.00,0.00
2026-06-26 17:54:19.426,994.16,994.24,7.37,3.60,0.00,1.01,0.29,9.30,-0.00,0.00,-0.00,0.00
2026-06-26 17:54:19.430,994.16,994.24,7.37,3.60,0.00,1.01,0.29,9.30,-0.00,0.00,-0.00,0.00
2026-06-26 17:54:19.434,994.16,994.24,7.37,3.60,0.00,1.01,0.29,9.30,0.00,0.00,0.00,0.00
2026-06-26 17:54:19.436,994.16,994.24,7.37,3.60,0.00,1.01,0.28,9.26,0.00,0.00,0.00,0.00
2026-06-26 17:54:19.438,994.16,994.24,7.37,3.60,0.00,1.01,0.28,9.26,0.00,0.00,0.00,0.00
2026-06-26 17:54:19.443,994.16,994.24,7.37,3.60,0.00,1.01,0.28,9.26,0.00,0.00,0.00,0.00
2026-06-26 17:54:19.446,994.16,994.24,7.37,3.60,0.00,1.01,0.28,9.27,-0.00,0.00,-0.00,0.00
2026-06-26 17:54:19.447,994.16,994.24,7.37,3.60,0.00,1.01,0.28,9.27,-0.00,0.00,-0.00,0.00
2026-06-26 17:54:19.452,994.16,994.24,7.37,3.60,0.00,1.01,0.28,9.27,-0.00,0.00,-0.00,0.00
2026-06-26 17:54:19.454,994.16,994.24,7.37,3.60,0.00,1.03,0.29,9.28,-0.00,-0.00,0.00,0.00
2026-06-26 17:54:19.455,994.16,994.24,7.37,3.60,0.00,1.03,0.29,9.28,-0.00,-0.00,0.00,0.00
2026-06-26 17:54:19.456,994.16,994.24,7.37,3.60,0.00,1.03,0.29,9.28,-0.00,-0.00,0.00,0.00
2026-06-26 17:54:19.458,994.16,994.24,7.37,3.60,0.00,1.03,0.29,9.28,-0.00,-0.00,0.00,0.00
2026-06-26 17:54:19.461,994.16,994.24,7.37,3.60,0.00,1.03,0.29,9.28,-0.00,-0.00,0.00,0.00
2026-06-26 17:54:19.464,994.16,994.24,7.37,3.60,0.00,1.03,0.29,9.28,-0.00,-0.01,0.00,0.00
2026-06-26 17:54:19.465,994.16,994.24,7.37,3.60,0.00,1.02,0.29,9.28,-0.00,-0.01,0.00,0.00
2026-06-26 17:54:19.467,994.16,994.24,7.37,3.60,0.00,1.02,0.29,9.28,-0.00,-0.01,0.00,0.00
2026-06-26 17:54:19.468,994.16,994.24,7.37,3.60,0.00,1.02,0.29,9.28,-0.00,-0.01,0.00,0.00
2026-06-26 17:54:19.469,994.16,994.24,7.37,3.60,0.00,1.02,0.29,9.28,-0.00,-0.01,0.00,0.00
2026-06-26 17:54:19.470,994.16,994.24,7.37,3.60,0.00,1.02,0.29,9.28,-0.00,-0.01,0.00,0.00
2026-06-26 17:54:19.474,994.16,994.24,7.37,3.60,0.00,1.02,0.29,9.28,0.00,-0.00,0.00,0.00
2026-06-26 17:54:19.476,994.16,994.24,7.37,3.60,0.00,1.02,0.30,9.27,0.00,-0.00,0.00,0.00
2026-06-26 17:54:19.480,994.16,994.24,7.37,3.60,0.00,1.02,0.30,9.27,0.00,-0.00,0.00,0.00
2026-06-26 17:54:19.520,994.16,994.23,7.08,3.53,0.00,1.04,0.27,9.29,-0.00,-0.00,0.00,0.00
2026-06-26 17:54:19.564,994.16,994.23,7.00,3.51,0.00,1.02,0.29,9.27,0.00,0.00,0.00,0.00
2026-06-26 17:54:19.566,994.16,994.23,7.00,3.51,0.00,1.00,0.27,9.29,0.00,0.00,0.00,0.00
2026-06-26 17:54:19.567,994.16,994.23,7.00,3.51,0.00,1.00,0.27,9.29,0.00,0.00,0.00,0.00
2026-06-26 17:54:19.568,994.16,994.23,7.00,3.51,0.00,1.00,0.27,9.29,0.00,0.00,0.00,0.00
2026-06-26 17:54:19.570,994.16,994.23,7.00,3.51,0.00,1.00,0.27,9.29,0.00,0.00,0.00,0.00
2026-06-26 17:54:19.574,994.16,994.23,7.00,3.51,0.00,1.00,0.27,9.29,0.00,0.00,-0.00,0.00
2026-06-26 17:54:19.575,994.16,994.23,7.00,3.51,0.00,1.00,0.28,9.28,0.00,0.00,-0.00,0.00
2026-06-26 17:54:19.576,994.16,994.23,7.00,3.51,0.00,1.00,0.28,9.28,0.00,0.00,-0.00,0.00
2026-06-26 17:54:19.578,994.16,994.23,7.00,3.51,0.00,1.00,0.28,9.28,0.00,0.00,-0.00,0.00
2026-06-26 17:54:19.583,994.16,994.23,7.00,3.51,0.00,1.00,0.28,9.28,0.00,0.00,-0.00,0.00
2026-06-26 17:54:19.585,994.16,994.23,7.00,3.51,0.00,1.01,0.28,9.30,-0.00,0.00,0.00,0.00
2026-06-26 17:54:19.586,994.16,994.23,7.00,3.51,0.00,1.01,0.28,9.30,-0.00,0.00,0.00,0.00
2026-06-26 17:54:19.587,994.16,994.23,7.00,3.51,0.00,1.01,0.28,9.30,-0.00,0.00,0.00,0.00
2026-06-26 17:54:19.590,994.16,994.23,7.00,3.51,0.00,1.01,0.28,9.30,-0.00,0.00,0.00,0.00
2026-06-26 17:54:19.594,994.16,994.23,7.00,3.51,0.00,1.01,0.28,9.30,-0.00,0.00,0.00,0.00
2026-06-26 17:54:19.596,994.16,994.23,7.00,3.51,0.00,1.01,0.28,9.27,-0.00,0.00,0.00,0.00
2026-06-26 17:54:19.599,994.16,994.23,7.00,3.51,0.00,1.01,0.28,9.27,-0.00,0.00,0.00,0.00
2026-06-26 17:54:19.604,994.16,994.23,7.00,3.51,0.00,1.01,0.28,9.27,0.00,0.00,0.00,0.00
2026-06-26 17:54:19.605,994.16,994.23,7.00,3.51,0.00,1.01,0.29,9.27,0.00,0.00,0.00,0.00
2026-06-26 17:54:19.607,994.16,994.23,7.00,3.51,0.00,1.01,0.29,9.27,0.00,0.00,0.00,0.00
2026-06-26 17:54:19.608,994.16,994.23,7.00,3.51,0.00,1.01,0.29,9.27,0.00,0.00,0.00,0.00
2026-06-26 17:54:19.614,994.16,994.23,7.00,3.51,0.00,1.01,0.29,9.27,-0.00,0.00,0.00,0.00
2026-06-26 17:54:19.615,994.16,994.23,7.00,3.51,0.00,1.01,0.29,9.28,-0.00,0.00,0.00,0.00
2026-06-26 17:54:19.617,994.16,994.23,7.00,3.51,0.00,1.01,0.29,9.28,-0.00,0.00,0.00,0.00
2026-06-26 17:54:19.618,994.16,994.23,7.00,3.51,0.00,1.01,0.29,9.28,-0.00,0.00,0.00,0.00
2026-06-26 17:54:19.656,994.16,994.23,6.98,3.50,0.00,1.01,0.29,9.28,-0.00,0.00,0.00,0.00
2026-06-26 17:54:19.658,994.16,994.23,6.98,3.50,0.00,1.01,0.29,9.28,-0.00,0.00,0.00,0.00
2026-06-26 17:54:19.664,994.16,994.23,6.98,3.50,0.00,1.01,0.29,9.28,-0.00,0.00,0.00,0.00
2026-06-26 17:54:19.710,994.16,994.23,7.35,3.59,0.00,1.00,0.29,9.29,-0.00,0.00,0.00,0.00
2026-06-26 17:54:19.714,994.16,994.23,7.35,3.59,0.00,1.00,0.29,9.29,-0.00,0.00,0.00,0.00
2026-06-26 17:54:19.715,994.16,994.23,7.35,3.59,0.00,1.01,0.28,9.27,-0.00,0.00,0.00,0.00
2026-06-26 17:54:19.717,994.16,994.23,7.35,3.59,0.00,1.01,0.28,9.27,-0.00,0.00,0.00,0.00
2026-06-26 17:54:19.718,994.16,994.23,7.35,3.59,0.00,1.01,0.28,9.27,-0.00,0.00,0.00,0.00
2026-06-26 17:54:19.719,994.16,994.23,7.35,3.59,0.00,1.01,0.28,9.27,-0.00,0.00,0.00,0.00
2026-06-26 17:54:19.721,994.16,994.23,7.35,3.59,0.00,1.01,0.28,9.27,-0.00,0.00,0.00,0.00
2026-06-26 17:54:19.722,994.16,994.23,7.35,3.59,0.00,1.01,0.28,9.27,-0.00,0.00,0.00,0.00
2026-06-26 17:54:19.725,994.16,994.23,7.35,3.59,0.00,1.03,0.29,9.28,-0.00,0.00,-0.00,0.00
2026-06-26 17:54:19.727,994.16,994.23,7.35,3.59,0.00,1.03,0.29,9.28,-0.00,0.00,-0.00,0.00
2026-06-26 17:54:19.728,994.16,994.23,7.35,3.59,0.00,1.03,0.29,9.28,-0.00,0.00,-0.00,0.00
2026-06-26 17:54:19.732,994.16,994.23,7.35,3.59,0.00,1.03,0.29,9.28,-0.00,0.00,-0.00,0.00
2026-06-26 17:54:19.734,994.16,994.23,7.35,3.59,0.00,1.03,0.29,9.28,-0.00,0.00,-0.00,0.00
2026-06-26 17:54:19.736,994.16,994.23,7.35,3.59,0.00,1.01,0.27,9.30,-0.00,0.00,-0.00,0.00
2026-06-26 17:54:19.737,994.16,994.23,7.35,3.59,0.00,1.01,0.27,9.30,-0.00,0.00,-0.00,0.00
2026-06-26 17:54:19.742,994.16,994.23,7.35,3.59,0.00,1.01,0.27,9.30,-0.00,0.00,-0.00,0.00
2026-06-26 17:54:19.745,994.16,994.23,7.35,3.59,0.00,1.02,0.27,9.23,-0.00,0.00,0.00,0.00
2026-06-26 17:54:19.746,994.16,994.23,7.35,3.59,0.00,1.02,0.27,9.23,-0.00,0.00,0.00,0.00
2026-06-26 17:54:19.754,994.16,994.23,7.35,3.59,0.00,1.02,0.27,9.23,-0.00,0.00,0.00,0.00
2026-06-26 17:54:19.755,994.16,994.23,7.35,3.59,0.00,1.01,0.28,9.29,-0.00,0.00,-0.00,0.00
2026-06-26 17:54:19.797,994.16,994.24,7.75,3.69,0.00,1.02,0.28,9.26,-0.00,0.00,0.00,0.00
2026-06-26 17:54:19.800,994.16,994.24,7.75,3.69,0.00,1.02,0.28,9.26,-0.00,0.00,0.00,0.00
2026-06-26 17:54:19.804,994.16,994.24,7.75,3.69,0.00,1.02,0.28,9.26,0.00,0.00,0.00,0.00
2026-06-26 17:54:19.805,994.16,994.24,7.75,3.69,0.00,1.01,0.30,9.29,0.00,0.00,0.00,0.00
2026-06-26 17:54:19.807,994.16,994.24,7.75,3.69,0.00,1.01,0.30,9.29,0.00,0.00,0.00,0.00
2026-06-26 17:54:19.854,994.16,994.24,7.74,3.69,0.00,1.00,0.29,9.24,-0.00,-0.01,0.00,0.00
2026-06-26 17:54:19.856,994.16,994.24,7.74,3.69,0.00,1.01,0.27,9.26,0.00,-0.00,-0.00,0.00
2026-06-26 17:54:19.858,994.16,994.24,7.74,3.69,0.00,1.01,0.27,9.26,0.00,-0.00,-0.00,0.00
2026-06-26 17:54:19.859,994.16,994.24,7.74,3.69,0.00,1.01,0.27,9.26,0.00,-0.00,-0.00,0.00
2026-06-26 17:54:19.864,994.16,994.24,7.74,3.69,0.00,1.01,0.27,9.26,0.00,-0.00,-0.00,0.00
2026-06-26 17:54:19.865,994.16,994.24,7.74,3.69,0.00,1.03,0.27,9.29,-0.00,0.00,-0.00,0.00
2026-06-26 17:54:19.867,994.16,994.24,7.74,3.69,0.00,1.03,0.27,9.29,-0.00,0.00,-0.00,0.00
2026-06-26 17:54:19.868,994.16,994.24,7.74,3.69,0.00,1.03,0.27,9.29,-0.00,0.00,-0.00,0.00
2026-06-26 17:54:19.869,994.16,994.24,7.74,3.69,0.00,1.03,0.27,9.29,-0.00,0.00,-0.00,0.00
2026-06-26 17:54:19.870,994.16,994.24,7.74,3.69,0.00,1.03,0.27,9.29,-0.00,0.00,-0.00,0.00
2026-06-26 17:54:19.872,994.16,994.24,7.74,3.69,0.00,1.03,0.27,9.29,-0.00,0.00,-0.00,0.00
2026-06-26 17:54:19.875,994.16,994.24,7.74,3.69,0.00,1.03,0.27,9.29,0.00,0.00,0.00,0.00
2026-06-26 17:54:19.877,994.16,994.24,7.74,3.69,0.00,1.01,0.29,9.27,0.00,0.00,0.00,0.00
2026-06-26 17:54:19.879,994.16,994.24,7.74,3.69,0.00,1.01,0.29,9.27,0.00,0.00,0.00,0.00
2026-06-26 17:54:19.884,994.16,994.24,7.74,3.69,0.00,1.01,0.29,9.27,0.00,0.00,0.00,0.00
2026-06-26 17:54:19.885,994.16,994.24,7.74,3.69,0.00,1.01,0.29,9.25,0.00,0.00,0.00,0.00
2026-06-26 17:54:19.886,994.16,994.24,7.74,3.69,0.00,1.01,0.29,9.25,0.00,0.00,0.00,0.00
2026-06-26 17:54:19.888,994.16,994.24,7.74,3.69,0.00,1.01,0.29,9.25,0.00,0.00,0.00,0.00
2026-06-26 17:54:19.889,994.16,994.24,7.74,3.69,0.00,1.01,0.29,9.25,0.00,0.00,0.00,0.00
2026-06-26 17:54:19.894,994.16,994.24,7.74,3.69,0.00,1.01,0.29,9.25,0.00,0.00,0.00,0.00
2026-06-26 17:54:19.896,994.16,994.24,7.74,3.69,0.00,1.01,0.28,9.25,-0.00,0.00,-0.00,0.00
2026-06-26 17:54:19.941,994.16,994.23,7.37,3.60,0.00,1.01,0.29,9.26,0.00,0.00,0.00,0.00
2026-06-26 17:54:19.944,994.16,994.23,7.37,3.60,0.00,1.01,0.29,9.26,-0.00,0.00,-0.00,0.00
2026-06-26 17:54:19.946,994.16,994.23,7.37,3.60,0.00,1.01,0.29,9.27,-0.00,0.00,-0.00,0.00
2026-06-26 17:54:19.947,994.16,994.23,7.37,3.60,0.00,1.01,0.29,9.27,-0.00,0.00,-0.00,0.00
2026-06-26 17:54:19.948,994.16,994.23,7.37,3.60,0.00,1.01,0.29,9.27,-0.00,0.00,-0.00,0.00
2026-06-26 17:54:19.954,994.16,994.23,7.37,3.60,0.00,1.01,0.29,9.27,-0.00,0.00,-0.00,0.00
2026-06-26 17:54:19.995,994.16,994.23,7.60,3.65,0.00,1.01,0.30,9.27,0.00,-0.00,0.00,0.00
2026-06-26 17:54:19.997,994.16,994.23,7.60,3.65,0.00,1.01,0.30,9.27,0.00,-0.00,0.00,0.00
2026-06-26 17:54:19.998,994.16,994.23,7.60,3.65,0.00,1.01,0.30,9.27,0.00,-0.00,0.00,0.00
2026-06-26 17:54:19.001,994.16,994.23,7.60,3.65,0.00,1.01,0.30,9.27,0.00,-0.00,0.00,0.00
2026-06-26 17:54:20.005,994.16,994.23,7.60,3.65,0.00,1.00,0.29,9.29,0.00,-0.00,-0.00,0.00
2026-06-26 17:54:20.007,994.16,994.23,7.60,3.65,0.00,1.00,0.29,9.29,0.00,-0.00,-0.00,0.00
2026-06-26 17:54:20.008,994.16,994.23,7.60,3.65,0.00,1.00,0.29,9.29,0.00,-0.00,-0.00,0.00
2026-06-26 17:54:20.012,994.16,994.23,7.60,3.65,0.00,1.00,0.29,9.29,0.00,-0.00,-0.00,0.00
2026-06-26 17:54:20.015,994.16,994.23,7.60,3.65,0.00,1.00,0.29,9.29,0.00,-0.00,0.00,0.00
2026-06-26 17:54:20.016,994.16,994.23,7.60,3.65,0.00,1.02,0.27,9.29,0.00,-0.00,0.00,0.00
2026-06-26 17:54:20.017,994.16,994.23,7.60,3.65,0.00,1.02,0.27,9.29,0.00,-0.00,0.00,0.00
2026-06-26 17:54:20.019,994.16,994.23,7.60,3.65,0.00,1.02,0.27,9.29,0.00,-0.00,0.00,0.00
2026-06-26 17:54:20.021,994.16,994.23,7.60,3.65,0.00,1.02,0.27,9.29,0.00,-0.00,0.00,0.00
2026-06-26 17:54:20.022,994.16,994.23,7.60,3.65,0.00,1.02,0.27,9.29,0.00,-0.00,0.00,0.00
2026-06-26 17:54:20.025,994.16,994.23,7.60,3.65,0.00,1.02,0.27,9.29,-0.00,-0.00,-0.00,0.00
2026-06-26 17:54:20.034,994.16,994.23,7.60,3.65,0.00,1.01,0.29,9.26,-0.00,-0.00,-0.00,0.00
2026-06-26 17:54:20.036,994.16,994.23,7.60,3.65,0.00,1.02,0.27,9.30,0.00,0.00,0.00,0.00
2026-06-26 17:54:20.038,994.16,994.23,7.60,3.65,0.00,1.02,0.27,9.30,0.00,0.00,0.00,0.00
2026-06-26 17:54:20.084,994.16,994.23,7.37,3.60,0.00,1.01,0.31,9.29,-0.00,-0.00,0.00,0.00
2026-06-26 17:54:20.086,994.16,994.23,7.37,3.60,0.00,1.01,0.31,9.26,-0.00,-0.00,0.00,0.00
2026-06-26 17:54:20.088,994.16,994.23,7.37,3.60,0.00,1.01,0.31,9.26,-0.00,-0.00,0.00,0.00
2026-06-26 17:54:20.092,994.16,994.23,7.37,3.60,0.00,1.01,0.31,9.26,-0.00,-0.00,0.00,0.00
2026-06-26 17:54:20.095,994.16,994.23,7.37,3.60,0.00,1.01,0.31,9.26,-0.00,-0.00,-0.00,0.00
2026-06-26 17:54:20.144,994.16,994.23,7.16,3.55,0.00,1.01,0.30,9.27,0.00,0.00,0.00,0.00
2026-06-26 17:54:20.146,994.16,994.23,7.16,3.55,0.00,1.02,0.28,9.26,0.00,-0.00,0.00,0.00
2026-06-26 17:54:20.148,994.16,994.23,7.16,3.55,0.00,1.02,0.28,9.26,0.00,-0.00,0.00,0.00
2026-06-26 17:54:20.149,994.16,994.23,7.16,3.55,0.00,1.02,0.28,9.26,0.00,-0.00,0.00,0.00
2026-06-26 17:54:20.150,994.16,994.23,7.16,3.55,0.00,1.02,0.28,9.26,0.00,-0.00,0.00,0.00
2026-06-26 17:54:20.155,994.16,994.23,7.16,3.55,0.00,1.02,0.28,9.26,0.00,0.00,0.00,0.00
2026-06-26 17:54:20.156,994.16,994.23,7.16,3.55,0.00,1.01,0.29,9.30,0.00,0.00,0.00,0.00
2026-06-26 17:54:20.157,994.16,994.23,7.16,3.55,0.00,1.01,0.29,9.30,0.00,0.00,0.00,0.00
2026-06-26 17:54:20.158,994.16,994.23,7.16,3.55,0.00,1.01,0.29,9.30,0.00,0.00,0.00,0.00
2026-06-26 17:54:20.160,994.16,994.23,7.16,3.55,0.00,1.01,0.29,9.30,0.00,0.00,0.00,0.00
2026-06-26 17:54:20.165,994.16,994.23,7.16,3.55,0.00,1.01,0.29,9.30,0.00,0.00,-0.00,0.00
2026-06-26 17:54:20.167,994.16,994.23,7.16,3.55,0.00,1.01,0.30,9.26,0.00,0.00,-0.00,0.00
2026-06-26 17:54:20.169,994.16,994.23,7.16,3.55,0.00,1.01,0.30,9.26,0.00,0.00,-0.00,0.00
2026-06-26 17:54:20.170,994.16,994.23,7.16,3.55,0.00,1.01,0.30,9.26,0.00,0.00,-0.00,0.00
2026-06-26 17:54:20.171,994.16,994.23,7.16,3.55,0.00,1.01,0.30,9.26,0.00,0.00,-0.00,0.00
2026-06-26 17:54:20.173,994.16,994.23,7.16,3.55,0.00,1.01,0.30,9.26,0.00,0.00,-0.00,0.00
2026-06-26 17:54:20.175,994.16,994.23,7.16,3.55,0.00,1.01,0.30,9.26,0.00,-0.00,0.00,0.00
2026-06-26 17:54:20.176,994.16,994.23,7.16,3.55,0.00,1.03,0.28,9.28,0.00,-0.00,0.00,0.00
2026-06-26 17:54:20.178,994.16,994.23,7.16,3.55,0.00,1.03,0.28,9.28,0.00,-0.00,0.00,0.00
2026-06-26 17:54:20.179,994.16,994.23,7.16,3.55,0.00,1.03,0.28,9.28,0.00,-0.00,0.00,0.00
2026-06-26 17:54:20.182,994.16,994.23,7.16,3.55,0.00,1.03,0.28,9.28,0.00,-0.00,0.00,0.00
2026-06-26 17:54:20.226,994.16,994.23,7.17,3.55,0.00,1.00,0.28,9.27,0.00,-0.00,0.00,0.00
2026-06-26 17:54:20.227,994.16,994.23,7.17,3.55,0.00,1.00,0.28,9.27,0.00,-0.00,0.00,0.00
2026-06-26 17:54:20.229,994.16,994.23,7.17,3.55,0.00,1.00,0.28,9.27,0.00,-0.00,0.00,0.00
2026-06-26 17:54:20.232,994.16,994.23,7.17,3.55,0.00,1.00,0.28,9.27,0.00,-0.00,0.00,0.00
2026-06-26 17:54:20.235,994.16,994.23,7.17,3.55,0.00,1.00,0.28,9.27,0.00,0.00,0.00,0.00
2026-06-26 17:54:20.236,994.16,994.23,7.17,3.55,0.00,1.02,0.30,9.29,0.00,0.00,0.00,0.00
2026-06-26 17:54:20.238,994.16,994.23,7.17,3.55,0.00,1.02,0.30,9.29,0.00,0.00,0.00,0.00
2026-06-26 17:54:20.239,994.16,994.23,7.17,3.55,0.00,1.02,0.30,9.29,0.00,0.00,0.00,0.00
2026-06-26 17:54:20.285,994.16,994.23,7.23,3.56,0.00,1.01,0.29,9.29,0.00,-0.00,0.00,0.00
2026-06-26 17:54:20.286,994.16,994.23,7.23,3.56,0.00,1.02,0.27,9.27,0.00,0.00,0.00,0.00
2026-06-26 17:54:20.288,994.16,994.23,7.23,3.56,0.00,1.02,0.27,9.27,0.00,0.00,0.00,0.00
2026-06-26 17:54:20.289,994.16,994.23,7.23,3.56,0.00,1.02,0.27,9.27,0.00,0.00,0.00,0.00
2026-06-26 17:54:20.295,994.16,994.23,7.23,3.56,0.00,1.02,0.27,9.27,0.00,0.00,0.00,0.00
2026-06-26 17:54:20.296,994.16,994.23,7.23,3.56,0.00,1.01,0.27,9.27,0.00,-0.00,0.00,0.00
2026-06-26 17:54:20.297,994.16,994.23,7.23,3.56,0.00,1.01,0.27,9.27,0.00,-0.00,0.00,0.00
2026-06-26 17:54:20.299,994.16,994.23,7.23,3.56,0.00,1.01,0.27,9.27,0.00,-0.00,0.00,0.00
2026-06-26 17:54:20.302,994.16,994.23,7.23,3.56,0.00,1.01,0.27,9.27,0.00,-0.00,0.00,0.00
2026-06-26 17:54:20.306,994.16,994.23,7.23,3.56,0.00,1.01,0.27,9.27,0.00,0.00,0.00,0.00
2026-06-26 17:54:20.315,994.16,994.23,7.23,3.56,0.00,1.01,0.29,9.27,0.00,0.00,0.00,0.00
2026-06-26 17:54:20.317,994.16,994.23,7.23,3.56,0.00,1.01,0.30,9.27,0.00,0.00,-0.00,0.00
2026-06-26 17:54:20.318,994.16,994.23,7.23,3.56,0.00,1.01,0.30,9.27,0.00,0.00,-0.00,0.00
2026-06-26 17:54:20.319,994.16,994.23,7.23,3.56,0.00,1.01,0.30,9.27,0.00,0.00,-0.00,0.00
2026-06-26 17:54:20.321,994.16,994.23,7.23,3.56,0.00,1.01,0.30,9.27,0.00,0.00,-0.00,0.00
2026-06-26 17:54:20.322,994.16,994.23,7.23,3.56,0.00,1.01,0.30,9.27,0.00,0.00,-0.00,0.00
2026-06-26 17:54:20.325,994.16,994.23,7.23,3.56,0.00,1.01,0.30,9.27,0.00,-0.00,0.00,0.00
2026-06-26 17:54:20.368,994.16,994.23,6.77,3.45,0.00,1.02,0.30,9.27,0.00,0.00,-0.00,0.00
2026-06-26 17:54:20.369,994.16,994.23,6.77,3.45,0.00,1.02,0.30,9.27,0.00,0.00,-0.00,0.00
2026-06-26 17:54:20.370,994.16,994.23,6.77,3.45,0.00,1.02,0.30,9.27,0.00,0.00,-0.00,0.00
2026-06-26 17:54:20.375,994.16,994.23,6.77,3.45,0.00,1.02,0.30,9.27,0.00,0.00,-0.00,0.00
2026-06-26 17:54:20.376,994.16,994.23,6.77,3.45,0.00,1.03,0.29,9.28,0.00,0.00,-0.00,0.00
2026-06-26 17:54:20.378,994.16,994.23,6.77,3.45,0.00,1.03,0.29,9.28,0.00,0.00,-0.00,0.00
2026-06-26 17:54:20.379,994.16,994.23,6.77,3.45,0.00,1.03,0.29,9.28,0.00,0.00,-0.00,0.00
2026-06-26 17:54:20.422,994.16,994.23,7.12,3.54,0.00,1.02,0.29,9.25,0.00,-0.00,0.00,0.00
2026-06-26 17:54:20.425,994.16,994.23,7.12,3.54,0.00,1.02,0.29,9.25,-0.00,0.00,0.00,0.00
2026-06-26 17:54:20.427,994.16,994.23,7.12,3.54,0.00,1.02,0.28,9.26,-0.00,0.00,0.00,0.00
2026-06-26 17:54:20.428,994.16,994.23,7.12,3.54,0.00,1.02,0.28,9.26,-0.00,0.00,0.00,0.00
2026-06-26 17:54:20.429,994.16,994.23,7.12,3.54,0.00,1.02,0.28,9.26,-0.00,0.00,0.00,0.00
2026-06-26 17:54:20.433,994.16,994.23,7.12,3.54,0.00,1.02,0.28,9.26,-0.00,0.00,0.00,0.00
2026-06-26 17:54:20.436,994.16,994.23,7.12,3.54,0.00,1.02,0.28,9.26,0.00,0.00,0.00,0.00
2026-06-26 17:54:20.437,994.16,994.23,7.12,3.54,0.00,1.02,0.29,9.27,0.00,0.00,0.00,0.00
2026-06-26 17:54:20.438,994.16,994.23,7.12,3.54,0.00,1.02,0.29,9.27,0.00,0.00,0.00,0.00
2026-06-26 17:54:20.442,994.16,994.23,7.12,3.54,0.00,1.02,0.29,9.27,0.00,0.00,0.00,0.00
2026-06-26 17:54:20.446,994.16,994.23,7.12,3.54,0.00,1.02,0.29,9.27,0.00,-0.00,0.00,0.00
2026-06-26 17:54:20.448,994.16,994.23,7.12,3.54,0.00,1.01,0.28,9.27,0.00,-0.00,0.00,0.00
2026-06-26 17:54:20.449,994.16,994.23,7.12,3.54,0.00,1.01,0.28,9.27,0.00,-0.00,0.00,0.00
2026-06-26 17:54:20.450,994.16,994.23,7.12,3.54,0.00,1.01,0.28,9.27,0.00,-0.00,0.00,0.00
2026-06-26 17:54:20.455,994.16,994.23,7.12,3.54,0.00,1.01,0.28,9.27,-0.00,0.00,-0.00,0.00
2026-06-26 17:54:20.457,994.16,994.23,7.12,3.54,0.00,1.01,0.30,9.26,-0.00,0.00,-0.00,0.00
2026-06-26 17:54:20.458,994.16,994.23,7.12,3.54,0.00,1.01,0.30,9.26,-0.00,0.00,-0.00,0.00
2026-06-26 17:54:20.460,994.16,994.23,7.12,3.54,0.00,1.01,0.30,9.26,-0.00,0.00,-0.00,0.00
2026-06-26 17:54:20.465,994.16,994.23,7.12,3.54,0.00,1.01,0.30,9.26,-0.00,0.00,-0.00,0.00
2026-06-26 17:54:20.468,994.16,994.23,7.12,3.54,0.00,1.01,0.29,9.28,0.00,-0.00,0.00,0.00
2026-06-26 17:54:20.514,994.16,994.23,6.93,3.49,0.00,1.03,0.28,9.26,-0.00,-0.00,0.00,0.00
2026-06-26 17:54:20.516,994.16,994.23,6.93,3.49,0.00,1.01,0.29,9.26,0.00,-0.00,0.00,0.00
2026-06-26 17:54:20.518,994.16,994.23,6.93,3.49,0.00,1.01,0.29,9.26,0.00,-0.00,0.00,0.00
2026-06-26 17:54:20.519,994.16,994.23,6.93,3.49,0.00,1.01,0.29,9.26,0.00,-0.00,0.00,0.00
2026-06-26 17:54:20.520,994.16,994.23,6.93,3.49,0.00,1.01,0.29,9.26,0.00,-0.00,0.00,0.00
2026-06-26 17:54:20.521,994.16,994.23,6.93,3.49,0.00,1.01,0.29,9.26,0.00,-0.00,0.00,0.00
2026-06-26 17:54:20.566,994.16,994.23,6.85,3.47,0.00,1.02,0.28,9.26,-0.00,0.00,-0.00,0.00
2026-06-26 17:54:20.567,994.16,994.23,6.85,3.47,0.00,1.03,0.30,9.26,-0.00,0.00,-0.00,0.00
2026-06-26 17:54:20.569,994.16,994.23,6.85,3.47,0.00,1.03,0.30,9.26,-0.00,0.00,-0.00,0.00
2026-06-26 17:54:20.570,994.16,994.23,6.85,3.47,0.00,1.03,0.30,9.26,-0.00,0.00,-0.00,0.00
2026-06-26 17:54:20.572,994.16,994.23,6.85,3.47,0.00,1.03,0.30,9.26,-0.00,0.00,-0.00,0.00
2026-06-26 17:54:20.576,994.16,994.23,6.85,3.47,0.00,1.01,0.27,9.27,-0.00,0.00,0.00,0.00
2026-06-26 17:54:20.578,994.16,994.23,6.85,3.47,0.00,1.01,0.27,9.27,-0.00,0.00,0.00,0.00
2026-06-26 17:54:20.579,994.16,994.23,6.85,3.47,0.00,1.01,0.27,9.27,-0.00,0.00,0.00,0.00
2026-06-26 17:54:20.582,994.16,994.23,6.85,3.47,0.00,1.01,0.27,9.27,-0.00,0.00,0.00,0.00
2026-06-26 17:54:20.586,994.16,994.23,6.85,3.47,0.00,1.01,0.27,9.27,-0.00,0.00,0.00,0.00
2026-06-26 17:54:20.588,994.16,994.23,6.85,3.47,0.00,1.00,0.27,9.30,-0.00,0.00,0.00,0.00
2026-06-26 17:54:20.594,994.16,994.23,6.85,3.47,0.00,1.00,0.27,9.30,-0.00,0.00,0.00,0.00
2026-06-26 17:54:20.596,994.16,994.23,6.85,3.47,0.00,1.01,0.30,9.27,0.00,-0.00,-0.00,0.00
2026-06-26 17:54:20.598,994.16,994.23,6.85,3.47,0.00,1.01,0.30,9.27,0.00,-0.00,-0.00,0.00
2026-06-26 17:54:20.599,994.16,994.23,6.85,3.47,0.00,1.01,0.30,9.27,0.00,-0.00,-0.00,0.00
2026-06-26 17:54:20.604,994.16,994.23,6.85,3.47,0.00,1.01,0.30,9.27,0.00,-0.00,-0.00,0.00
2026-06-26 17:54:20.606,994.16,994.23,6.85,3.47,0.00,1.02,0.30,9.26,-0.00,-0.00,0.00,0.00
2026-06-26 17:54:20.608,994.16,994.23,6.85,3.47,0.00,1.02,0.30,9.26,-0.00,-0.00,0.00,0.00
2026-06-26 17:54:20.653,994.16,994.23,7.26,3.57,0.00,1.03,0.29,9.25,-0.00,-0.00,0.00,0.00
2026-06-26 17:54:20.656,994.16,994.23,7.26,3.57,0.00,1.03,0.29,9.25,-0.00,0.00,-0.00,0.00
2026-06-26 17:54:20.657,994.16,994.23,7.26,3.57,0.00,1.00,0.29,9.27,-0.00,0.00,-0.00,0.00
2026-06-26 17:54:20.659,994.16,994.23,7.26,3.57,0.00,1.00,0.29,9.27,-0.00,0.00,-0.00,0.00
2026-06-26 17:54:20.662,994.16,994.23,7.26,3.57,0.00,1.00,0.29,9.27,-0.00,0.00,-0.00,0.00
2026-06-26 17:54:20.706,994.15,994.23,7.62,3.66,0.00,1.00,0.29,9.27,0.00,-0.00,0.00,0.00
2026-06-26 17:54:20.708,994.15,994.23,7.62,3.66,0.00,1.01,0.29,9.27,0.00,-0.00,0.00,0.00
2026-06-26 17:54:20.709,994.15,994.23,7.62,3.66,0.00,1.01,0.29,9.27,0.00,-0.00,0.00,0.00
2026-06-26 17:54:20.710,994.15,994.23,7.62,3.66,0.00,1.01,0.29,9.27,0.00,-0.00,0.00,0.00
2026-06-26 17:54:20.715,994.15,994.23,7.62,3.66,0.00,1.01,0.29,9.27,0.00,-0.00,0.00,0.00
2026-06-26 17:54:20.717,994.15,994.23,7.62,3.66,0.00,1.01,0.29,9.28,-0.00,-0.00,0.00,0.00
2026-06-26 17:54:20.718,994.15,994.23,7.62,3.66,0.00,1.01,0.29,9.28,-0.00,-0.00,0.00,0.00
2026-06-26 17:54:20.719,994.15,994.23,7.62,3.66,0.00,1.01,0.29,9.28,-0.00,-0.00,0.00,0.00
2026-06-26 17:54:20.720,994.15,994.23,7.62,3.66,0.00,1.01,0.29,9.28,-0.00,-0.00,0.00,0.00
2026-06-26 17:54:20.722,994.15,994.23,7.62,3.66,0.00,1.01,0.29,9.28,-0.00,-0.00,0.00,0.00
2026-06-26 17:54:20.723,994.15,994.23,7.62,3.66,0.00,1.01,0.29,9.28,-0.00,-0.00,0.00,0.00
2026-06-26 17:54:20.727,994.15,994.23,7.62,3.66,0.00,1.01,0.29,9.28,0.00,-0.00,0.00,0.00
2026-06-26 17:54:20.729,994.15,994.23,7.62,3.66,0.00,1.01,0.31,9.27,0.00,-0.00,0.00,0.00
2026-06-26 17:54:20.730,994.15,994.23,7.62,3.66,0.00,1.01,0.31,9.27,0.00,-0.00,0.00,0.00
2026-06-26 17:54:20.736,994.15,994.23,7.62,3.66,0.00,1.01,0.31,9.27,0.00,-0.00,0.00,0.00
2026-06-26 17:54:20.739,994.15,994.23,7.62,3.66,0.00,1.01,0.28,9.28,0.00,0.00,0.00,0.00
2026-06-26 17:54:20.742,994.15,994.23,7.62,3.66,0.00,1.01,0.28,9.28,0.00,0.00,0.00,0.00
2026-06-26 17:54:20.746,994.15,994.23,7.62,3.66,0.00,1.01,0.28,9.28,-0.00,0.00,-0.00,0.00
2026-06-26 17:54:20.747,994.15,994.23,7.62,3.66,0.00,1.02,0.29,9.26,-0.00,0.00,-0.00,0.00
2026-06-26 17:54:20.749,994.15,994.23,7.62,3.66,0.00,1.02,0.29,9.26,-0.00,0.00,-0.00,0.00
2026-06-26 17:54:20.796,994.15,994.23,7.41,3.61,0.00,1.01,0.29,9.27,0.00,-0.00,-0.00,0.00
2026-06-26 17:54:20.797,994.15,994.23,7.41,3.61,0.00,1.01,0.28,9.27,-0.00,0.00,0.00,0.00
2026-06-26 17:54:20.798,994.15,994.23,7.41,3.61,0.00,1.01,0.28,9.27,-0.00,0.00,0.00,0.00
2026-06-26 17:54:20.800,994.15,994.23,7.41,3.61,0.00,1.01,0.28,9.27,-0.00,0.00,0.00,0.00
2026-06-26 17:54:20.803,994.15,994.23,7.41,3.61,0.00,1.01,0.28,9.27,-0.00,0.00,0.00,0.00
2026-06-26 17:54:20.846,994.16,994.23,7.05,3.52,0.00,1.01,0.29,9.26,-0.00,0.00,0.00,0.00
2026-06-26 17:54:20.848,994.16,994.23,7.05,3.52,0.00,1.02,0.29,9.26,-0.00,0.00,0.00,0.00
2026-06-26 17:54:20.849,994.16,994.23,7.05,3.52,0.00,1.02,0.29,9.26,-0.00,0.00,0.00,0.00
2026-06-26 17:54:20.850,994.16,994.23,7.05,3.52,0.00,1.02,0.29,9.26,-0.00,0.00,0.00,0.00
2026-06-26 17:54:20.854,994.16,994.23,7.05,3.52,0.00,1.02,0.29,9.26,-0.00,0.00,0.00,0.00
2026-06-26 17:54:20.857,994.16,994.23,7.05,3.52,0.00,1.01,0.30,9.29,-0.00,0.00,-0.00,0.00
2026-06-26 17:54:20.859,994.16,994.23,7.05,3.52,0.00,1.01,0.30,9.29,-0.00,0.00,-0.00,0.00
2026-06-26 17:54:20.862,994.16,994.23,7.05,3.52,0.00,1.01,0.30,9.29,-0.00,0.00,-0.00,0.00
2026-06-26 17:54:20.866,994.16,994.23,7.05,3.52,0.00,1.01,0.30,9.29,-0.00,0.00,-0.00,0.00
2026-06-26 17:54:20.868,994.16,994.23,7.05,3.52,0.00,1.02,0.30,9.28,-0.00,0.00,-0.00,0.00
2026-06-26 17:54:20.869,994.16,994.23,7.05,3.52,0.00,1.02,0.30,9.28,-0.00,0.00,-0.00,0.00
2026-06-26 17:54:20.870,994.16,994.23,7.05,3.52,0.00,1.02,0.30,9.28,-0.00,0.00,-0.00,0.00
2026-06-26 17:54:20.872,994.16,994.23,7.05,3.52,0.00,1.02,0.30,9.28,-0.00,0.00,-0.00,0.00
2026-06-26 17:54:20.873,994.16,994.23,7.05,3.52,0.00,1.02,0.30,9.28,-0.00,0.00,-0.00,0.00
2026-06-26 17:54:20.876,994.16,994.23,7.05,3.52,0.00,1.02,0.30,9.28,-0.00,0.00,-0.00,0.00
2026-06-26 17:54:20.878,994.16,994.23,7.05,3.52,0.00,1.01,0.27,9.30,0.00,-0.00,0.00,0.00
2026-06-26 17:54:20.880,994.16,994.23,7.05,3.52,0.00,1.01,0.27,9.30,0.00,-0.00,0.00,0.00
2026-06-26 17:54:20.886,994.16,994.23,7.05,3.52,0.00,1.01,0.27,9.30,0.00,-0.00,0.00,0.00
2026-06-26 17:54:20.887,994.16,994.23,7.05,3.52,0.00,1.01,0.27,9.27,0.00,-0.00,0.00,0.00
2026-06-26 17:54:20.889,994.16,994.23,7.05,3.52,0.00,1.01,0.27,9.27,0.00,-0.00,0.00,0.00
2026-06-26 17:54:20.890,994.16,994.23,7.05,3.52,0.00,1.01,0.27,9.27,0.00,-0.00,0.00,0.00
2026-06-26 17:54:20.892,994.16,994.23,7.05,3.52,0.00,1.01,0.27,9.27,0.00,-0.00,0.00,0.00
2026-06-26 17:54:20.937,994.16,994.23,7.31,3.58,0.00,1.03,0.30,9.28,-0.00,-0.00,0.00,0.00
2026-06-26 17:54:20.938,994.16,994.23,7.31,3.58,0.00,1.03,0.31,9.27,-0.00,-0.00,0.00,0.00
2026-06-26 17:54:20.940,994.16,994.23,7.31,3.58,0.00,1.03,0.31,9.27,-0.00,-0.00,0.00,0.00
2026-06-26 17:54:20.943,994.16,994.23,7.31,3.58,0.00,1.03,0.31,9.27,-0.00,-0.00,0.00,0.00
2026-06-26 17:54:20.987,994.15,994.23,7.73,3.69,0.00,1.02,0.29,9.27,-0.00,-0.00,0.00,0.00
2026-06-26 17:54:20.988,994.15,994.23,7.73,3.69,0.00,1.00,0.29,9.29,-0.00,-0.00,0.00,0.00
2026-06-26 17:54:20.989,994.15,994.23,7.73,3.69,0.00,1.00,0.29,9.29,-0.00,-0.00,0.00,0.00
2026-06-26 17:54:20.991,994.15,994.23,7.73,3.69,0.00,1.00,0.29,9.29,-0.00,-0.00,0.00,0.00
2026-06-26 17:54:20.996,994.15,994.23,7.73,3.69,0.00,1.00,0.29,9.29,-0.00,-0.00,0.00,0.00
2026-06-26 17:54:20.997,994.15,994.23,7.73,3.69,0.00,1.01,0.29,9.29,-0.00,-0.00,0.00,0.00
2026-06-26 17:54:20.999,994.15,994.23,7.73,3.69,0.00,1.01,0.29,9.29,-0.00,-0.00,0.00,0.00
2026-06-26 17:54:20.000,994.15,994.23,7.73,3.69,0.00,1.01,0.29,9.29,-0.00,-0.00,0.00,0.00
2026-06-26 17:54:21.008,994.15,994.23,7.73,3.69,0.00,1.01,0.29,9.29,-0.00,-0.00,0.00,0.00
2026-06-26 17:54:21.013,994.15,994.23,7.73,3.69,0.00,1.02,0.28,9.28,0.00,0.00,0.00,0.00
2026-06-26 17:54:21.017,994.15,994.23,7.73,3.69,0.00,1.02,0.28,9.28,0.00,0.00,-0.00,0.00
2026-06-26 17:54:21.019,994.15,994.23,7.73,3.69,0.00,1.01,0.27,9.27,0.00,0.00,-0.00,0.00
2026-06-26 17:54:21.020,994.15,994.23,7.73,3.69,0.00,1.01,0.27,9.27,0.00,0.00,-0.00,0.00
2026-06-26 17:54:21.021,994.15,994.23,7.73,3.69,0.00,1.01,0.27,9.27,0.00,0.00,-0.00,0.00
2026-06-26 17:54:21.023,994.15,994.23,7.73,3.69,0.00,1.01,0.27,9.27,0.00,0.00,-0.00,0.00
2026-06-26 17:54:21.024,994.15,994.23,7.73,3.69,0.00,1.01,0.27,9.27,0.00,0.00,-0.00,0.00
2026-06-26 17:54:21.027,994.15,994.23,7.73,3.69,0.00,1.01,0.27,9.27,0.00,0.00,0.00,0.00
2026-06-26 17:54:21.028,994.15,994.23,7.73,3.69,0.00,1.00,0.27,9.27,0.00,0.00,0.00,0.00
2026-06-26 17:54:21.030,994.15,994.23,7.73,3.69,0.00,1.00,0.27,9.27,0.00,0.00,0.00,0.00
2026-06-26 17:54:21.032,994.15,994.23,7.73,3.69,0.00,1.00,0.27,9.27,0.00,0.00,0.00,0.00
2026-06-26 17:54:21.036,994.15,994.23,7.73,3.69,0.00,1.00,0.27,9.27,0.00,-0.00,0.00,0.00
2026-06-26 17:54:21.078,994.15,994.23,7.87,3.72,0.00,1.00,0.29,9.26,0.00,-0.00,0.00,0.00
2026-06-26 17:54:21.080,994.15,994.23,7.87,3.72,0.00,1.00,0.29,9.26,0.00,-0.00,0.00,0.00
2026-06-26 17:54:21.082,994.15,994.23,7.87,3.72,0.00,1.00,0.29,9.26,0.00,-0.00,0.00,0.00
2026-06-26 17:54:21.086,994.15,994.23,7.87,3.72,0.00,1.00,0.29,9.26,0.00,-0.00,0.00,0.00
2026-06-26 17:54:21.129,994.16,994.23,7.20,3.56,0.00,1.01,0.28,9.29,0.00,0.00,0.00,0.00
2026-06-26 17:54:21.134,994.16,994.23,7.20,3.56,0.00,1.01,0.28,9.29,0.00,0.00,0.00,0.00
2026-06-26 17:54:21.137,994.16,994.23,7.20,3.56,0.00,1.01,0.28,9.29,0.00,-0.00,0.00,0.00
2026-06-26 17:54:21.139,994.16,994.23,7.20,3.56,0.00,1.01,0.27,9.27,0.00,-0.00,0.00,0.00
2026-06-26 17:54:21.140,994.16,994.23,7.20,3.56,0.00,1.01,0.27,9.27,0.00,-0.00,0.00,0.00
2026-06-26 17:54:21.144,994.16,994.23,7.20,3.56,0.00,1.01,0.27,9.27,0.00,-0.00,0.00,0.00
2026-06-26 17:54:21.147,994.16,994.23,7.20,3.56,0.00,1.01,0.27,9.27,0.00,-0.00,0.00,0.00
2026-06-26 17:54:21.150,994.16,994.23,7.20,3.56,0.00,1.01,0.29,9.28,0.00,-0.00,0.00,0.00
2026-06-26 17:54:21.154,994.16,994.23,7.20,3.56,0.00,1.01,0.29,9.28,0.00,-0.00,0.00,0.00
2026-06-26 17:54:21.157,994.16,994.23,7.20,3.56,0.00,1.01,0.29,9.28,0.00,-0.00,0.00,0.00
2026-06-26 17:54:21.158,994.16,994.23,7.20,3.56,0.00,1.02,0.28,9.27,0.00,-0.00,0.00,0.00
2026-06-26 17:54:21.160,994.16,994.23,7.20,3.56,0.00,1.02,0.28,9.27,0.00,-0.00,0.00,0.00
2026-06-26 17:54:21.161,994.16,994.23,7.20,3.56,0.00,1.02,0.28,9.27,0.00,-0.00,0.00,0.00
2026-06-26 17:54:21.167,994.16,994.23,7.20,3.56,0.00,1.02,0.28,9.27,0.00,-0.00,0.00,0.00
2026-06-26 17:54:21.168,994.16,994.23,7.20,3.56,0.00,0.99,0.29,9.27,0.00,-0.00,0.00,0.00
2026-06-26 17:54:21.170,994.16,994.23,7.20,3.56,0.00,0.99,0.29,9.27,0.00,-0.00,0.00,0.00
2026-06-26 17:54:21.172,994.16,994.23,7.20,3.56,0.00,0.99,0.29,9.27,0.00,-0.00,0.00,0.00
2026-06-26 17:54:21.173,994.16,994.23,7.20,3.56,0.00,0.99,0.29,9.27,0.00,-0.00,0.00,0.00
2026-06-26 17:54:21.174,994.16,994.23,7.20,3.56,0.00,0.99,0.29,9.27,0.00,-0.00,0.00,0.00
2026-06-26 17:54:21.177,994.16,994.23,7.20,3.56,0.00,0.99,0.29,9.27,0.00,-0.00,-0.00,0.00
2026-06-26 17:54:21.219,994.16,994.23,7.46,3.62,0.00,1.01,0.29,9.25,0.00,0.00,0.00,0.00
2026-06-26 17:54:21.221,994.16,994.23,7.46,3.62,0.00,1.01,0.29,9.25,0.00,0.00,0.00,0.00
2026-06-26 17:54:21.222,994.16,994.23,7.46,3.62,0.00,1.01,0.29,9.25,0.00,0.00,0.00,0.00
2026-06-26 17:54:21.224,994.16,994.23,7.46,3.62,0.00,1.01,0.29,9.25,0.00,0.00,0.00,0.00
2026-06-26 17:54:21.228,994.16,994.23,7.46,3.62,0.00,1.01,0.29,9.25,0.00,0.00,0.00,0.00
2026-06-26 17:54:21.278,994.16,994.23,7.29,3.58,0.00,1.01,0.30,9.29,0.00,0.00,0.00,0.00
2026-06-26 17:54:21.280,994.16,994.23,7.29,3.58,0.00,1.01,0.29,9.30,0.00,0.00,0.00,0.00
2026-06-26 17:54:21.286,994.16,994.23,7.29,3.58,0.00,1.01,0.29,9.30,0.00,0.00,0.00,0.00
2026-06-26 17:54:21.288,994.16,994.23,7.29,3.58,0.00,1.02,0.29,9.29,0.00,-0.00,0.00,0.00
2026-06-26 17:54:21.290,994.16,994.23,7.29,3.58,0.00,1.02,0.29,9.29,0.00,-0.00,0.00,0.00
2026-06-26 17:54:21.294,994.16,994.23,7.29,3.58,0.00,1.02,0.29,9.29,0.00,-0.00,0.00,0.00
2026-06-26 17:54:21.297,994.16,994.23,7.29,3.58,0.00,1.02,0.29,9.29,-0.00,0.00,0.00,0.00
2026-06-26 17:54:21.299,994.16,994.23,7.29,3.58,0.00,1.01,0.28,9.27,-0.00,0.00,0.00,0.00
2026-06-26 17:54:21.300,994.16,994.23,7.29,3.58,0.00,1.01,0.28,9.27,-0.00,0.00,0.00,0.00
2026-06-26 17:54:21.303,994.16,994.23,7.29,3.58,0.00,1.01,0.28,9.27,-0.00,0.00,0.00,0.00
2026-06-26 17:54:21.307,994.16,994.23,7.29,3.58,0.00,1.01,0.28,9.27,0.00,0.00,-0.00,0.00
2026-06-26 17:54:21.309,994.16,994.23,7.29,3.58,0.00,1.01,0.28,9.28,0.00,0.00,-0.00,0.00
2026-06-26 17:54:21.310,994.16,994.23,7.29,3.58,0.00,1.01,0.28,9.28,0.00,0.00,-0.00,0.00
2026-06-26 17:54:21.311,994.16,994.23,7.29,3.58,0.00,1.01,0.28,9.28,0.00,0.00,-0.00,0.00
2026-06-26 17:54:21.317,994.16,994.23,7.29,3.58,0.00,1.01,0.28,9.28,0.00,0.00,-0.00,0.00
2026-06-26 17:54:21.318,994.16,994.23,7.29,3.58,0.00,1.00,0.28,9.27,0.00,0.00,-0.00,0.00
2026-06-26 17:54:21.360,994.16,994.23,7.41,3.61,0.00,1.01,0.30,9.27,0.00,0.00,0.00,0.00
2026-06-26 17:54:21.364,994.16,994.23,7.41,3.61,0.00,1.01,0.30,9.27,0.00,0.00,0.00,0.00
2026-06-26 17:54:21.368,994.16,994.23,7.41,3.61,0.00,1.01,0.30,9.27,0.00,-0.00,-0.00,0.00
2026-06-26 17:54:21.416,994.15,994.23,8.17,3.79,0.00,1.01,0.31,9.27,-0.00,-0.00,-0.00,0.00
2026-06-26 17:54:21.418,994.15,994.23,8.17,3.79,0.00,1.00,0.29,9.30,0.00,0.00,-0.00,0.00
2026-06-26 17:54:21.419,994.15,994.23,8.17,3.79,0.00,1.00,0.29,9.30,0.00,0.00,-0.00,0.00
2026-06-26 17:54:21.421,994.15,994.23,8.17,3.79,0.00,1.00,0.29,9.30,0.00,0.00,-0.00,0.00
2026-06-26 17:54:21.422,994.15,994.23,8.17,3.79,0.00,1.00,0.29,9.30,0.00,0.00,-0.00,0.00
2026-06-26 17:54:21.423,994.15,994.23,8.17,3.79,0.00,1.00,0.29,9.30,0.00,0.00,-0.00,0.00
2026-06-26 17:54:21.424,994.15,994.23,8.17,3.79,0.00,1.00,0.29,9.30,0.00,0.00,-0.00,0.00
2026-06-26 17:54:21.425,994.15,994.23,8.17,3.79,0.00,1.00,0.29,9.30,0.00,0.00,-0.00,0.00
2026-06-26 17:54:21.428,994.15,994.23,8.17,3.79,0.00,1.01,0.30,9.29,0.00,-0.00,0.00,0.00
2026-06-26 17:54:21.429,994.15,994.23,8.17,3.79,0.00,1.01,0.30,9.29,0.00,-0.00,0.00,0.00
2026-06-26 17:54:21.431,994.15,994.23,8.17,3.79,0.00,1.01,0.30,9.29,0.00,-0.00,0.00,0.00
2026-06-26 17:54:21.437,994.15,994.23,8.17,3.79,0.00,1.01,0.30,9.29,0.00,-0.00,0.00,0.00
2026-06-26 17:54:21.438,994.15,994.23,8.17,3.79,0.00,1.02,0.29,9.27,-0.00,0.00,-0.00,0.00
2026-06-26 17:54:21.440,994.15,994.23,8.17,3.79,0.00,1.02,0.29,9.27,-0.00,0.00,-0.00,0.00
2026-06-26 17:54:21.441,994.15,994.23,8.17,3.79,0.00,1.02,0.29,9.27,-0.00,0.00,-0.00,0.00
2026-06-26 17:54:21.444,994.15,994.23,8.17,3.79,0.00,1.02,0.29,9.27,-0.00,0.00,-0.00,0.00
2026-06-26 17:54:21.448,994.15,994.23,8.17,3.79,0.00,1.02,0.29,9.27,0.00,0.00,0.00,0.00
2026-06-26 17:54:21.450,994.15,994.23,8.17,3.79,0.00,1.04,0.28,9.26,0.00,0.00,0.00,0.00
2026-06-26 17:54:21.451,994.15,994.23,8.17,3.79,0.00,1.04,0.28,9.26,0.00,0.00,0.00,0.00
2026-06-26 17:54:21.453,994.15,994.23,8.17,3.79,0.00,1.04,0.28,9.26,0.00,0.00,0.00,0.00
2026-06-26 17:54:21.457,994.15,994.23,8.17,3.79,0.00,1.04,0.28,9.26,0.00,-0.00,0.00,0.00
2026-06-26 17:54:21.459,994.15,994.23,8.17,3.79,0.00,1.02,0.30,9.29,0.00,-0.00,0.00,0.00
2026-06-26 17:54:21.501,994.15,994.23,8.15,3.78,0.00,1.03,0.28,9.24,0.00,0.01,-0.00,0.00
2026-06-26 17:54:21.507,994.15,994.23,8.15,3.78,0.00,1.03,0.28,9.24,0.00,0.01,-0.00,0.00
2026-06-26 17:54:21.509,994.15,994.23,8.15,3.78,0.00,1.03,0.28,9.27,-0.00,0.00,0.00,0.00
2026-06-26 17:54:21.510,994.15,994.23,8.15,3.78,0.00,1.03,0.28,9.27,-0.00,0.00,0.00,0.00
2026-06-26 17:54:21.552,994.15,994.23,8.16,3.79,0.00,1.02,0.31,9.27,0.00,0.00,-0.00,0.00
2026-06-26 17:54:21.557,994.15,994.23,8.16,3.79,0.00,1.02,0.31,9.27,0.00,0.00,-0.00,0.00
2026-06-26 17:54:21.558,994.15,994.23,8.16,3.79,0.00,1.01,0.30,9.27,0.00,0.00,0.00,0.00
2026-06-26 17:54:21.560,994.15,994.23,8.16,3.79,0.00,1.01,0.30,9.27,0.00,0.00,0.00,0.00
2026-06-26 17:54:21.561,994.15,994.23,8.16,3.79,0.00,1.01,0.30,9.27,0.00,0.00,0.00,0.00
2026-06-26 17:54:21.567,994.15,994.23,8.16,3.79,0.00,1.01,0.30,9.27,0.00,0.00,0.00,0.00
2026-06-26 17:54:21.568,994.15,994.23,8.16,3.79,0.00,1.02,0.29,9.27,0.00,-0.00,-0.00,0.00
2026-06-26 17:54:21.570,994.15,994.23,8.16,3.79,0.00,1.02,0.29,9.27,0.00,-0.00,-0.00,0.00
2026-06-26 17:54:21.571,994.15,994.23,8.16,3.79,0.00,1.02,0.29,9.27,0.00,-0.00,-0.00,0.00
2026-06-26 17:54:21.572,994.15,994.23,8.16,3.79,0.00,1.02,0.29,9.27,0.00,-0.00,-0.00,0.00
2026-06-26 17:54:21.573,994.15,994.23,8.16,3.79,0.00,1.02,0.29,9.27,0.00,-0.00,-0.00,0.00
2026-06-26 17:54:21.575,994.15,994.23,8.16,3.79,0.00,1.02,0.29,9.27,0.00,-0.00,-0.00,0.00
2026-06-26 17:54:21.578,994.15,994.23,8.16,3.79,0.00,1.02,0.29,9.27,0.00,-0.00,0.00,0.00
2026-06-26 17:54:21.580,994.15,994.23,8.16,3.79,0.00,1.01,0.31,9.28,0.00,-0.00,0.00,0.00
2026-06-26 17:54:21.584,994.15,994.23,8.16,3.79,0.00,1.01,0.31,9.28,0.00,-0.00,0.00,0.00
2026-06-26 17:54:21.588,994.15,994.23,8.16,3.79,0.00,1.01,0.31,9.28,0.00,-0.00,-0.00,0.00
2026-06-26 17:54:21.589,994.15,994.23,8.16,3.79,0.00,1.01,0.28,9.30,0.00,-0.00,-0.00,0.00
2026-06-26 17:54:21.591,994.15,994.23,8.16,3.79,0.00,1.01,0.28,9.30,0.00,-0.00,-0.00,0.00
2026-06-26 17:54:21.595,994.15,994.23,8.16,3.79,0.00,1.01,0.28,9.30,0.00,-0.00,-0.00,0.00
2026-06-26 17:54:21.598,994.15,994.23,8.16,3.79,0.00,1.01,0.28,9.30,-0.00,-0.00,0.00,0.00
2026-06-26 17:54:21.599,994.15,994.23,8.16,3.79,0.00,1.01,0.29,9.27,-0.00,-0.00,0.00,0.00
2026-06-26 17:54:21.600,994.15,994.23,8.16,3.79,0.00,1.01,0.29,9.27,-0.00,-0.00,0.00,0.00
2026-06-26 17:54:21.639,994.15,994.23,8.06,3.76,0.00,1.01,0.30,9.29,0.00,-0.00,0.00,0.00
2026-06-26 17:54:21.641,994.15,994.23,8.06,3.76,0.00,1.01,0.30,9.29,0.00,-0.00,0.00,0.00
2026-06-26 17:54:21.645,994.15,994.23,8.06,3.76,0.00,1.01,0.30,9.29,0.00,-0.00,0.00,0.00
2026-06-26 17:54:21.648,994.15,994.23,8.06,3.76,0.00,1.01,0.30,9.29,0.00,0.00,-0.00,0.00
2026-06-26 17:54:21.651,994.15,994.23,8.06,3.76,0.00,1.01,0.29,9.29,0.00,0.00,-0.00,0.00
2026-06-26 17:54:21.697,994.16,994.23,7.79,3.70,0.00,1.01,0.28,9.31,0.00,-0.00,0.00,0.00
2026-06-26 17:54:21.699,994.16,994.23,7.79,3.70,0.00,1.02,0.30,9.28,0.00,0.00,0.00,0.00
2026-06-26 17:54:21.700,994.16,994.23,7.79,3.70,0.00,1.02,0.30,9.28,0.00,0.00,0.00,0.00
2026-06-26 17:54:21.701,994.16,994.23,7.79,3.70,0.00,1.02,0.30,9.28,0.00,0.00,0.00,0.00
2026-06-26 17:54:21.705,994.16,994.23,7.79,3.70,0.00,1.02,0.30,9.28,0.00,0.00,0.00,0.00
2026-06-26 17:54:21.708,994.16,994.23,7.79,3.70,0.00,1.02,0.30,9.28,0.00,0.00,0.00,0.00
2026-06-26 17:54:21.710,994.16,994.23,7.79,3.70,0.00,1.00,0.29,9.25,0.00,0.00,0.00,0.00
2026-06-26 17:54:21.713,994.16,994.23,7.79,3.70,0.00,1.00,0.29,9.25,0.00,0.00,0.00,0.00
2026-06-26 17:54:21.718,994.16,994.23,7.79,3.70,0.00,1.00,0.29,9.25,0.00,-0.00,0.00,0.00
2026-06-26 17:54:21.719,994.16,994.23,7.79,3.70,0.00,1.02,0.29,9.27,0.00,-0.00,0.00,0.00
2026-06-26 17:54:21.720,994.16,994.23,7.79,3.70,0.00,1.02,0.29,9.27,0.00,-0.00,0.00,0.00
2026-06-26 17:54:21.722,994.16,994.23,7.79,3.70,0.00,1.02,0.29,9.27,0.00,-0.00,0.00,0.00
2026-06-26 17:54:21.723,994.16,994.23,7.79,3.70,0.00,1.02,0.29,9.27,0.00,-0.00,0.00,0.00
2026-06-26 17:54:21.725,994.16,994.23,7.79,3.70,0.00,1.02,0.29,9.27,0.00,-0.00,0.00,0.00
2026-06-26 17:54:21.728,994.16,994.23,7.79,3.70,0.00,1.02,0.29,9.27,0.00,0.00,0.00,0.00
2026-06-26 17:54:21.730,994.16,994.23,7.79,3.70,0.00,1.02,0.32,9.28,0.00,0.00,0.00,0.00
2026-06-26 17:54:21.736,994.16,994.23,7.79,3.70,0.00,1.02,0.32,9.28,0.00,0.00,0.00,0.00
2026-06-26 17:54:21.738,994.16,994.23,7.79,3.70,0.00,1.02,0.32,9.28,0.00,-0.00,-0.00,0.00
2026-06-26 17:54:21.780,994.16,994.23,7.92,3.73,0.00,1.03,0.27,9.27,-0.00,-0.00,0.00,0.00
2026-06-26 17:54:21.782,994.16,994.23,7.92,3.73,0.00,1.03,0.27,9.27,-0.00,-0.00,0.00,0.00
2026-06-26 17:54:21.788,994.16,994.23,7.92,3.73,0.00,1.03,0.27,9.27,-0.00,-0.00,0.00,0.00
2026-06-26 17:54:21.789,994.16,994.23,7.92,3.73,0.00,1.03,0.30,9.28,0.00,0.00,-0.00,0.00
2026-06-26 17:54:21.790,994.16,994.23,7.92,3.73,0.00,1.03,0.30,9.28,0.00,0.00,-0.00,0.00
2026-06-26 17:54:21.791,994.16,994.23,7.92,3.73,0.00,1.03,0.30,9.28,0.00,0.00,-0.00,0.00
2026-06-26 17:54:21.794,994.16,994.23,7.92,3.73,0.00,1.03,0.30,9.28,0.00,0.00,-0.00,0.00
2026-06-26 17:54:21.838,994.15,994.23,8.26,3.81,0.00,1.00,0.27,9.28,0.00,-0.00,0.00,0.00
2026-06-26 17:54:21.840,994.15,994.23,8.26,3.81,0.00,1.03,0.30,9.30,0.00,-0.00,0.00,0.00
2026-06-26 17:54:21.841,994.15,994.23,8.26,3.81,0.00,1.03,0.30,9.30,0.00,-0.00,0.00,0.00
2026-06-26 17:54:21.842,994.15,994.23,8.26,3.81,0.00,1.03,0.30,9.30,0.00,-0.00,0.00,0.00
2026-06-26 17:54:21.848,994.15,994.23,8.26,3.81,0.00,1.03,0.30,9.30,0.00,-0.00,0.00,0.00
2026-06-26 17:54:21.849,994.15,994.23,8.26,3.81,0.00,1.01,0.31,9.26,0.00,0.00,-0.00,0.00
2026-06-26 17:54:21.850,994.15,994.23,8.26,3.81,0.00,1.01,0.31,9.26,0.00,0.00,-0.00,0.00
2026-06-26 17:54:21.852,994.15,994.23,8.26,3.81,0.00,1.01,0.31,9.26,0.00,0.00,-0.00,0.00
2026-06-26 17:54:21.853,994.15,994.23,8.26,3.81,0.00,1.01,0.31,9.26,0.00,0.00,-0.00,0.00
2026-06-26 17:54:21.859,994.15,994.23,8.26,3.81,0.00,1.01,0.31,9.26,0.00,0.00,-0.00,0.00
2026-06-26 17:54:21.862,994.15,994.23,8.26,3.81,0.00,1.01,0.29,9.29,0.00,0.00,0.00,0.00
2026-06-26 17:54:21.868,994.15,994.23,8.26,3.81,0.00,1.01,0.29,9.29,0.00,0.00,0.00,0.00
2026-06-26 17:54:21.870,994.15,994.23,8.26,3.81,0.00,1.02,0.29,9.30,-0.00,0.00,-0.00,0.00
2026-06-26 17:54:21.871,994.15,994.23,8.26,3.81,0.00,1.02,0.29,9.30,-0.00,0.00,-0.00,0.00
2026-06-26 17:54:21.873,994.15,994.23,8.26,3.81,0.00,1.02,0.29,9.30,-0.00,0.00,-0.00,0.00
2026-06-26 17:54:21.875,994.15,994.23,8.26,3.81,0.00,1.02,0.29,9.30,-0.00,0.00,-0.00,0.00
2026-06-26 17:54:21.879,994.15,994.23,8.26,3.81,0.00,1.02,0.29,9.30,0.00,0.00,0.00,0.00
2026-06-26 17:54:21.880,994.15,994.23,8.26,3.81,0.00,1.02,0.28,9.30,0.00,0.00,0.00,0.00
2026-06-26 17:54:21.922,994.15,994.23,8.10,3.77,0.00,1.01,0.30,9.27,-0.00,0.00,0.00,0.00
2026-06-26 17:54:21.924,994.15,994.23,8.10,3.77,0.00,1.01,0.30,9.27,-0.00,0.00,0.00,0.00
2026-06-26 17:54:21.925,994.15,994.23,8.10,3.77,0.00,1.01,0.30,9.27,-0.00,0.00,0.00,0.00
2026-06-26 17:54:21.929,994.15,994.23,8.10,3.77,0.00,1.01,0.30,9.27,0.00,-0.00,0.00,0.00
2026-06-26 17:54:21.931,994.15,994.23,8.10,3.77,0.00,1.04,0.28,9.28,0.00,-0.00,0.00,0.00
2026-06-26 17:54:21.933,994.15,994.23,8.10,3.77,0.00,1.04,0.28,9.28,0.00,-0.00,0.00,0.00
2026-06-26 17:54:21.938,994.15,994.23,8.10,3.77,0.00,1.04,0.28,9.28,0.00,-0.00,0.00,0.00
2026-06-26 17:54:21.982,994.15,994.23,8.45,3.85,0.00,1.01,0.30,9.30,0.00,0.00,0.00,0.00
2026-06-26 17:54:21.988,994.15,994.23,8.45,3.85,0.00,1.01,0.30,9.30,0.00,0.00,0.00,0.00
2026-06-26 17:54:21.989,994.15,994.23,8.45,3.85,0.00,1.02,0.29,9.26,-0.00,0.00,0.00,0.00
2026-06-26 17:54:21.990,994.15,994.23,8.45,3.85,0.00,1.02,0.29,9.26,-0.00,0.00,0.00,0.00
2026-06-26 17:54:21.992,994.15,994.23,8.45,3.85,0.00,1.02,0.29,9.26,-0.00,0.00,0.00,0.00
2026-06-26 17:54:21.998,994.15,994.23,8.45,3.85,0.00,1.02,0.29,9.26,-0.00,0.00,0.00,0.00
2026-06-26 17:54:21.000,994.15,994.23,8.45,3.85,0.00,1.00,0.29,9.26,0.00,0.00,0.00,0.00
2026-06-26 17:54:21.002,994.15,994.23,8.45,3.85,0.00,1.00,0.29,9.26,0.00,0.00,0.00,0.00
2026-06-26 17:54:22.007,994.15,994.23,8.45,3.85,0.00,1.00,0.29,9.26,0.00,0.00,0.00,0.00
2026-06-26 17:54:22.009,994.15,994.23,8.45,3.85,0.00,1.01,0.29,9.29,0.00,-0.00,-0.00,0.00
2026-06-26 17:54:22.011,994.15,994.23,8.45,3.85,0.00,1.01,0.29,9.29,0.00,-0.00,-0.00,0.00
2026-06-26 17:54:22.012,994.15,994.23,8.45,3.85,0.00,1.01,0.29,9.29,0.00,-0.00,-0.00,0.00
2026-06-26 17:54:22.017,994.15,994.23,8.45,3.85,0.00,1.01,0.29,9.29,0.00,-0.00,-0.00,0.00
2026-06-26 17:54:22.019,994.15,994.23,8.45,3.85,0.00,1.02,0.29,9.27,0.00,0.00,0.00,0.00
2026-06-26 17:54:22.020,994.15,994.23,8.45,3.85,0.00,1.02,0.29,9.27,0.00,0.00,0.00,0.00
2026-06-26 17:54:22.066,994.15,994.23,8.37,3.83,0.00,1.01,0.28,9.26,-0.00,0.00,0.00,0.00
2026-06-26 17:54:22.069,994.15,994.23,8.37,3.83,0.00,1.01,0.28,9.26,0.00,0.00,0.00,0.00
2026-06-26 17:54:22.070,994.15,994.23,8.37,3.83,0.00,1.02,0.29,9.27,0.00,0.00,0.00,0.00
2026-06-26 17:54:22.072,994.15,994.23,8.37,3.83,0.00,1.02,0.29,9.27,0.00,0.00,0.00,0.00
2026-06-26 17:54:22.074,994.15,994.23,8.37,3.83,0.00,1.02,0.29,9.27,0.00,0.00,0.00,0.00
2026-06-26 17:54:22.078,994.15,994.23,8.37,3.83,0.00,1.02,0.29,9.27,0.00,0.00,0.00,0.00
2026-06-26 17:54:22.080,994.15,994.23,8.37,3.83,0.00,1.03,0.29,9.29,0.00,0.00,-0.00,0.00
2026-06-26 17:54:22.122,994.15,994.23,8.54,3.87,0.00,1.00,0.28,9.30,0.00,-0.00,0.00,0.00
2026-06-26 17:54:22.124,994.15,994.23,8.54,3.87,0.00,1.00,0.28,9.30,0.00,-0.00,0.00,0.00
2026-06-26 17:54:22.125,994.15,994.23,8.54,3.87,0.00,1.00,0.28,9.30,0.00,-0.00,0.00,0.00
2026-06-26 17:54:22.128,994.15,994.23,8.54,3.87,0.00,1.00,0.28,9.30,0.00,-0.00,0.00,0.00
2026-06-26 17:54:22.130,994.15,994.23,8.54,3.87,0.00,1.00,0.30,9.29,0.00,0.00,-0.00,0.00
2026-06-26 17:54:22.132,994.15,994.23,8.54,3.87,0.00,1.00,0.30,9.29,0.00,0.00,-0.00,0.00
2026-06-26 17:54:22.136,994.15,994.23,8.54,3.87,0.00,1.00,0.30,9.29,0.00,0.00,-0.00,0.00
2026-06-26 17:54:22.139,994.15,994.23,8.54,3.87,0.00,1.01,0.27,9.27,-0.00,0.00,0.00,0.00
2026-06-26 17:54:22.141,994.15,994.23,8.54,3.87,0.00,1.01,0.27,9.27,-0.00,0.00,0.00,0.00
2026-06-26 17:54:22.142,994.15,994.23,8.54,3.87,0.00,1.01,0.27,9.27,-0.00,0.00,0.00,0.00
2026-06-26 17:54:22.144,994.15,994.23,8.54,3.87,0.00,1.01,0.27,9.27,-0.00,0.00,0.00,0.00
2026-06-26 17:54:22.149,994.15,994.23,8.54,3.87,0.00,1.01,0.27,9.27,0.00,0.00,-0.00,0.00
2026-06-26 17:54:22.150,994.15,994.23,8.54,3.87,0.00,1.03,0.28,9.24,0.00,0.00,-0.00,0.00
2026-06-26 17:54:22.152,994.15,994.23,8.54,3.87,0.00,1.03,0.28,9.24,0.00,0.00,-0.00,0.00
2026-06-26 17:54:22.154,994.15,994.23,8.54,3.87,0.00,1.03,0.28,9.24,0.00,0.00,-0.00,0.00
2026-06-26 17:54:22.159,994.15,994.23,8.54,3.87,0.00,1.03,0.28,9.24,0.00,0.00,-0.00,0.00
2026-06-26 17:54:22.160,994.15,994.23,8.54,3.87,0.00,1.01,0.29,9.24,0.00,0.00,-0.00,0.00
2026-06-26 17:54:22.161,994.15,994.23,8.54,3.87,0.00,1.01,0.29,9.24,0.00,0.00,-0.00,0.00
2026-06-26 17:54:22.200,994.15,994.23,8.59,3.88,0.00,1.01,0.28,9.26,0.00,-0.00,0.00,0.00
2026-06-26 17:54:22.201,994.15,994.23,8.59,3.88,0.00,1.01,0.28,9.26,0.00,-0.00,0.00,0.00
2026-06-26 17:54:22.202,994.15,994.23,8.59,3.88,0.00,1.01,0.28,9.26,0.00,-0.00,0.00,0.00
2026-06-26 17:54:22.205,994.15,994.23,8.59,3.88,0.00,1.01,0.28,9.26,0.00,-0.00,0.00,0.00
2026-06-26 17:54:22.209,994.15,994.23,8.59,3.88,0.00,1.01,0.28,9.26,0.00,-0.00,0.00,0.00
2026-06-26 17:54:22.210,994.15,994.23,8.59,3.88,0.00,1.01,0.30,9.27,0.00,-0.00,0.00,0.00
2026-06-26 17:54:22.212,994.15,994.23,8.59,3.88,0.00,1.01,0.30,9.27,0.00,-0.00,0.00,0.00
2026-06-26 17:54:22.215,994.15,994.23,8.59,3.88,0.00,1.01,0.30,9.27,0.00,-0.00,0.00,0.00
2026-06-26 17:54:22.219,994.15,994.23,8.59,3.88,0.00,1.01,0.30,9.27,0.00,0.00,0.00,0.00
2026-06-26 17:54:22.221,994.15,994.23,8.59,3.88,0.00,1.00,0.30,9.30,0.00,0.00,0.00,0.00
2026-06-26 17:54:22.222,994.15,994.23,8.59,3.88,0.00,1.00,0.30,9.30,0.00,0.00,0.00,0.00
2026-06-26 17:54:22.268,994.15,994.23,8.41,3.84,0.00,1.01,0.29,9.28,-0.00,0.00,0.00,0.00
2026-06-26 17:54:22.270,994.15,994.23,8.41,3.84,0.00,1.01,0.30,9.26,0.00,0.00,-0.00,0.00
2026-06-26 17:54:22.271,994.15,994.23,8.41,3.84,0.00,1.01,0.30,9.26,0.00,0.00,-0.00,0.00
2026-06-26 17:54:22.272,994.15,994.23,8.41,3.84,0.00,1.01,0.30,9.26,0.00,0.00,-0.00,0.00
2026-06-26 17:54:22.274,994.15,994.23,8.41,3.84,0.00,1.01,0.30,9.26,0.00,0.00,-0.00,0.00
2026-06-26 17:54:22.275,994.15,994.23,8.41,3.84,0.00,1.01,0.30,9.26,0.00,0.00,-0.00,0.00
2026-06-26 17:54:22.277,994.15,994.23,8.41,3.84,0.00,1.01,0.30,9.26,0.00,0.00,-0.00,0.00
2026-06-26 17:54:22.280,994.15,994.23,8.41,3.84,0.00,1.01,0.30,9.26,0.00,0.00,-0.00,0.00
2026-06-26 17:54:22.282,994.15,994.23,8.41,3.84,0.00,1.01,0.29,9.27,0.00,0.00,-0.00,0.00
2026-06-26 17:54:22.285,994.15,994.23,8.41,3.84,0.00,1.01,0.29,9.27,0.00,0.00,-0.00,0.00
2026-06-26 17:54:22.289,994.15,994.23,8.41,3.84,0.00,1.01,0.29,9.27,-0.00,0.00,0.00,0.00
2026-06-26 17:54:22.291,994.15,994.23,8.41,3.84,0.00,1.01,0.26,9.27,-0.00,0.00,0.00,0.00
2026-06-26 17:54:22.292,994.15,994.23,8.41,3.84,0.00,1.01,0.26,9.27,-0.00,0.00,0.00,0.00
2026-06-26 17:54:22.297,994.15,994.23,8.41,3.84,0.00,1.01,0.26,9.27,-0.00,0.00,0.00,0.00
2026-06-26 17:54:22.300,994.15,994.23,8.41,3.84,0.00,1.02,0.29,9.29,0.00,0.00,0.00,0.00
2026-06-26 17:54:22.341,994.15,994.23,8.33,3.83,0.00,1.01,0.28,9.27,0.00,-0.00,0.00,0.00
2026-06-26 17:54:22.343,994.15,994.23,8.33,3.83,0.00,1.01,0.28,9.27,0.00,-0.00,0.00,0.00
2026-06-26 17:54:22.349,994.15,994.23,8.33,3.83,0.00,1.01,0.28,9.27,0.00,-0.00,0.00,0.00
2026-06-26 17:54:22.350,994.15,994.23,8.33,3.83,0.00,1.00,0.29,9.25,0.00,0.00,0.00,0.00
2026-06-26 17:54:22.352,994.15,994.23,8.33,3.83,0.00,1.00,0.29,9.25,0.00,0.00,0.00,0.00
2026-06-26 17:54:22.353,994.15,994.23,8.33,3.83,0.00,1.00,0.29,9.25,0.00,0.00,0.00,0.00
2026-06-26 17:54:22.354,994.15,994.23,8.33,3.83,0.00,1.00,0.29,9.25,0.00,0.00,0.00,0.00
2026-06-26 17:54:22.359,994.15,994.23,8.33,3.83,0.00,1.00,0.29,9.25,0.00,0.00,0.00,0.00
2026-06-26 17:54:22.360,994.15,994.23,8.33,3.83,0.00,1.01,0.29,9.27,-0.00,-0.00,0.00,0.00
2026-06-26 17:54:22.361,994.15,994.23,8.33,3.83,0.00,1.01,0.29,9.27,-0.00,-0.00,0.00,0.00
2026-06-26 17:54:22.363,994.15,994.23,8.33,3.83,0.00,1.01,0.29,9.27,-0.00,-0.00,0.00,0.00
2026-06-26 17:54:22.409,994.15,994.23,8.23,3.80,0.00,1.01,0.30,9.26,0.00,-0.00,0.00,0.00
2026-06-26 17:54:22.410,994.15,994.23,8.23,3.80,0.00,1.01,0.29,9.27,0.00,-0.00,0.00,0.00
2026-06-26 17:54:22.411,994.15,994.23,8.23,3.80,0.00,1.01,0.29,9.27,0.00,-0.00,0.00,0.00
2026-06-26 17:54:22.413,994.15,994.23,8.23,3.80,0.00,1.01,0.29,9.27,0.00,-0.00,0.00,0.00
2026-06-26 17:54:22.416,994.15,994.23,8.23,3.80,0.00,1.01,0.29,9.27,0.00,-0.00,0.00,0.00
2026-06-26 17:54:22.419,994.15,994.23,8.23,3.80,0.00,1.01,0.29,9.27,0.00,0.00,-0.00,0.00
2026-06-26 17:54:22.421,994.15,994.23,8.23,3.80,0.00,1.00,0.29,9.29,0.00,0.00,-0.00,0.00
2026-06-26 17:54:22.422,994.15,994.23,8.23,3.80,0.00,1.00,0.29,9.29,0.00,0.00,-0.00,0.00
2026-06-26 17:54:22.423,994.15,994.23,8.23,3.80,0.00,1.00,0.29,9.29,0.00,0.00,-0.00,0.00
2026-06-26 17:54:22.425,994.15,994.23,8.23,3.80,0.00,1.00,0.29,9.29,0.00,0.00,-0.00,0.00
2026-06-26 17:54:22.426,994.15,994.23,8.23,3.80,0.00,1.00,0.29,9.29,0.00,0.00,-0.00,0.00
2026-06-26 17:54:22.429,994.15,994.23,8.23,3.80,0.00,1.00,0.29,9.29,-0.00,0.00,-0.00,0.00
2026-06-26 17:54:22.431,994.15,994.23,8.23,3.80,0.00,1.02,0.31,9.27,-0.00,0.00,-0.00,0.00
2026-06-26 17:54:22.433,994.15,994.23,8.23,3.80,0.00,1.02,0.31,9.27,-0.00,0.00,-0.00,0.00
2026-06-26 17:54:22.437,994.15,994.23,8.23,3.80,0.00,1.02,0.31,9.27,-0.00,0.00,-0.00,0.00
2026-06-26 17:54:22.440,994.15,994.23,8.23,3.80,0.00,1.02,0.31,9.27,0.00,-0.00,0.00,0.00
2026-06-26 17:54:22.482,994.15,994.23,8.04,3.76,0.00,1.01,0.28,9.26,0.00,0.00,0.00,0.00
2026-06-26 17:54:22.483,994.15,994.23,8.04,3.76,0.00,1.01,0.28,9.26,0.00,0.00,0.00,0.00
2026-06-26 17:54:22.489,994.15,994.23,8.04,3.76,0.00,1.01,0.28,9.26,0.00,0.00,0.00,0.00
2026-06-26 17:54:22.491,994.15,994.23,8.04,3.76,0.00,1.01,0.29,9.29,0.00,-0.00,0.00,0.00
2026-06-26 17:54:22.493,994.15,994.23,8.04,3.76,0.00,1.01,0.29,9.29,0.00,-0.00,0.00,0.00
2026-06-26 17:54:22.499,994.15,994.23,8.04,3.76,0.00,1.01,0.29,9.29,0.00,-0.00,0.00,0.00
2026-06-26 17:54:22.500,994.15,994.23,8.04,3.76,0.00,1.01,0.27,9.25,-0.00,-0.00,0.00,0.00
2026-06-26 17:54:22.502,994.15,994.23,8.04,3.76,0.00,1.01,0.27,9.25,-0.00,-0.00,0.00,0.00
2026-06-26 17:54:22.503,994.15,994.23,8.04,3.76,0.00,1.01,0.27,9.25,-0.00,-0.00,0.00,0.00
2026-06-26 17:54:22.506,994.15,994.23,8.04,3.76,0.00,1.01,0.27,9.25,-0.00,-0.00,0.00,0.00
2026-06-26 17:54:22.550,994.15,994.23,8.41,3.84,0.00,1.01,0.27,9.27,-0.00,0.00,-0.00,0.00
2026-06-26 17:54:22.551,994.15,994.23,8.41,3.84,0.00,1.01,0.29,9.28,-0.00,0.00,-0.00,0.00
2026-06-26 17:54:22.553,994.15,994.23,8.41,3.84,0.00,1.01,0.29,9.28,-0.00,0.00,-0.00,0.00
2026-06-26 17:54:22.555,994.15,994.23,8.41,3.84,0.00,1.01,0.29,9.28,-0.00,0.00,-0.00,0.00
2026-06-26 17:54:22.560,994.15,994.23,8.41,3.84,0.00,1.01,0.29,9.28,0.00,-0.00,0.00,0.00
2026-06-26 17:54:22.562,994.15,994.23,8.41,3.84,0.00,1.03,0.29,9.27,0.00,-0.00,0.00,0.00
2026-06-26 17:54:22.563,994.15,994.23,8.41,3.84,0.00,1.03,0.29,9.27,0.00,-0.00,0.00,0.00
2026-06-26 17:54:22.569,994.15,994.23,8.41,3.84,0.00,1.03,0.29,9.27,0.00,-0.00,0.00,0.00
2026-06-26 17:54:22.571,994.15,994.23,8.41,3.84,0.00,1.02,0.28,9.29,0.00,-0.00,0.00,0.00
2026-06-26 17:54:22.573,994.15,994.23,8.41,3.84,0.00,1.02,0.28,9.29,0.00,-0.00,0.00,0.00
2026-06-26 17:54:22.577,994.15,994.23,8.41,3.84,0.00,1.02,0.28,9.29,0.00,-0.00,0.00,0.00
2026-06-26 17:54:22.580,994.15,994.23,8.41,3.84,0.00,1.02,0.28,9.29,0.00,0.00,-0.00,0.00
2026-06-26 17:54:22.623,994.15,994.23,8.27,3.81,0.00,1.01,0.27,9.30,-0.00,-0.00,0.00,0.00
2026-06-26 17:54:22.624,994.15,994.23,8.27,3.81,0.00,1.01,0.27,9.30,-0.00,-0.00,0.00,0.00
2026-06-26 17:54:22.626,994.15,994.23,8.27,3.81,0.00,1.01,0.27,9.30,-0.00,-0.00,0.00,0.00
2026-06-26 17:54:22.627,994.15,994.23,8.27,3.81,0.00,1.01,0.27,9.30,-0.00,-0.00,0.00,0.00
2026-06-26 17:54:22.630,994.15,994.23,8.27,3.81,0.00,1.01,0.27,9.30,0.00,0.00,0.00,0.00
2026-06-26 17:54:22.631,994.15,994.23,8.27,3.81,0.00,1.03,0.29,9.28,0.00,0.00,0.00,0.00
2026-06-26 17:54:22.633,994.15,994.23,8.27,3.81,0.00,1.03,0.29,9.28,0.00,0.00,0.00,0.00
2026-06-26 17:54:22.634,994.15,994.23,8.27,3.81,0.00,1.03,0.29,9.28,0.00,0.00,0.00,0.00
2026-06-26 17:54:22.639,994.15,994.23,8.27,3.81,0.00,1.03,0.29,9.28,0.00,0.00,0.00,0.00
2026-06-26 17:54:22.641,994.15,994.23,8.27,3.81,0.00,1.00,0.30,9.28,0.00,0.00,-0.00,0.00
2026-06-26 17:54:22.642,994.15,994.23,8.27,3.81,0.00,1.00,0.30,9.28,0.00,0.00,-0.00,0.00
2026-06-26 17:54:22.644,994.15,994.23,8.27,3.81,0.00,1.00,0.30,9.28,0.00,0.00,-0.00,0.00
2026-06-26 17:54:22.650,994.15,994.23,8.27,3.81,0.00,1.00,0.30,9.28,0.00,0.00,-0.00,0.00
2026-06-26 17:54:22.691,994.14,994.23,8.57,3.88,0.00,1.01,0.28,9.25,0.00,0.00,0.00,0.00
2026-06-26 17:54:22.693,994.14,994.23,8.57,3.88,0.00,1.01,0.28,9.25,0.00,0.00,0.00,0.00
2026-06-26 17:54:22.695,994.14,994.23,8.57,3.88,0.00,1.01,0.28,9.25,0.00,0.00,0.00,0.00
2026-06-26 17:54:22.700,994.14,994.23,8.57,3.88,0.00,1.01,0.28,9.25,0.00,0.00,0.00,0.00
2026-06-26 17:54:22.701,994.14,994.23,8.57,3.88,0.00,1.01,0.29,9.25,0.00,0.00,0.00,0.00
2026-06-26 17:54:22.702,994.14,994.23,8.57,3.88,0.00,1.01,0.29,9.25,0.00,0.00,0.00,0.00
2026-06-26 17:54:22.703,994.14,994.23,8.57,3.88,0.00,1.01,0.29,9.25,0.00,0.00,0.00,0.00
2026-06-26 17:54:22.707,994.14,994.23,8.57,3.88,0.00,1.01,0.29,9.25,0.00,0.00,0.00,0.00
2026-06-26 17:54:22.711,994.14,994.23,8.57,3.88,0.00,1.01,0.29,9.25,0.00,0.00,0.00,0.00
2026-06-26 17:54:22.713,994.14,994.23,8.57,3.88,0.00,1.03,0.29,9.28,0.00,0.00,0.00,0.00
2026-06-26 17:54:22.715,994.14,994.23,8.57,3.88,0.00,1.03,0.29,9.28,0.00,0.00,0.00,0.00
2026-06-26 17:54:22.720,994.14,994.23,8.57,3.88,0.00,1.03,0.29,9.28,0.00,-0.00,0.00,0.00
2026-06-26 17:54:22.721,994.14,994.23,8.57,3.88,0.00,1.01,0.28,9.29,0.00,-0.00,0.00,0.00
2026-06-26 17:54:22.763,994.14,994.23,8.56,3.88,0.00,1.02,0.28,9.28,0.00,-0.00,0.00,0.00
2026-06-26 17:54:22.767,994.14,994.23,8.56,3.88,0.00,1.02,0.28,9.28,0.00,-0.00,0.00,0.00
2026-06-26 17:54:22.770,994.14,994.23,8.56,3.88,0.00,1.02,0.28,9.28,-0.00,0.00,0.00,0.00
2026-06-26 17:54:22.772,994.14,994.23,8.56,3.88,0.00,1.01,0.31,9.29,-0.00,0.00,0.00,0.00
2026-06-26 17:54:22.773,994.14,994.23,8.56,3.88,0.00,1.01,0.31,9.29,-0.00,0.00,0.00,0.00
2026-06-26 17:54:22.775,994.14,994.23,8.56,3.88,0.00,1.01,0.31,9.29,-0.00,0.00,0.00,0.00
2026-06-26 17:54:22.776,994.14,994.23,8.56,3.88,0.00,1.01,0.31,9.29,-0.00,0.00,0.00,0.00
2026-06-26 17:54:22.780,994.14,994.23,8.56,3.88,0.00,1.01,0.31,9.29,-0.00,0.00,0.00,0.00
2026-06-26 17:54:22.781,994.14,994.23,8.56,3.88,0.00,1.04,0.28,9.27,0.00,-0.00,0.00,0.00
2026-06-26 17:54:22.782,994.14,994.23,8.56,3.88,0.00,1.04,0.28,9.27,0.00,-0.00,0.00,0.00
2026-06-26 17:54:22.784,994.14,994.23,8.56,3.88,0.00,1.04,0.28,9.27,0.00,-0.00,0.00,0.00
2026-06-26 17:54:22.788,994.14,994.23,8.56,3.88,0.00,1.04,0.28,9.27,0.00,-0.00,0.00,0.00
2026-06-26 17:54:22.790,994.14,994.23,8.56,3.88,0.00,1.01,0.28,9.26,0.00,0.00,-0.00,0.00
2026-06-26 17:54:22.833,994.14,994.23,8.48,3.86,0.00,1.00,0.28,9.29,0.00,0.00,0.00,0.00
2026-06-26 17:54:22.836,994.14,994.23,8.48,3.86,0.00,1.00,0.28,9.29,0.00,0.00,0.00,0.00
2026-06-26 17:54:22.840,994.14,994.23,8.48,3.86,0.00,1.00,0.28,9.29,-0.00,0.00,0.00,0.00
2026-06-26 17:54:22.842,994.14,994.23,8.48,3.86,0.00,1.01,0.28,9.28,-0.00,0.00,0.00,0.00
2026-06-26 17:54:22.843,994.14,994.23,8.48,3.86,0.00,1.01,0.28,9.28,-0.00,0.00,0.00,0.00
2026-06-26 17:54:22.844,994.14,994.23,8.48,3.86,0.00,1.01,0.28,9.28,-0.00,0.00,0.00,0.00
2026-06-26 17:54:22.849,994.14,994.23,8.48,3.86,0.00,1.01,0.28,9.28,-0.00,0.00,0.00,0.00
2026-06-26 17:54:22.851,994.14,994.23,8.48,3.86,0.00,1.01,0.27,9.26,0.00,0.00,0.00,0.00
2026-06-26 17:54:22.852,994.14,994.23,8.48,3.86,0.00,1.01,0.27,9.26,0.00,0.00,0.00,0.00
2026-06-26 17:54:22.853,994.14,994.23,8.48,3.86,0.00,1.01,0.27,9.26,0.00,0.00,0.00,0.00
2026-06-26 17:54:22.854,994.14,994.23,8.48,3.86,0.00,1.01,0.27,9.26,0.00,0.00,0.00,0.00
2026-06-26 17:54:22.857,994.14,994.23,8.48,3.86,0.00,1.01,0.27,9.26,0.00,0.00,0.00,0.00
2026-06-26 17:54:22.860,994.14,994.23,8.48,3.86,0.00,1.01,0.27,9.26,0.00,-0.00,0.00,0.00
2026-06-26 17:54:22.862,994.14,994.23,8.48,3.86,0.00,1.02,0.30,9.28,0.00,-0.00,0.00,0.00
2026-06-26 17:54:22.902,994.14,994.23,8.58,3.88,0.00,1.01,0.30,9.28,0.00,0.00,0.00,0.00
2026-06-26 17:54:22.903,994.14,994.23,8.58,3.88,0.00,1.01,0.30,9.28,0.00,0.00,0.00,0.00
2026-06-26 17:54:22.907,994.14,994.23,8.58,3.88,0.00,1.01,0.30,9.28,0.00,0.00,0.00,0.00
2026-06-26 17:54:22.916,994.14,994.23,8.58,3.88,0.00,1.01,0.30,9.28,0.00,0.00,0.00,0.00
2026-06-26 17:54:22.921,994.14,994.23,8.58,3.88,0.00,1.02,0.31,9.28,0.00,0.00,0.00,0.00
2026-06-26 17:54:22.923,994.14,994.23,8.58,3.88,0.00,1.01,0.28,9.28,0.00,0.00,0.00,0.00
2026-06-26 17:54:22.925,994.14,994.23,8.58,3.88,0.00,1.01,0.28,9.28,0.00,0.00,0.00,0.00
2026-06-26 17:54:22.926,994.14,994.23,8.58,3.88,0.00,1.01,0.28,9.28,0.00,0.00,0.00,0.00
2026-06-26 17:54:22.930,994.14,994.23,8.58,3.88,0.00,1.01,0.28,9.28,0.00,0.00,0.00,0.00
2026-06-26 17:54:22.933,994.14,994.23,8.58,3.88,0.00,1.01,0.28,9.29,0.00,0.00,-0.00,0.00
2026-06-26 17:54:22.977,994.15,994.23,8.34,3.83,0.00,1.00,0.29,9.29,-0.00,-0.00,0.00,0.00
2026-06-26 17:54:22.980,994.15,994.23,8.34,3.83,0.00,1.00,0.29,9.29,-0.00,-0.00,0.00,0.00
2026-06-26 17:54:22.981,994.15,994.23,8.34,3.83,0.00,1.01,0.31,9.30,0.00,-0.00,0.00,0.00
2026-06-26 17:54:22.983,994.15,994.23,8.34,3.83,0.00,1.01,0.31,9.30,0.00,-0.00,0.00,0.00
2026-06-26 17:54:22.984,994.15,994.23,8.34,3.83,0.00,1.01,0.31,9.30,0.00,-0.00,0.00,0.00
2026-06-26 17:54:22.988,994.15,994.23,8.34,3.83,0.00,1.01,0.31,9.30,0.00,-0.00,0.00,0.00
2026-06-26 17:54:22.991,994.15,994.23,8.34,3.83,0.00,1.01,0.31,9.30,-0.00,0.00,0.00,0.00
2026-06-26 17:54:22.992,994.15,994.23,8.34,3.83,0.00,1.01,0.30,9.31,-0.00,0.00,0.00,0.00
2026-06-26 17:54:22.000,994.15,994.23,8.34,3.83,0.00,1.01,0.30,9.31,-0.00,0.00,0.00,0.00
2026-06-26 17:54:23.043,994.15,994.23,8.22,3.80,0.00,1.02,0.28,9.25,-0.00,-0.00,0.00,0.00
2026-06-26 17:54:23.044,994.15,994.23,8.22,3.80,0.00,1.02,0.28,9.25,-0.00,-0.00,0.00,0.00
2026-06-26 17:54:23.050,994.15,994.23,8.22,3.80,0.00,1.02,0.28,9.25,-0.00,-0.00,0.00,0.00
2026-06-26 17:54:23.051,994.15,994.23,8.22,3.80,0.00,1.02,0.28,9.27,-0.00,-0.00,0.00,0.00
2026-06-26 17:54:23.053,994.15,994.23,8.22,3.80,0.00,1.02,0.28,9.27,-0.00,-0.00,0.00,0.00
2026-06-26 17:54:23.054,994.15,994.23,8.22,3.80,0.00,1.02,0.28,9.27,-0.00,-0.00,0.00,0.00
2026-06-26 17:54:23.055,994.15,994.23,8.22,3.80,0.00,1.02,0.28,9.27,-0.00,-0.00,0.00,0.00
2026-06-26 17:54:23.058,994.15,994.23,8.22,3.80,0.00,1.02,0.28,9.27,-0.00,-0.00,0.00,0.00
2026-06-26 17:54:23.061,994.15,994.23,8.22,3.80,0.00,1.02,0.28,9.27,-0.00,0.00,0.00,0.00
2026-06-26 17:54:23.064,994.15,994.23,8.22,3.80,0.00,1.01,0.27,9.27,-0.00,0.00,0.00,0.00
2026-06-26 17:54:23.070,994.15,994.23,8.22,3.80,0.00,1.01,0.27,9.27,-0.00,0.00,0.00,0.00
2026-06-26 17:54:23.072,994.15,994.23,8.22,3.80,0.00,1.01,0.28,9.26,-0.00,0.00,0.00,0.00
2026-06-26 17:54:23.073,994.15,994.23,8.22,3.80,0.00,1.01,0.28,9.26,-0.00,0.00,0.00,0.00
2026-06-26 17:54:23.074,994.15,994.23,8.22,3.80,0.00,1.01,0.28,9.26,-0.00,0.00,0.00,0.00
2026-06-26 17:54:23.076,994.15,994.23,8.22,3.80,0.00,1.01,0.28,9.26,-0.00,0.00,0.00,0.00
2026-06-26 17:54:23.121,994.14,994.23,8.39,3.84,0.00,1.01,0.29,9.26,-0.00,0.00,0.00,0.00
2026-06-26 17:54:23.122,994.14,994.23,8.39,3.84,0.00,1.00,0.31,9.26,0.00,0.00,0.00,0.00
2026-06-26 17:54:23.123,994.14,994.23,8.39,3.84,0.00,1.00,0.31,9.26,0.00,0.00,0.00,0.00
2026-06-26 17:54:23.125,994.14,994.23,8.39,3.84,0.00,1.00,0.31,9.26,0.00,0.00,0.00,0.00
2026-06-26 17:54:23.127,994.14,994.23,8.39,3.84,0.00,1.00,0.31,9.26,0.00,0.00,0.00,0.00
2026-06-26 17:54:23.131,994.14,994.23,8.39,3.84,0.00,1.00,0.31,9.26,-0.00,0.00,0.00,0.00
2026-06-26 17:54:23.133,994.14,994.23,8.39,3.84,0.00,1.01,0.28,9.28,-0.00,0.00,0.00,0.00
2026-06-26 17:54:23.135,994.14,994.23,8.39,3.84,0.00,1.01,0.28,9.28,-0.00,0.00,0.00,0.00
2026-06-26 17:54:23.140,994.14,994.23,8.39,3.84,0.00,1.01,0.28,9.28,-0.00,0.00,0.00,0.00
2026-06-26 17:54:23.142,994.14,994.23,8.39,3.84,0.00,1.01,0.27,9.26,-0.00,-0.00,0.00,0.00
2026-06-26 17:54:23.183,994.14,994.23,8.31,3.82,0.00,1.01,0.30,9.30,0.00,-0.00,0.00,0.00
2026-06-26 17:54:23.187,994.14,994.23,8.31,3.82,0.00,1.01,0.30,9.30,0.00,-0.00,0.00,0.00
2026-06-26 17:54:23.191,994.14,994.23,8.31,3.82,0.00,1.01,0.30,9.30,-0.00,-0.00,0.00,0.00
2026-06-26 17:54:23.192,994.14,994.23,8.31,3.82,0.00,1.02,0.27,9.26,-0.00,-0.00,0.00,0.00
2026-06-26 17:54:23.194,994.14,994.23,8.31,3.82,0.00,1.02,0.27,9.26,-0.00,-0.00,0.00,0.00
2026-06-26 17:54:23.197,994.14,994.23,8.31,3.82,0.00,1.02,0.27,9.26,-0.00,-0.00,0.00,0.00
2026-06-26 17:54:23.201,994.14,994.23,8.31,3.82,0.00,1.02,0.27,9.26,-0.00,-0.00,0.00,0.00
2026-06-26 17:54:23.202,994.14,994.23,8.31,3.82,0.00,1.01,0.28,9.24,-0.00,-0.00,0.00,0.00
2026-06-26 17:54:23.204,994.14,994.23,8.31,3.82,0.00,1.01,0.28,9.24,-0.00,-0.00,0.00,0.00
2026-06-26 17:54:23.205,994.14,994.23,8.31,3.82,0.00,1.01,0.28,9.24,-0.00,-0.00,0.00,0.00
2026-06-26 17:54:23.209,994.14,994.23,8.31,3.82,0.00,1.01,0.28,9.24,-0.00,-0.00,0.00,0.00
2026-06-26 17:54:23.213,994.14,994.23,8.31,3.82,0.00,1.02,0.28,9.27,0.00,-0.00,0.00,0.00
2026-06-26 17:54:23.214,994.14,994.23,8.31,3.82,0.00,1.02,0.28,9.27,0.00,-0.00,0.00,0.00
2026-06-26 17:54:23.220,994.14,994.23,8.31,3.82,0.00,1.02,0.28,9.27,0.00,-0.00,0.00,0.00
2026-06-26 17:54:23.263,994.14,994.23,8.41,3.84,0.00,1.02,0.28,9.28,0.00,0.00,-0.00,0.00
2026-06-26 17:54:23.264,994.14,994.23,8.41,3.84,0.00,1.02,0.28,9.28,0.00,0.00,-0.00,0.00
2026-06-26 17:54:23.268,994.14,994.23,8.41,3.84,0.00,1.02,0.28,9.28,0.00,0.00,-0.00,0.00
2026-06-26 17:54:23.271,994.14,994.23,8.41,3.84,0.00,1.02,0.28,9.28,0.00,-0.00,0.00,0.00
2026-06-26 17:54:23.273,994.14,994.23,8.41,3.84,0.00,1.01,0.29,9.28,0.00,-0.00,0.00,0.00
2026-06-26 17:54:23.274,994.14,994.23,8.41,3.84,0.00,1.01,0.29,9.28,0.00,-0.00,0.00,0.00
2026-06-26 17:54:23.275,994.14,994.23,8.41,3.84,0.00,1.01,0.29,9.28,0.00,-0.00,0.00,0.00
2026-06-26 17:54:23.276,994.14,994.23,8.41,3.84,0.00,1.01,0.29,9.28,0.00,-0.00,0.00,0.00
2026-06-26 17:54:23.278,994.14,994.23,8.41,3.84,0.00,1.01,0.29,9.28,0.00,-0.00,0.00,0.00
2026-06-26 17:54:23.279,994.14,994.23,8.41,3.84,0.00,1.01,0.29,9.28,0.00,-0.00,0.00,0.00
2026-06-26 17:54:23.281,994.14,994.23,8.41,3.84,0.00,1.02,0.27,9.28,-0.00,-0.00,0.00,0.00
2026-06-26 17:54:23.283,994.14,994.23,8.41,3.84,0.00,1.02,0.27,9.28,-0.00,-0.00,0.00,0.00
2026-06-26 17:54:23.326,994.14,994.22,8.06,3.76,0.00,1.02,0.28,9.29,-0.00,-0.00,0.00,0.00
2026-06-26 17:54:23.328,994.14,994.22,8.06,3.76,0.00,1.02,0.28,9.29,-0.00,-0.00,0.00,0.00
2026-06-26 17:54:23.331,994.14,994.22,8.06,3.76,0.00,1.02,0.28,9.29,-0.00,-0.00,-0.00,0.00
2026-06-26 17:54:23.332,994.14,994.22,8.06,3.76,0.00,1.04,0.29,9.27,-0.00,-0.00,-0.00,0.00
2026-06-26 17:54:23.334,994.14,994.22,8.06,3.76,0.00,1.04,0.29,9.27,-0.00,-0.00,-0.00,0.00
2026-06-26 17:54:23.335,994.14,994.22,8.06,3.76,0.00,1.04,0.29,9.27,-0.00,-0.00,-0.00,0.00
2026-06-26 17:54:23.340,994.14,994.22,8.06,3.76,0.00,1.04,0.29,9.27,-0.00,-0.00,-0.00,0.00
2026-06-26 17:54:23.342,994.14,994.22,8.06,3.76,0.00,1.03,0.29,9.28,0.00,0.00,-0.00,0.00
2026-06-26 17:54:23.343,994.14,994.22,8.06,3.76,0.00,1.03,0.29,9.28,0.00,0.00,-0.00,0.00
2026-06-26 17:54:23.345,994.14,994.22,8.06,3.76,0.00,1.03,0.29,9.28,0.00,0.00,-0.00,0.00
2026-06-26 17:54:23.351,994.14,994.22,8.06,3.76,0.00,1.03,0.29,9.28,0.00,0.00,-0.00,0.00
2026-06-26 17:54:23.352,994.14,994.22,8.06,3.76,0.00,1.03,0.28,9.30,0.00,0.00,0.00,0.00
2026-06-26 17:54:23.354,994.14,994.22,8.06,3.76,0.00,1.03,0.28,9.30,0.00,0.00,0.00,0.00
2026-06-26 17:54:23.356,994.14,994.22,8.06,3.76,0.00,1.03,0.28,9.30,0.00,0.00,0.00,0.00
2026-06-26 17:54:23.361,994.14,994.22,8.06,3.76,0.00,1.03,0.28,9.30,0.00,0.00,0.00,0.00
2026-06-26 17:54:23.362,994.14,994.22,8.06,3.76,0.00,1.03,0.27,9.30,0.00,0.00,0.00,0.00
2026-06-26 17:54:23.405,994.14,994.22,7.98,3.74,0.00,1.03,0.29,9.25,-0.00,0.00,0.00,0.00
2026-06-26 17:54:23.411,994.14,994.22,7.98,3.74,0.00,1.03,0.29,9.25,-0.00,0.00,0.00,0.00
2026-06-26 17:54:23.413,994.14,994.22,7.98,3.74,0.00,1.03,0.30,9.25,-0.00,-0.00,0.00,0.00
2026-06-26 17:54:23.415,994.14,994.22,7.98,3.74,0.00,1.03,0.30,9.25,-0.00,-0.00,0.00,0.00
2026-06-26 17:54:23.421,994.14,994.22,7.98,3.74,0.00,1.03,0.30,9.25,-0.00,-0.00,0.00,0.00
2026-06-26 17:54:23.423,994.14,994.22,7.98,3.74,0.00,1.02,0.28,9.28,0.00,0.00,0.00,0.00
2026-06-26 17:54:23.424,994.14,994.22,7.98,3.74,0.00,1.02,0.28,9.28,0.00,0.00,0.00,0.00
2026-06-26 17:54:23.426,994.14,994.22,7.98,3.74,0.00,1.02,0.28,9.28,0.00,0.00,0.00,0.00
2026-06-26 17:54:23.471,994.14,994.22,8.05,3.76,0.00,1.00,0.29,9.25,0.00,-0.00,0.00,0.00
2026-06-26 17:54:23.473,994.14,994.22,8.05,3.76,0.00,1.02,0.28,9.30,0.00,-0.00,0.00,0.00
2026-06-26 17:54:23.474,994.14,994.22,8.05,3.76,0.00,1.02,0.28,9.30,0.00,-0.00,0.00,0.00
2026-06-26 17:54:23.475,994.14,994.22,8.05,3.76,0.00,1.02,0.28,9.30,0.00,-0.00,0.00,0.00
2026-06-26 17:54:23.477,994.14,994.22,8.05,3.76,0.00,1.02,0.28,9.30,0.00,-0.00,0.00,0.00
2026-06-26 17:54:23.478,994.14,994.22,8.05,3.76,0.00,1.02,0.28,9.30,0.00,-0.00,0.00,0.00
2026-06-26 17:54:23.481,994.14,994.22,8.05,3.76,0.00,1.02,0.28,9.30,0.00,-0.00,0.00,0.00
2026-06-26 17:54:23.483,994.14,994.22,8.05,3.76,0.00,1.01,0.29,9.30,0.00,0.00,0.00,0.00
2026-06-26 17:54:23.484,994.14,994.22,8.05,3.76,0.00,1.01,0.29,9.30,0.00,0.00,0.00,0.00
2026-06-26 17:54:23.485,994.14,994.22,8.05,3.76,0.00,1.01,0.29,9.30,0.00,0.00,0.00,0.00
2026-06-26 17:54:23.489,994.14,994.22,8.05,3.76,0.00,1.01,0.29,9.30,0.00,0.00,0.00,0.00
2026-06-26 17:54:23.492,994.14,994.22,8.05,3.76,0.00,1.01,0.29,9.30,0.00,0.01,0.00,0.00
2026-06-26 17:54:23.494,994.14,994.22,8.05,3.76,0.00,1.01,0.27,9.27,0.00,0.01,0.00,0.00
2026-06-26 17:54:23.495,994.14,994.22,8.05,3.76,0.00,1.01,0.27,9.27,0.00,0.01,0.00,0.00
2026-06-26 17:54:23.502,994.14,994.22,8.05,3.76,0.00,1.01,0.27,9.27,0.00,0.01,0.00,0.00
2026-06-26 17:54:23.503,994.14,994.22,8.05,3.76,0.00,1.01,0.29,9.28,0.00,-0.00,0.00,0.00
2026-06-26 17:54:23.505,994.14,994.22,8.05,3.76,0.00,1.01,0.29,9.28,0.00,-0.00,0.00,0.00
2026-06-26 17:54:23.551,994.14,994.22,8.11,3.78,0.00,0.99,0.27,9.27,0.00,0.00,0.00,0.00
2026-06-26 17:54:23.553,994.14,994.22,8.11,3.78,0.00,1.01,0.26,9.27,0.00,-0.00,0.00,0.00
2026-06-26 17:54:23.554,994.14,994.22,8.11,3.78,0.00,1.01,0.26,9.27,0.00,-0.00,0.00,0.00
2026-06-26 17:54:23.555,994.14,994.22,8.11,3.78,0.00,1.01,0.26,9.27,0.00,-0.00,0.00,0.00
2026-06-26 17:54:23.556,994.14,994.22,8.11,3.78,0.00,1.01,0.26,9.27,0.00,-0.00,0.00,0.00
2026-06-26 17:54:23.561,994.14,994.22,8.11,3.78,0.00,1.01,0.26,9.27,0.00,-0.00,0.00,0.00
2026-06-26 17:54:23.563,994.14,994.22,8.11,3.78,0.00,0.99,0.30,9.27,-0.00,0.00,0.00,0.00
2026-06-26 17:54:23.567,994.14,994.22,8.11,3.78,0.00,0.99,0.30,9.27,-0.00,0.00,0.00,0.00
2026-06-26 17:54:23.612,994.14,994.23,8.21,3.80,0.00,0.99,0.29,9.27,-0.00,0.00,0.00,0.00
2026-06-26 17:54:23.613,994.14,994.23,8.21,3.80,0.00,0.99,0.27,9.27,-0.00,0.00,0.00,0.00
2026-06-26 17:54:23.615,994.14,994.23,8.21,3.80,0.00,0.99,0.27,9.27,-0.00,0.00,0.00,0.00
2026-06-26 17:54:23.616,994.14,994.23,8.21,3.80,0.00,0.99,0.27,9.27,-0.00,0.00,0.00,0.00
2026-06-26 17:54:23.621,994.14,994.23,8.21,3.80,0.00,0.99,0.27,9.27,-0.00,0.00,0.00,0.00
2026-06-26 17:54:23.622,994.14,994.23,8.21,3.80,0.00,0.98,0.31,9.28,0.00,-0.00,-0.00,0.00
2026-06-26 17:54:23.624,994.14,994.23,8.21,3.80,0.00,0.98,0.31,9.28,0.00,-0.00,-0.00,0.00
2026-06-26 17:54:23.625,994.14,994.23,8.21,3.80,0.00,0.98,0.31,9.28,0.00,-0.00,-0.00,0.00
2026-06-26 17:54:23.626,994.14,994.23,8.21,3.80,0.00,0.98,0.31,9.28,0.00,-0.00,-0.00,0.00
2026-06-26 17:54:23.628,994.14,994.23,8.21,3.80,0.00,0.98,0.31,9.28,0.00,-0.00,-0.00,0.00
2026-06-26 17:54:23.629,994.14,994.23,8.21,3.80,0.00,0.98,0.31,9.28,0.00,-0.00,-0.00,0.00
2026-06-26 17:54:23.633,994.14,994.23,8.21,3.80,0.00,0.98,0.31,9.28,0.00,-0.00,0.00,0.00
2026-06-26 17:54:23.634,994.14,994.23,8.21,3.80,0.00,1.01,0.29,9.27,0.00,-0.00,0.00,0.00
2026-06-26 17:54:23.636,994.14,994.23,8.21,3.80,0.00,1.01,0.29,9.27,0.00,-0.00,0.00,0.00
2026-06-26 17:54:23.641,994.14,994.23,8.21,3.80,0.00,1.01,0.29,9.27,0.00,-0.00,0.00,0.00
2026-06-26 17:54:23.643,994.14,994.23,8.21,3.80,0.00,1.00,0.29,9.28,0.00,0.00,-0.00,0.00
2026-06-26 17:54:23.644,994.14,994.23,8.21,3.80,0.00,1.00,0.29,9.28,0.00,0.00,-0.00,0.00
2026-06-26 17:54:23.646,994.14,994.23,8.21,3.80,0.00,1.00,0.29,9.28,0.00,0.00,-0.00,0.00
2026-06-26 17:54:23.692,994.15,994.23,7.96,3.74,0.00,1.01,0.29,9.27,0.00,0.00,-0.00,0.00
2026-06-26 17:54:23.693,994.15,994.23,7.96,3.74,0.00,1.02,0.26,9.30,-0.00,-0.00,-0.00,0.00
2026-06-26 17:54:23.694,994.15,994.23,7.96,3.74,0.00,1.02,0.26,9.30,-0.00,-0.00,-0.00,0.00
2026-06-26 17:54:23.696,994.15,994.23,7.96,3.74,0.00,1.02,0.26,9.30,-0.00,-0.00,-0.00,0.00
2026-06-26 17:54:23.700,994.15,994.23,7.96,3.74,0.00,1.02,0.26,9.30,-0.00,-0.00,-0.00,0.00
2026-06-26 17:54:23.702,994.15,994.23,7.96,3.74,0.00,1.00,0.31,9.26,-0.00,0.00,-0.00,0.00
2026-06-26 17:54:23.703,994.15,994.23,7.96,3.74,0.00,1.00,0.31,9.26,-0.00,0.00,-0.00,0.00
2026-06-26 17:54:23.705,994.15,994.23,7.96,3.74,0.00,1.00,0.31,9.26,-0.00,0.00,-0.00,0.00
2026-06-26 17:54:23.706,994.15,994.23,7.96,3.74,0.00,1.00,0.31,9.26,-0.00,0.00,-0.00,0.00
2026-06-26 17:54:23.711,994.15,994.23,7.96,3.74,0.00,1.00,0.31,9.26,-0.00,0.00,-0.00,0.00
2026-06-26 17:54:23.753,994.15,994.23,8.03,3.76,0.00,1.02,0.30,9.25,-0.00,-0.00,-0.00,0.00
2026-06-26 17:54:23.755,994.15,994.23,8.03,3.76,0.00,1.02,0.30,9.25,-0.00,-0.00,-0.00,0.00
2026-06-26 17:54:23.756,994.15,994.23,8.03,3.76,0.00,1.02,0.30,9.25,-0.00,-0.00,-0.00,0.00
2026-06-26 17:54:23.760,994.15,994.23,8.03,3.76,0.00,1.02,0.30,9.25,-0.00,-0.00,-0.00,0.00
2026-06-26 17:54:23.762,994.15,994.23,8.03,3.76,0.00,1.02,0.30,9.25,0.00,0.00,-0.00,0.00
2026-06-26 17:54:23.763,994.15,994.23,8.03,3.76,0.00,1.01,0.29,9.28,0.00,0.00,-0.00,0.00
2026-06-26 17:54:23.765,994.15,994.23,8.03,3.76,0.00,1.01,0.29,9.28,0.00,0.00,-0.00,0.00
2026-06-26 17:54:23.766,994.15,994.23,8.03,3.76,0.00,1.01,0.29,9.28,0.00,0.00,-0.00,0.00
2026-06-26 17:54:23.770,994.15,994.23,8.03,3.76,0.00,1.01,0.29,9.28,0.00,0.00,-0.00,0.00
2026-06-26 17:54:23.772,994.15,994.23,8.03,3.76,0.00,1.01,0.29,9.28,-0.00,0.00,-0.00,0.00
2026-06-26 17:54:23.774,994.15,994.23,8.03,3.76,0.00,1.02,0.28,9.26,-0.00,0.00,-0.00,0.00
2026-06-26 17:54:23.775,994.15,994.23,8.03,3.76,0.00,1.02,0.28,9.26,-0.00,0.00,-0.00,0.00
2026-06-26 17:54:23.777,994.15,994.23,8.03,3.76,0.00,1.02,0.28,9.26,-0.00,0.00,-0.00,0.00
2026-06-26 17:54:23.779,994.15,994.23,8.03,3.76,0.00,1.02,0.28,9.26,-0.00,0.00,-0.00,0.00
2026-06-26 17:54:23.782,994.15,994.23,8.03,3.76,0.00,1.02,0.28,9.26,-0.00,0.00,-0.00,0.00
2026-06-26 17:54:23.784,994.15,994.23,8.03,3.76,0.00,1.02,0.27,9.28,-0.00,0.00,-0.00,0.00
2026-06-26 17:54:23.785,994.15,994.23,8.03,3.76,0.00,1.02,0.27,9.28,-0.00,0.00,-0.00,0.00
2026-06-26 17:54:23.790,994.15,994.23,8.03,3.76,0.00,1.02,0.27,9.28,-0.00,0.00,-0.00,0.00
2026-06-26 17:54:23.833,994.14,994.23,8.27,3.81,0.00,1.03,0.28,9.28,-0.00,-0.00,0.00,0.00
2026-06-26 17:54:23.834,994.14,994.23,8.27,3.81,0.00,1.03,0.28,9.28,-0.00,-0.00,0.00,0.00
2026-06-26 17:54:23.835,994.14,994.23,8.27,3.81,0.00,1.03,0.28,9.28,-0.00,-0.00,0.00,0.00
2026-06-26 17:54:23.839,994.14,994.23,8.27,3.81,0.00,1.03,0.28,9.28,-0.00,-0.00,0.00,0.00
2026-06-26 17:54:23.842,994.14,994.23,8.27,3.81,0.00,1.03,0.28,9.28,0.00,-0.00,-0.00,0.00
2026-06-26 17:54:23.845,994.14,994.23,8.27,3.81,0.00,1.02,0.29,9.26,0.00,-0.00,-0.00,0.00
2026-06-26 17:54:23.851,994.14,994.23,8.27,3.81,0.00,1.02,0.29,9.26,0.00,-0.00,-0.00,0.00
2026-06-26 17:54:23.853,994.14,994.23,8.27,3.81,0.00,1.03,0.28,9.26,0.00,-0.00,-0.00,0.00
2026-06-26 17:54:23.895,994.14,994.23,8.36,3.83,0.00,1.04,0.30,9.27,-0.00,0.00,0.00,0.00
2026-06-26 17:54:23.896,994.14,994.23,8.36,3.83,0.00,1.04,0.30,9.27,-0.00,0.00,0.00,0.00
2026-06-26 17:54:23.902,994.14,994.23,8.36,3.83,0.00,1.04,0.30,9.27,-0.00,0.00,0.00,0.00
2026-06-26 17:54:23.905,994.14,994.23,8.36,3.83,0.00,1.01,0.28,9.26,0.00,0.00,-0.00,0.00
2026-06-26 17:54:23.909,994.14,994.23,8.36,3.83,0.00,1.01,0.28,9.26,0.00,0.00,-0.00,0.00
2026-06-26 17:54:23.913,994.14,994.23,8.36,3.83,0.00,1.01,0.28,9.26,0.00,-0.00,0.00,0.00
2026-06-26 17:54:23.915,994.14,994.23,8.36,3.83,0.00,1.02,0.29,9.28,0.00,-0.00,0.00,0.00
2026-06-26 17:54:23.916,994.14,994.23,8.36,3.83,0.00,1.02,0.29,9.28,0.00,-0.00,0.00,0.00
2026-06-26 17:54:23.922,994.14,994.23,8.36,3.83,0.00,1.02,0.29,9.28,0.00,-0.00,0.00,0.00
2026-06-26 17:54:23.924,994.14,994.23,8.36,3.83,0.00,1.00,0.29,9.30,0.00,-0.00,0.00,0.00
2026-06-26 17:54:23.925,994.14,994.23,8.36,3.83,0.00,1.00,0.29,9.30,0.00,-0.00,0.00,0.00
2026-06-26 17:54:23.928,994.14,994.23,8.36,3.83,0.00,1.00,0.29,9.30,0.00,-0.00,0.00,0.00
2026-06-26 17:54:23.929,994.14,994.23,8.36,3.83,0.00,1.00,0.29,9.30,0.00,-0.00,0.00,0.00
2026-06-26 17:54:23.932,994.14,994.23,8.36,3.83,0.00,1.00,0.29,9.30,0.00,0.00,-0.00,0.00
2026-06-26 17:54:23.975,994.14,994.23,8.53,3.87,0.00,1.03,0.28,9.30,0.00,0.00,-0.00,0.00
2026-06-26 17:54:23.976,994.14,994.23,8.53,3.87,0.00,1.03,0.28,9.30,0.00,0.00,-0.00,0.00
2026-06-26 17:54:23.977,994.14,994.23,8.53,3.87,0.00,1.03,0.28,9.30,0.00,0.00,-0.00,0.00
2026-06-26 17:54:23.979,994.14,994.23,8.53,3.87,0.00,1.03,0.28,9.30,0.00,0.00,-0.00,0.00
2026-06-26 17:54:23.980,994.14,994.23,8.53,3.87,0.00,1.03,0.28,9.30,0.00,0.00,-0.00,0.00
2026-06-26 17:54:23.982,994.14,994.23,8.53,3.87,0.00,1.03,0.28,9.30,0.00,-0.00,-0.00,0.00
2026-06-26 17:54:23.983,994.14,994.23,8.53,3.87,0.00,1.01,0.29,9.27,0.00,-0.00,-0.00,0.00
2026-06-26 17:54:23.985,994.14,994.23,8.53,3.87,0.00,1.01,0.29,9.27,0.00,-0.00,-0.00,0.00
2026-06-26 17:54:23.986,994.14,994.23,8.53,3.87,0.00,1.01,0.29,9.27,0.00,-0.00,-0.00,0.00
2026-06-26 17:54:23.990,994.14,994.23,8.53,3.87,0.00,1.01,0.29,9.27,0.00,-0.00,-0.00,0.00
2026-06-26 17:54:23.993,994.14,994.23,8.53,3.87,0.00,1.01,0.29,9.27,0.00,-0.00,0.00,0.00
2026-06-26 17:54:23.994,994.14,994.23,8.53,3.87,0.00,1.02,0.31,9.27,0.00,-0.00,0.00,0.00
2026-06-26 17:54:24.039,994.14,994.23,8.56,3.88,0.00,1.01,0.25,9.27,0.00,-0.00,0.00,0.00
2026-06-26 17:54:24.042,994.14,994.23,8.56,3.88,0.00,1.01,0.25,9.27,0.00,0.00,0.00,0.00
2026-06-26 17:54:24.044,994.14,994.23,8.56,3.88,0.00,1.02,0.29,9.27,0.00,0.00,0.00,0.00
2026-06-26 17:54:24.045,994.14,994.23,8.56,3.88,0.00,1.02,0.29,9.27,0.00,0.00,0.00,0.00
2026-06-26 17:54:24.046,994.14,994.23,8.56,3.88,0.00,1.02,0.29,9.27,0.00,0.00,0.00,0.00
2026-06-26 17:54:24.050,994.14,994.23,8.56,3.88,0.00,1.02,0.29,9.27,0.00,0.00,0.00,0.00
2026-06-26 17:54:24.053,994.14,994.23,8.56,3.88,0.00,1.02,0.29,9.27,0.00,-0.00,0.00,0.00
2026-06-26 17:54:24.054,994.14,994.23,8.56,3.88,0.00,0.99,0.30,9.26,0.00,-0.00,0.00,0.00
2026-06-26 17:54:24.055,994.14,994.23,8.56,3.88,0.00,0.99,0.30,9.26,0.00,-0.00,0.00,0.00
2026-06-26 17:54:24.057,994.14,994.23,8.56,3.88,0.00,0.99,0.30,9.26,0.00,-0.00,0.00,0.00
2026-06-26 17:54:24.061,994.14,994.23,8.56,3.88,0.00,0.99,0.30,9.26,0.00,-0.00,0.00,0.00
2026-06-26 17:54:24.066,994.14,994.23,8.56,3.88,0.00,1.02,0.29,9.28,0.00,-0.00,0.00,0.00
2026-06-26 17:54:24.072,994.14,994.23,8.56,3.88,0.00,1.02,0.29,9.28,0.00,-0.00,0.00,0.00
2026-06-26 17:54:24.074,994.14,994.23,8.56,3.88,0.00,1.01,0.31,9.27,0.00,0.00,0.00,0.00
2026-06-26 17:54:24.115,994.14,994.23,8.48,3.86,0.00,1.00,0.29,9.28,0.00,0.00,0.00,0.00
2026-06-26 17:54:24.118,994.14,994.23,8.48,3.86,0.00,1.00,0.29,9.28,0.00,0.00,0.00,0.00
2026-06-26 17:54:24.123,994.14,994.23,8.48,3.86,0.00,1.00,0.29,9.28,0.00,-0.00,0.00,0.00
2026-06-26 17:54:24.124,994.14,994.23,8.48,3.86,0.00,0.99,0.29,9.30,0.00,-0.00,0.00,0.00
2026-06-26 17:54:24.126,994.14,994.23,8.48,3.86,0.00,0.99,0.29,9.30,0.00,-0.00,0.00,0.00
2026-06-26 17:54:24.127,994.14,994.23,8.48,3.86,0.00,0.99,0.29,9.30,0.00,-0.00,0.00,0.00
2026-06-26 17:54:24.129,994.14,994.23,8.48,3.86,0.00,0.99,0.29,9.30,0.00,-0.00,0.00,0.00
2026-06-26 17:54:24.132,994.14,994.23,8.48,3.86,0.00,0.99,0.29,9.30,0.00,-0.00,0.00,0.00
2026-06-26 17:54:24.135,994.14,994.23,8.48,3.86,0.00,1.00,0.27,9.27,0.00,-0.00,0.00,0.00
2026-06-26 17:54:24.136,994.14,994.23,8.48,3.86,0.00,1.00,0.27,9.27,0.00,-0.00,0.00,0.00
2026-06-26 17:54:24.174,994.14,994.22,8.02,3.75,0.00,1.02,0.30,9.30,0.00,0.00,0.00,0.00
2026-06-26 17:54:24.175,994.14,994.22,8.02,3.75,0.00,1.02,0.30,9.30,0.00,0.00,0.00,0.00
2026-06-26 17:54:24.177,994.14,994.22,8.02,3.75,0.00,1.02,0.30,9.30,0.00,0.00,0.00,0.00
2026-06-26 17:54:24.179,994.14,994.22,8.02,3.75,0.00,1.02,0.30,9.30,0.00,0.00,0.00,0.00
2026-06-26 17:54:24.180,994.14,994.22,8.02,3.75,0.00,1.02,0.30,9.30,0.00,0.00,0.00,0.00
2026-06-26 17:54:24.183,994.14,994.22,8.02,3.75,0.00,1.02,0.30,9.30,0.00,0.00,-0.00,0.00
2026-06-26 17:54:24.185,994.14,994.22,8.02,3.75,0.00,1.01,0.29,9.29,0.00,0.00,-0.00,0.00
2026-06-26 17:54:24.192,994.14,994.22,8.02,3.75,0.00,1.01,0.29,9.29,0.00,0.00,-0.00,0.00
2026-06-26 17:54:24.194,994.14,994.22,8.02,3.75,0.00,0.99,0.29,9.27,0.00,0.00,0.00,0.00
2026-06-26 17:54:24.196,994.14,994.22,8.02,3.75,0.00,0.99,0.29,9.27,0.00,0.00,0.00,0.00
2026-06-26 17:54:24.199,994.14,994.22,8.02,3.75,0.00,0.99,0.29,9.27,0.00,0.00,0.00,0.00
2026-06-26 17:54:24.204,994.14,994.22,8.02,3.75,0.00,0.99,0.29,9.27,0.00,0.00,-0.00,0.00
2026-06-26 17:54:24.205,994.14,994.22,8.02,3.75,0.00,1.00,0.28,9.27,0.00,0.00,-0.00,0.00
2026-06-26 17:54:24.207,994.14,994.22,8.02,3.75,0.00,1.00,0.28,9.27,0.00,0.00,-0.00,0.00
2026-06-26 17:54:24.213,994.14,994.22,8.02,3.75,0.00,1.00,0.28,9.27,0.00,0.00,-0.00,0.00
2026-06-26 17:54:24.214,994.14,994.22,8.02,3.75,0.00,1.00,0.27,9.27,0.00,0.00,-0.00,0.00
2026-06-26 17:54:24.253,994.15,994.22,7.78,3.70,0.00,1.02,0.28,9.27,0.00,-0.00,0.00,0.00
2026-06-26 17:54:24.254,994.15,994.22,7.78,3.70,0.00,1.02,0.28,9.27,0.00,-0.00,0.00,0.00
2026-06-26 17:54:24.256,994.15,994.22,7.78,3.70,0.00,1.02,0.28,9.27,0.00,-0.00,0.00,0.00
2026-06-26 17:54:24.257,994.15,994.22,7.78,3.70,0.00,1.02,0.28,9.27,0.00,-0.00,0.00,0.00
2026-06-26 17:54:24.259,994.15,994.22,7.78,3.70,0.00,1.02,0.28,9.27,0.00,-0.00,0.00,0.00
2026-06-26 17:54:24.263,994.15,994.22,7.78,3.70,0.00,1.02,0.28,9.27,-0.00,-0.00,0.00,0.00
2026-06-26 17:54:24.264,994.15,994.22,7.78,3.70,0.00,1.01,0.28,9.25,-0.00,-0.00,0.00,0.00
2026-06-26 17:54:24.265,994.15,994.22,7.78,3.70,0.00,1.01,0.28,9.25,-0.00,-0.00,0.00,0.00
2026-06-26 17:54:24.267,994.15,994.22,7.78,3.70,0.00,1.01,0.28,9.25,-0.00,-0.00,0.00,0.00
2026-06-26 17:54:24.273,994.15,994.22,7.78,3.70,0.00,1.01,0.28,9.25,-0.00,-0.00,0.00,0.00
2026-06-26 17:54:24.315,994.15,994.22,7.67,3.67,0.00,1.01,0.28,9.26,0.00,0.00,-0.00,0.00
2026-06-26 17:54:24.316,994.15,994.22,7.67,3.67,0.00,1.01,0.28,9.26,0.00,0.00,-0.00,0.00
2026-06-26 17:54:24.320,994.15,994.22,7.67,3.67,0.00,1.01,0.28,9.26,0.00,0.00,-0.00,0.00
2026-06-26 17:54:24.323,994.15,994.22,7.67,3.67,0.00,1.01,0.28,9.26,-0.00,0.00,-0.00,0.00
2026-06-26 17:54:24.325,994.15,994.22,7.67,3.67,0.00,1.00,0.29,9.29,-0.00,0.00,-0.00,0.00
2026-06-26 17:54:24.326,994.15,994.22,7.67,3.67,0.00,1.00,0.29,9.29,-0.00,0.00,-0.00,0.00
2026-06-26 17:54:24.327,994.15,994.22,7.67,3.67,0.00,1.00,0.29,9.29,-0.00,0.00,-0.00,0.00
2026-06-26 17:54:24.328,994.15,994.22,7.67,3.67,0.00,1.00,0.29,9.29,-0.00,0.00,-0.00,0.00
2026-06-26 17:54:24.330,994.15,994.22,7.67,3.67,0.00,1.00,0.29,9.29,-0.00,0.00,-0.00,0.00
2026-06-26 17:54:24.333,994.15,994.22,7.67,3.67,0.00,1.00,0.29,9.29,-0.00,0.00,-0.00,0.00
2026-06-26 17:54:24.335,994.15,994.22,7.67,3.67,0.00,1.04,0.31,9.27,0.00,0.00,-0.00,0.00
2026-06-26 17:54:24.339,994.15,994.22,7.67,3.67,0.00,1.04,0.31,9.27,0.00,0.00,-0.00,0.00
2026-06-26 17:54:24.343,994.15,994.22,7.67,3.67,0.00,1.04,0.31,9.27,0.00,0.00,-0.00,0.00
2026-06-26 17:54:24.344,994.15,994.22,7.67,3.67,0.00,1.04,0.29,9.27,0.00,0.00,-0.00,0.00
2026-06-26 17:54:24.346,994.15,994.22,7.67,3.67,0.00,1.04,0.29,9.27,0.00,0.00,-0.00,0.00
2026-06-26 17:54:24.347,994.15,994.22,7.67,3.67,0.00,1.04,0.29,9.27,0.00,0.00,-0.00,0.00
2026-06-26 17:54:24.352,994.15,994.22,7.67,3.67,0.00,1.04,0.29,9.27,0.00,0.00,-0.00,0.00
2026-06-26 17:54:24.394,994.15,994.22,7.49,3.63,0.00,1.02,0.28,9.28,0.00,-0.00,0.00,0.00
2026-06-26 17:54:24.395,994.15,994.22,7.49,3.63,0.00,1.02,0.28,9.28,0.00,-0.00,0.00,0.00
2026-06-26 17:54:24.397,994.15,994.22,7.49,3.63,0.00,1.02,0.28,9.28,0.00,-0.00,0.00,0.00
2026-06-26 17:54:24.401,994.15,994.22,7.49,3.63,0.00,1.02,0.28,9.28,0.00,-0.00,0.00,0.00
2026-06-26 17:54:24.403,994.15,994.22,7.49,3.63,0.00,1.02,0.28,9.28,0.00,0.00,0.00,0.00
2026-06-26 17:54:24.405,994.15,994.22,7.49,3.63,0.00,1.01,0.28,9.27,0.00,0.00,0.00,0.00
2026-06-26 17:54:24.406,994.15,994.22,7.49,3.63,0.00,1.01,0.28,9.27,0.00,0.00,0.00,0.00
2026-06-26 17:54:24.407,994.15,994.22,7.49,3.63,0.00,1.01,0.28,9.27,0.00,0.00,0.00,0.00
2026-06-26 17:54:24.412,994.15,994.22,7.49,3.63,0.00,1.01,0.28,9.27,0.00,0.00,0.00,0.00
2026-06-26 17:54:24.414,994.15,994.22,7.49,3.63,0.00,1.01,0.28,9.26,0.00,-0.00,0.00,0.00
2026-06-26 17:54:24.453,994.15,994.23,7.93,3.73,0.00,1.01,0.28,9.29,0.00,0.00,0.00,0.00
2026-06-26 17:54:24.455,994.15,994.23,7.93,3.73,0.00,1.00,0.28,9.27,0.00,0.00,0.00,0.00
2026-06-26 17:54:24.456,994.15,994.23,7.93,3.73,0.00,1.00,0.28,9.27,0.00,0.00,0.00,0.00
2026-06-26 17:54:24.458,994.15,994.23,7.93,3.73,0.00,1.00,0.28,9.27,0.00,0.00,0.00,0.00
2026-06-26 17:54:24.463,994.15,994.23,7.93,3.73,0.00,1.00,0.28,9.27,0.00,0.00,0.00,0.00
2026-06-26 17:54:24.465,994.15,994.23,7.93,3.73,0.00,1.01,0.30,9.25,0.00,0.00,0.00,0.00
2026-06-26 17:54:24.466,994.15,994.23,7.93,3.73,0.00,1.01,0.30,9.25,0.00,0.00,0.00,0.00
2026-06-26 17:54:24.469,994.15,994.23,7.93,3.73,0.00,1.01,0.30,9.25,0.00,0.00,0.00,0.00
2026-06-26 17:54:24.473,994.15,994.23,7.93,3.73,0.00,1.01,0.30,9.25,0.00,-0.00,0.00,0.00
2026-06-26 17:54:24.476,994.15,994.23,7.93,3.73,0.00,0.98,0.29,9.31,0.00,-0.00,0.00,0.00
2026-06-26 17:54:24.477,994.15,994.23,7.93,3.73,0.00,0.98,0.29,9.31,0.00,-0.00,0.00,0.00
2026-06-26 17:54:24.479,994.15,994.23,7.93,3.73,0.00,0.98,0.29,9.31,0.00,-0.00,0.00,0.00
2026-06-26 17:54:24.480,994.15,994.23,7.93,3.73,0.00,0.98,0.29,9.31,0.00,-0.00,0.00,0.00
2026-06-26 17:54:24.483,994.15,994.23,7.93,3.73,0.00,0.98,0.29,9.31,0.00,-0.00,0.00,0.00
2026-06-26 17:54:24.485,994.15,994.23,7.93,3.73,0.00,1.01,0.30,9.29,0.00,0.00,0.00,0.00
2026-06-26 17:54:24.487,994.15,994.23,7.93,3.73,0.00,1.01,0.30,9.29,0.00,0.00,0.00,0.00
2026-06-26 17:54:24.491,994.15,994.23,7.93,3.73,0.00,1.01,0.30,9.29,0.00,0.00,0.00,0.00
2026-06-26 17:54:24.494,994.15,994.23,7.93,3.73,0.00,1.01,0.30,9.29,-0.00,0.00,0.00,0.00
2026-06-26 17:54:24.535,994.15,994.23,8.03,3.76,0.00,1.01,0.29,9.28,-0.00,0.00,0.00,0.00
2026-06-26 17:54:24.537,994.15,994.23,8.03,3.76,0.00,1.01,0.29,9.28,-0.00,0.00,0.00,0.00
2026-06-26 17:54:24.540,994.15,994.23,8.03,3.76,0.00,1.01,0.29,9.28,-0.00,0.00,0.00,0.00
2026-06-26 17:54:24.544,994.15,994.23,8.03,3.76,0.00,1.01,0.29,9.28,-0.00,0.00,0.00,0.00
2026-06-26 17:54:24.545,994.15,994.23,8.03,3.76,0.00,1.01,0.28,9.27,-0.00,0.00,0.00,0.00
2026-06-26 17:54:24.548,994.15,994.23,8.03,3.76,0.00,1.01,0.28,9.27,-0.00,0.00,0.00,0.00
2026-06-26 17:54:24.553,994.15,994.23,8.03,3.76,0.00,1.01,0.28,9.27,-0.00,0.00,0.00,0.00
2026-06-26 17:54:24.596,994.15,994.23,8.27,3.81,0.00,0.99,0.29,9.26,-0.00,-0.00,0.00,0.00
2026-06-26 17:54:24.597,994.15,994.23,8.27,3.81,0.00,0.99,0.29,9.26,-0.00,-0.00,0.00,0.00
2026-06-26 17:54:24.603,994.15,994.23,8.27,3.81,0.00,0.99,0.29,9.26,-0.00,-0.00,0.00,0.00
2026-06-26 17:54:24.604,994.15,994.23,8.27,3.81,0.00,1.00,0.27,9.30,-0.00,0.00,-0.00,0.00
2026-06-26 17:54:24.606,994.15,994.23,8.27,3.81,0.00,1.00,0.27,9.30,-0.00,0.00,-0.00,0.00
2026-06-26 17:54:24.607,994.15,994.23,8.27,3.81,0.00,1.00,0.27,9.30,-0.00,0.00,-0.00,0.00
2026-06-26 17:54:24.610,994.15,994.23,8.27,3.81,0.00,1.00,0.27,9.30,-0.00,0.00,-0.00,0.00
2026-06-26 17:54:24.615,994.15,994.23,8.27,3.81,0.00,1.00,0.27,9.30,0.00,0.00,-0.00,0.00
2026-06-26 17:54:24.616,994.15,994.23,8.27,3.81,0.00,1.01,0.29,9.27,0.00,0.00,-0.00,0.00
2026-06-26 17:54:24.620,994.15,994.23,8.27,3.81,0.00,1.01,0.29,9.27,0.00,0.00,-0.00,0.00
2026-06-26 17:54:24.624,994.15,994.23,8.27,3.81,0.00,1.01,0.29,9.27,-0.00,0.00,-0.00,0.00
2026-06-26 17:54:24.627,994.15,994.23,8.27,3.81,0.00,1.01,0.29,9.27,-0.00,0.00,-0.00,0.00
2026-06-26 17:54:24.628,994.15,994.23,8.27,3.81,0.00,1.01,0.29,9.27,-0.00,0.00,-0.00,0.00
2026-06-26 17:54:24.630,994.15,994.23,8.27,3.81,0.00,1.01,0.29,9.27,-0.00,0.00,-0.00,0.00
2026-06-26 17:54:24.632,994.15,994.23,8.27,3.81,0.00,1.01,0.29,9.27,-0.00,0.00,-0.00,0.00
2026-06-26 17:54:24.634,994.15,994.23,8.27,3.81,0.00,1.01,0.28,9.27,0.00,-0.00,-0.00,0.00
2026-06-26 17:54:24.676,994.15,994.23,8.06,3.76,0.00,1.02,0.29,9.28,-0.00,0.00,-0.00,0.00
2026-06-26 17:54:24.678,994.15,994.23,8.06,3.76,0.00,1.02,0.29,9.28,-0.00,0.00,-0.00,0.00
2026-06-26 17:54:24.679,994.15,994.23,8.06,3.76,0.00,1.02,0.29,9.28,-0.00,0.00,-0.00,0.00
2026-06-26 17:54:24.680,994.15,994.23,8.06,3.76,0.00,1.02,0.29,9.28,-0.00,0.00,-0.00,0.00
2026-06-26 17:54:24.683,994.15,994.23,8.06,3.76,0.00,1.02,0.29,9.28,-0.00,0.00,-0.00,0.00
2026-06-26 17:54:24.684,994.15,994.23,8.06,3.76,0.00,1.02,0.29,9.29,0.00,0.00,0.00,0.00
2026-06-26 17:54:24.685,994.15,994.23,8.06,3.76,0.00,1.02,0.29,9.29,0.00,0.00,0.00,0.00
2026-06-26 17:54:24.687,994.15,994.23,8.06,3.76,0.00,1.02,0.29,9.29,0.00,0.00,0.00,0.00
2026-06-26 17:54:24.688,994.15,994.23,8.06,3.76,0.00,1.02,0.29,9.29,0.00,0.00,0.00,0.00
2026-06-26 17:54:24.693,994.15,994.23,8.06,3.76,0.00,1.02,0.29,9.29,0.00,0.00,0.00,0.00
2026-06-26 17:54:24.695,994.15,994.23,8.06,3.76,0.00,0.98,0.28,9.26,-0.00,-0.00,-0.00,0.00
2026-06-26 17:54:24.737,994.15,994.23,8.24,3.80,0.00,1.01,0.28,9.29,0.00,0.00,-0.00,0.00
2026-06-26 17:54:24.741,994.15,994.23,8.24,3.80,0.00,1.01,0.28,9.29,0.00,0.00,-0.00,0.00
2026-06-26 17:54:24.744,994.15,994.23,8.24,3.80,0.00,1.01,0.28,9.29,-0.00,-0.00,0.00,0.00
2026-06-26 17:54:24.745,994.15,994.23,8.24,3.80,0.00,1.02,0.29,9.28,-0.00,-0.00,0.00,0.00
2026-06-26 17:54:24.747,994.15,994.23,8.24,3.80,0.00,1.02,0.29,9.28,-0.00,-0.00,0.00,0.00
2026-06-26 17:54:24.748,994.15,994.23,8.24,3.80,0.00,1.02,0.29,9.28,-0.00,-0.00,0.00,0.00
2026-06-26 17:54:24.752,994.15,994.23,8.24,3.80,0.00,1.02,0.29,9.28,-0.00,-0.00,0.00,0.00
2026-06-26 17:54:24.754,994.15,994.23,8.24,3.80,0.00,1.01,0.30,9.26,-0.00,-0.00,-0.00,0.00
2026-06-26 17:54:24.755,994.15,994.23,8.24,3.80,0.00,1.01,0.30,9.26,-0.00,-0.00,-0.00,0.00
2026-06-26 17:54:24.757,994.15,994.23,8.24,3.80,0.00,1.01,0.30,9.26,-0.00,-0.00,-0.00,0.00
2026-06-26 17:54:24.758,994.15,994.23,8.24,3.80,0.00,1.01,0.30,9.26,-0.00,-0.00,-0.00,0.00
2026-06-26 17:54:24.762,994.15,994.23,8.24,3.80,0.00,1.01,0.30,9.26,-0.00,-0.00,-0.00,0.00
2026-06-26 17:54:24.765,994.15,994.23,8.24,3.80,0.00,1.01,0.29,9.26,0.00,0.00,-0.00,0.00
2026-06-26 17:54:24.766,994.15,994.23,8.24,3.80,0.00,1.01,0.29,9.26,0.00,0.00,-0.00,0.00
2026-06-26 17:54:24.767,994.15,994.23,8.24,3.80,0.00,1.01,0.29,9.26,0.00,0.00,-0.00,0.00
2026-06-26 17:54:24.772,994.15,994.23,8.24,3.80,0.00,1.01,0.29,9.26,0.00,0.00,-0.00,0.00
2026-06-26 17:54:24.775,994.15,994.23,8.24,3.80,0.00,1.00,0.27,9.28,0.00,-0.00,-0.00,0.00
2026-06-26 17:54:24.777,994.15,994.23,8.24,3.80,0.00,1.00,0.27,9.28,0.00,-0.00,-0.00,0.00
2026-06-26 17:54:24.823,994.15,994.23,8.37,3.83,0.00,1.02,0.27,9.28,-0.00,0.00,-0.00,0.00
2026-06-26 17:54:24.825,994.15,994.23,8.37,3.83,0.00,1.01,0.30,9.26,-0.00,0.00,0.00,0.00
2026-06-26 17:54:24.827,994.15,994.23,8.37,3.83,0.00,1.01,0.30,9.26,-0.00,0.00,0.00,0.00
2026-06-26 17:54:24.828,994.15,994.23,8.37,3.83,0.00,1.01,0.30,9.26,-0.00,0.00,0.00,0.00
2026-06-26 17:54:24.830,994.15,994.23,8.37,3.83,0.00,1.01,0.30,9.26,-0.00,0.00,0.00,0.00
2026-06-26 17:54:24.834,994.15,994.23,8.37,3.83,0.00,1.01,0.30,9.26,0.00,0.00,-0.00,0.00
2026-06-26 17:54:24.835,994.15,994.23,8.37,3.83,0.00,1.00,0.31,9.29,0.00,0.00,-0.00,0.00
2026-06-26 17:54:24.878,994.15,994.23,8.13,3.78,0.00,1.02,0.26,9.29,-0.00,0.00,-0.00,0.00
2026-06-26 17:54:24.880,994.15,994.23,8.13,3.78,0.00,1.02,0.26,9.29,-0.00,0.00,-0.00,0.00
2026-06-26 17:54:24.882,994.15,994.23,8.13,3.78,0.00,1.02,0.26,9.29,-0.00,0.00,-0.00,0.00
2026-06-26 17:54:24.884,994.15,994.23,8.13,3.78,0.00,1.02,0.26,9.29,-0.00,-0.00,-0.00,0.00
2026-06-26 17:54:24.886,994.15,994.23,8.13,3.78,0.00,1.00,0.28,9.30,-0.00,-0.00,-0.00,0.00
2026-06-26 17:54:24.887,994.15,994.23,8.13,3.78,0.00,1.00,0.28,9.30,-0.00,-0.00,-0.00,0.00
2026-06-26 17:54:24.890,994.15,994.23,8.13,3.78,0.00,1.00,0.28,9.30,-0.00,-0.00,-0.00,0.00
2026-06-26 17:54:24.894,994.15,994.23,8.13,3.78,0.00,1.00,0.28,9.30,-0.00,-0.00,-0.00,0.00
2026-06-26 17:54:24.896,994.15,994.23,8.13,3.78,0.00,1.00,0.28,9.33,-0.00,-0.00,-0.00,0.00
2026-06-26 17:54:24.897,994.15,994.23,8.13,3.78,0.00,1.00,0.28,9.33,-0.00,-0.00,-0.00,0.00
2026-06-26 17:54:24.902,994.15,994.23,8.13,3.78,0.00,1.00,0.28,9.33,-0.00,-0.00,-0.00,0.00
2026-06-26 17:54:24.905,994.15,994.23,8.13,3.78,0.00,0.98,0.30,9.25,-0.00,-0.00,-0.00,0.00
2026-06-26 17:54:24.906,994.15,994.23,8.13,3.78,0.00,0.98,0.30,9.25,-0.00,-0.00,-0.00,0.00
2026-06-26 17:54:24.907,994.15,994.23,8.13,3.78,0.00,0.98,0.30,9.25,-0.00,-0.00,-0.00,0.00
2026-06-26 17:54:24.911,994.15,994.23,8.13,3.78,0.00,0.98,0.30,9.25,-0.00,-0.00,-0.00,0.00
2026-06-26 17:54:24.915,994.15,994.23,8.13,3.78,0.00,0.98,0.30,9.25,-0.00,-0.00,-0.00,0.00
2026-06-26 17:54:24.917,994.15,994.23,8.13,3.78,0.00,0.99,0.28,9.27,-0.00,-0.00,-0.00,0.00
2026-06-26 17:54:24.961,994.15,994.23,7.95,3.74,0.00,1.01,0.29,9.27,0.00,0.00,-0.01,0.00
2026-06-26 17:54:24.964,994.15,994.23,7.95,3.74,0.00,1.01,0.29,9.27,0.00,0.00,-0.00,0.00
2026-06-26 17:54:24.966,994.15,994.23,7.95,3.74,0.00,1.04,0.30,9.27,0.00,0.00,-0.00,0.00
2026-06-26 17:54:24.967,994.15,994.23,7.95,3.74,0.00,1.04,0.30,9.27,0.00,0.00,-0.00,0.00
2026-06-26 17:54:24.968,994.15,994.23,7.95,3.74,0.00,1.04,0.30,9.27,0.00,0.00,-0.00,0.00
2026-06-26 17:54:24.972,994.15,994.23,7.95,3.74,0.00,1.04,0.30,9.27,0.00,0.00,-0.00,0.00
2026-06-26 17:54:24.975,994.15,994.23,7.95,3.74,0.00,1.04,0.30,9.27,-0.00,0.00,-0.00,0.00
2026-06-26 17:54:24.977,994.15,994.23,7.95,3.74,0.00,1.01,0.30,9.26,-0.00,0.00,-0.00,0.00
2026-06-26 17:54:25.015,994.15,994.23,7.89,3.72,0.00,0.99,0.27,9.26,0.00,0.00,-0.00,0.00
2026-06-26 17:54:25.016,994.15,994.23,7.89,3.72,0.00,0.99,0.27,9.26,0.00,0.00,-0.00,0.00
2026-06-26 17:54:25.018,994.15,994.23,7.89,3.72,0.00,0.99,0.27,9.26,0.00,0.00,-0.00,0.00
2026-06-26 17:54:25.019,994.15,994.23,7.89,3.72,0.00,0.99,0.27,9.26,0.00,0.00,-0.00,0.00
2026-06-26 17:54:25.024,994.15,994.23,7.89,3.72,0.00,0.99,0.27,9.26,0.00,0.00,-0.00,0.00
2026-06-26 17:54:25.026,994.15,994.23,7.89,3.72,0.00,1.00,0.29,9.29,0.00,-0.00,0.00,0.00
2026-06-26 17:54:25.027,994.15,994.23,7.89,3.72,0.00,1.00,0.29,9.29,0.00,-0.00,0.00,0.00
2026-06-26 17:54:25.028,994.15,994.23,7.89,3.72,0.00,1.00,0.29,9.29,0.00,-0.00,0.00,0.00
2026-06-26 17:54:25.029,994.15,994.23,7.89,3.72,0.00,1.00,0.29,9.29,0.00,-0.00,0.00,0.00
2026-06-26 17:54:25.031,994.15,994.23,7.89,3.72,0.00,1.00,0.29,9.29,0.00,-0.00,0.00,0.00
2026-06-26 17:54:25.032,994.15,994.23,7.89,3.72,0.00,1.00,0.29,9.29,0.00,-0.00,0.00,0.00
2026-06-26 17:54:25.035,994.15,994.23,7.89,3.72,0.00,1.00,0.29,9.29,0.00,-0.00,-0.00,0.00
2026-06-26 17:54:25.037,994.15,994.23,7.89,3.72,0.00,1.02,0.27,9.27,0.00,-0.00,-0.00,0.00
2026-06-26 17:54:25.040,994.15,994.23,7.89,3.72,0.00,1.02,0.27,9.27,0.00,-0.00,-0.00,0.00
2026-06-26 17:54:25.045,994.15,994.23,7.89,3.72,0.00,1.02,0.27,9.27,-0.00,-0.00,0.00,0.00
2026-06-26 17:54:25.047,994.15,994.23,7.89,3.72,0.00,1.02,0.27,9.28,-0.00,-0.00,0.00,0.00
2026-06-26 17:54:25.048,994.15,994.23,7.89,3.72,0.00,1.02,0.27,9.28,-0.00,-0.00,0.00,0.00
2026-06-26 17:54:25.054,994.15,994.23,7.89,3.72,0.00,1.02,0.27,9.28,-0.00,-0.00,0.00,0.00
2026-06-26 17:54:25.056,994.15,994.23,7.89,3.72,0.00,1.01,0.26,9.26,0.00,0.00,-0.00,0.00
2026-06-26 17:54:25.057,994.15,994.23,7.89,3.72,0.00,1.01,0.26,9.26,0.00,0.00,-0.00,0.00
2026-06-26 17:54:25.059,994.15,994.23,7.89,3.72,0.00,1.01,0.26,9.26,0.00,0.00,-0.00,0.00
2026-06-26 17:54:25.104,994.15,994.23,8.19,3.79,0.00,1.02,0.29,9.29,0.00,0.00,0.00,0.00
2026-06-26 17:54:25.106,994.15,994.23,8.19,3.79,0.00,1.02,0.30,9.28,-0.00,0.00,0.00,0.00
2026-06-26 17:54:25.107,994.15,994.23,8.19,3.79,0.00,1.02,0.30,9.28,-0.00,0.00,0.00,0.00
2026-06-26 17:54:25.108,994.15,994.23,8.19,3.79,0.00,1.02,0.30,9.28,-0.00,0.00,0.00,0.00
2026-06-26 17:54:25.112,994.15,994.23,8.19,3.79,0.00,1.02,0.30,9.28,-0.00,0.00,0.00,0.00
2026-06-26 17:54:25.115,994.15,994.23,8.19,3.79,0.00,1.02,0.30,9.28,0.00,0.00,0.00,0.00
2026-06-26 17:54:25.157,994.15,994.23,8.78,3.93,0.00,0.99,0.30,9.28,0.00,0.00,0.00,0.00
2026-06-26 17:54:25.164,994.15,994.23,8.78,3.93,0.00,0.99,0.30,9.28,0.00,0.00,0.00,0.00
2026-06-26 17:54:25.166,994.15,994.23,8.78,3.93,0.00,1.01,0.29,9.27,0.00,0.00,0.00,0.00
2026-06-26 17:54:25.168,994.15,994.23,8.78,3.93,0.00,1.01,0.29,9.27,0.00,0.00,0.00,0.00
2026-06-26 17:54:25.175,994.15,994.23,8.78,3.93,0.00,1.01,0.29,9.27,0.00,0.00,0.00,0.00
2026-06-26 17:54:25.177,994.15,994.23,8.78,3.93,0.00,1.01,0.30,9.26,0.00,0.00,0.00,0.00
2026-06-26 17:54:25.178,994.15,994.23,8.78,3.93,0.00,1.01,0.30,9.26,0.00,0.00,0.00,0.00
2026-06-26 17:54:25.180,994.15,994.23,8.78,3.93,0.00,1.01,0.30,9.26,0.00,0.00,0.00,0.00
2026-06-26 17:54:25.182,994.15,994.23,8.78,3.93,0.00,1.01,0.30,9.26,0.00,0.00,0.00,0.00
2026-06-26 17:54:25.185,994.15,994.23,8.78,3.93,0.00,1.01,0.30,9.26,0.00,0.00,0.00,0.00
2026-06-26 17:54:25.187,994.15,994.23,8.78,3.93,0.00,1.01,0.29,9.31,0.00,0.00,0.00,0.00
2026-06-26 17:54:25.189,994.15,994.23,8.78,3.93,0.00,1.01,0.29,9.31,0.00,0.00,0.00,0.00
2026-06-26 17:54:25.195,994.15,994.23,8.78,3.93,0.00,1.01,0.29,9.31,0.00,0.00,0.00,0.00
2026-06-26 17:54:25.197,994.15,994.23,8.78,3.93,0.00,1.00,0.29,9.29,0.00,0.00,0.00,0.00
2026-06-26 17:54:25.201,994.15,994.23,8.78,3.93,0.00,1.00,0.29,9.29,0.00,0.00,0.00,0.00
2026-06-26 17:54:25.246,994.15,994.23,8.57,3.88,0.00,1.01,0.29,9.26,-0.00,0.00,0.00,0.00
2026-06-26 17:54:25.248,994.15,994.23,8.57,3.88,0.00,1.01,0.29,9.26,-0.00,0.00,0.00,0.00
2026-06-26 17:54:25.254,994.15,994.23,8.57,3.88,0.00,1.01,0.29,9.26,-0.00,0.00,0.00,0.00
2026-06-26 17:54:25.256,994.15,994.23,8.57,3.88,0.00,1.01,0.29,9.27,0.00,0.00,0.00,0.00
2026-06-26 17:54:25.303,994.15,994.23,8.04,3.76,0.00,1.02,0.29,9.28,-0.00,0.00,0.00,0.00
2026-06-26 17:54:25.305,994.15,994.23,8.04,3.76,0.00,1.01,0.29,9.27,0.00,0.00,0.00,0.00
2026-06-26 17:54:25.307,994.15,994.23,8.04,3.76,0.00,1.01,0.29,9.27,0.00,0.00,0.00,0.00
2026-06-26 17:54:25.309,994.15,994.23,8.04,3.76,0.00,1.01,0.29,9.27,0.00,0.00,0.00,0.00
2026-06-26 17:54:25.315,994.15,994.23,8.04,3.76,0.00,1.01,0.29,9.27,0.00,0.00,0.00,0.00
2026-06-26 17:54:25.317,994.15,994.23,8.04,3.76,0.00,0.99,0.28,9.27,-0.00,0.00,0.00,0.00
2026-06-26 17:54:25.318,994.15,994.23,8.04,3.76,0.00,0.99,0.28,9.27,-0.00,0.00,0.00,0.00
2026-06-26 17:54:25.322,994.15,994.23,8.04,3.76,0.00,0.99,0.28,9.27,-0.00,0.00,0.00,0.00
2026-06-26 17:54:25.325,994.15,994.23,8.04,3.76,0.00,0.99,0.28,9.27,0.00,0.00,0.00,0.00
2026-06-26 17:54:25.327,994.15,994.23,8.04,3.76,0.00,1.01,0.28,9.29,0.00,0.00,0.00,0.00
2026-06-26 17:54:25.330,994.15,994.23,8.04,3.76,0.00,1.01,0.28,9.29,0.00,0.00,0.00,0.00
2026-06-26 17:54:25.331,994.15,994.23,8.04,3.76,0.00,1.01,0.28,9.29,0.00,0.00,0.00,0.00
2026-06-26 17:54:25.335,994.15,994.23,8.04,3.76,0.00,1.01,0.28,9.29,0.00,0.00,0.00,0.00
2026-06-26 17:54:25.339,994.15,994.23,8.04,3.76,0.00,1.00,0.30,9.27,0.00,0.00,0.00,0.00
2026-06-26 17:54:25.345,994.15,994.23,8.04,3.76,0.00,1.00,0.30,9.27,0.00,0.00,0.00,0.00
2026-06-26 17:54:25.395,994.14,994.23,8.72,3.91,0.00,1.01,0.29,9.28,0.00,0.00,0.00,0.00
2026-06-26 17:54:25.397,994.14,994.23,8.72,3.91,0.00,0.99,0.27,9.29,0.00,0.00,0.00,0.00
2026-06-26 17:54:25.405,994.14,994.23,8.72,3.91,0.00,0.99,0.27,9.29,0.00,0.00,0.00,0.00
2026-06-26 17:54:25.448,994.14,994.23,8.82,3.94,0.00,1.02,0.30,9.28,-0.00,0.00,0.00,0.00
2026-06-26 17:54:25.451,994.14,994.23,8.82,3.94,0.00,1.02,0.30,9.28,-0.00,0.00,0.00,0.00
2026-06-26 17:54:25.455,994.14,994.23,8.82,3.94,0.00,1.02,0.30,9.28,0.00,-0.00,0.00,0.00
2026-06-26 17:54:25.457,994.14,994.23,8.82,3.94,0.00,1.01,0.30,9.25,0.00,-0.00,0.00,0.00
2026-06-26 17:54:25.458,994.14,994.23,8.82,3.94,0.00,1.01,0.30,9.25,0.00,-0.00,0.00,0.00
2026-06-26 17:54:25.460,994.14,994.23,8.82,3.94,0.00,1.01,0.30,9.25,0.00,-0.00,0.00,0.00
2026-06-26 17:54:25.465,994.14,994.23,8.82,3.94,0.00,1.01,0.30,9.25,0.00,-0.00,0.00,0.00
2026-06-26 17:54:25.467,994.14,994.23,8.82,3.94,0.00,1.00,0.28,9.27,0.00,0.00,-0.00,0.00
2026-06-26 17:54:25.469,994.14,994.23,8.82,3.94,0.00,1.00,0.28,9.27,0.00,0.00,-0.00,0.00
2026-06-26 17:54:25.475,994.14,994.23,8.82,3.94,0.00,1.00,0.28,9.27,0.00,0.00,-0.00,0.00
2026-06-26 17:54:25.477,994.14,994.23,8.82,3.94,0.00,1.02,0.29,9.27,-0.00,0.00,0.00,0.00
2026-06-26 17:54:25.478,994.14,994.23,8.82,3.94,0.00,1.02,0.29,9.27,-0.00,0.00,0.00,0.00
2026-06-26 17:54:25.480,994.14,994.23,8.82,3.94,0.00,1.02,0.29,9.27,-0.00,0.00,0.00,0.00
2026-06-26 17:54:25.482,994.14,994.23,8.82,3.94,0.00,1.02,0.29,9.27,-0.00,0.00,0.00,0.00
2026-06-26 17:54:25.486,994.14,994.23,8.82,3.94,0.00,1.02,0.29,9.27,-0.00,0.00,-0.00,0.00
2026-06-26 17:54:25.487,994.14,994.23,8.82,3.94,0.00,1.01,0.29,9.30,-0.00,0.00,-0.00,0.00
2026-06-26 17:54:25.536,994.14,994.23,9.05,3.99,0.00,1.04,0.29,9.27,-0.00,0.00,0.00,0.00
2026-06-26 17:54:25.538,994.14,994.23,9.05,3.99,0.00,1.01,0.27,9.27,-0.00,0.00,0.00,0.00
2026-06-26 17:54:25.543,994.14,994.23,9.05,3.99,0.00,1.01,0.27,9.27,-0.00,0.00,0.00,0.00
2026-06-26 17:54:25.546,994.14,994.23,9.05,3.99,0.00,1.01,0.27,9.27,0.00,0.00,0.00,0.00
2026-06-26 17:54:25.595,994.14,994.23,9.29,4.04,0.00,1.03,0.29,9.30,-0.00,0.00,0.00,0.00
2026-06-26 17:54:25.597,994.14,994.23,9.29,4.04,0.00,1.04,0.28,9.28,-0.00,0.00,0.00,0.00
2026-06-26 17:54:25.599,994.14,994.23,9.29,4.04,0.00,1.04,0.28,9.28,-0.00,0.00,0.00,0.00
2026-06-26 17:54:25.603,994.14,994.23,9.29,4.04,0.00,1.04,0.28,9.28,-0.00,0.00,0.00,0.00
2026-06-26 17:54:25.606,994.14,994.23,9.29,4.04,0.00,1.04,0.28,9.28,0.00,0.00,-0.00,0.00
2026-06-26 17:54:25.608,994.14,994.23,9.29,4.04,0.00,1.02,0.30,9.26,0.00,0.00,-0.00,0.00
2026-06-26 17:54:25.609,994.14,994.23,9.29,4.04,0.00,1.02,0.30,9.26,0.00,0.00,-0.00,0.00
2026-06-26 17:54:25.615,994.14,994.23,9.29,4.04,0.00,1.02,0.30,9.26,0.00,0.00,-0.00,0.00
2026-06-26 17:54:25.617,994.14,994.23,9.29,4.04,0.00,1.03,0.29,9.26,0.00,0.00,0.00,0.00
2026-06-26 17:54:25.619,994.14,994.23,9.29,4.04,0.00,1.03,0.29,9.26,0.00,0.00,0.00,0.00
2026-06-26 17:54:25.623,994.14,994.23,9.29,4.04,0.00,1.03,0.29,9.26,0.00,0.00,0.00,0.00
2026-06-26 17:54:25.626,994.14,994.23,9.29,4.04,0.00,1.03,0.29,9.26,0.00,0.00,0.00,0.00
2026-06-26 17:54:25.629,994.14,994.23,9.29,4.04,0.00,1.05,0.28,9.28,0.00,0.00,0.00,0.00
2026-06-26 17:54:25.636,994.14,994.23,9.29,4.04,0.00,1.05,0.28,9.28,0.00,0.00,0.00,0.00
2026-06-26 17:54:25.676,994.14,994.23,9.39,4.06,0.00,1.01,0.28,9.24,0.00,0.00,0.00,0.00
2026-06-26 17:54:25.678,994.14,994.23,9.39,4.06,0.00,1.02,0.29,9.27,0.00,0.00,0.00,0.00
2026-06-26 17:54:25.680,994.14,994.23,9.39,4.06,0.00,1.02,0.29,9.27,0.00,0.00,0.00,0.00
2026-06-26 17:54:25.682,994.14,994.23,9.39,4.06,0.00,1.02,0.29,9.27,0.00,0.00,0.00,0.00
2026-06-26 17:54:25.686,994.14,994.23,9.39,4.06,0.00,1.02,0.29,9.27,0.00,0.00,0.00,0.00
2026-06-26 17:54:25.688,994.14,994.23,9.39,4.06,0.00,1.03,0.28,9.29,0.00,-0.00,0.00,0.00
2026-06-26 17:54:25.694,994.14,994.23,9.39,4.06,0.00,1.03,0.28,9.29,0.00,-0.00,0.00,0.00
2026-06-26 17:54:25.736,994.14,994.23,9.50,4.08,0.00,1.00,0.29,9.29,0.00,-0.00,0.00,0.00
2026-06-26 17:54:25.738,994.14,994.23,9.50,4.08,0.00,1.00,0.30,9.29,0.00,-0.00,0.00,0.00
2026-06-26 17:54:25.739,994.14,994.23,9.50,4.08,0.00,1.00,0.30,9.29,0.00,-0.00,0.00,0.00
2026-06-26 17:54:25.744,994.14,994.23,9.50,4.08,0.00,1.00,0.30,9.29,0.00,-0.00,0.00,0.00
2026-06-26 17:54:25.746,994.14,994.23,9.50,4.08,0.00,1.00,0.30,9.29,0.00,-0.00,0.00,0.00
2026-06-26 17:54:25.748,994.14,994.23,9.50,4.08,0.00,1.01,0.30,9.29,0.00,-0.00,0.00,0.00
2026-06-26 17:54:25.750,994.14,994.23,9.50,4.08,0.00,1.01,0.30,9.29,0.00,-0.00,0.00,0.00
2026-06-26 17:54:25.755,994.14,994.23,9.50,4.08,0.00,1.01,0.30,9.29,0.00,-0.00,0.00,0.00
2026-06-26 17:54:25.757,994.14,994.23,9.50,4.08,0.00,1.00,0.30,9.27,0.00,0.00,0.00,0.00
2026-06-26 17:54:25.759,994.14,994.23,9.50,4.08,0.00,1.00,0.30,9.27,0.00,0.00,0.00,0.00
2026-06-26 17:54:25.760,994.14,994.23,9.50,4.08,0.00,1.00,0.30,9.27,0.00,0.00,0.00,0.00
2026-06-26 17:54:25.766,994.14,994.23,9.50,4.08,0.00,1.00,0.30,9.27,0.00,0.00,0.00,0.00
2026-06-26 17:54:25.768,994.14,994.23,9.50,4.08,0.00,1.01,0.29,9.27,0.00,0.00,0.00,0.00
2026-06-26 17:54:25.770,994.14,994.23,9.50,4.08,0.00,1.01,0.29,9.27,0.00,0.00,0.00,0.00
2026-06-26 17:54:25.776,994.14,994.23,9.50,4.08,0.00,1.01,0.29,9.27,0.00,0.00,0.00,0.00
2026-06-26 17:54:25.819,994.14,994.23,9.22,4.02,0.00,1.00,0.27,9.26,0.00,0.00,0.00,0.00
2026-06-26 17:54:25.826,994.14,994.23,9.22,4.02,0.00,1.00,0.27,9.26,0.00,0.00,0.00,0.00
2026-06-26 17:54:25.828,994.14,994.23,9.22,4.02,0.00,1.01,0.28,9.26,0.00,0.00,0.00,0.00
2026-06-26 17:54:25.830,994.14,994.23,9.22,4.02,0.00,1.01,0.28,9.26,0.00,0.00,0.00,0.00
2026-06-26 17:54:25.832,994.14,994.23,9.22,4.02,0.00,1.01,0.28,9.26,0.00,0.00,0.00,0.00
2026-06-26 17:54:25.836,994.14,994.23,9.22,4.02,0.00,1.01,0.28,9.26,0.00,0.00,0.00,0.00
2026-06-26 17:54:25.878,994.14,994.23,9.22,4.02,0.00,1.00,0.28,9.28,-0.00,0.00,0.00,0.00
2026-06-26 17:54:25.880,994.14,994.23,9.22,4.02,0.00,1.00,0.28,9.28,-0.00,0.00,0.00,0.00
2026-06-26 17:54:25.885,994.14,994.23,9.22,4.02,0.00,1.00,0.28,9.28,-0.00,0.00,0.00,0.00
2026-06-26 17:54:25.887,994.14,994.23,9.22,4.02,0.00,0.99,0.30,9.31,0.00,0.00,-0.00,0.00
2026-06-26 17:54:25.889,994.14,994.23,9.22,4.02,0.00,0.99,0.30,9.31,0.00,0.00,-0.00,0.00
2026-06-26 17:54:25.890,994.14,994.23,9.22,4.02,0.00,0.99,0.30,9.31,0.00,0.00,-0.00,0.00
2026-06-26 17:54:25.896,994.14,994.23,9.22,4.02,0.00,0.99,0.30,9.31,0.00,0.00,-0.00,0.00
2026-06-26 17:54:25.898,994.14,994.23,9.22,4.02,0.00,1.01,0.28,9.30,0.00,-0.00,-0.00,0.00
2026-06-26 17:54:25.899,994.14,994.23,9.22,4.02,0.00,1.01,0.28,9.30,0.00,-0.00,-0.00,0.00
2026-06-26 17:54:25.906,994.14,994.23,9.22,4.02,0.00,1.01,0.28,9.30,0.00,-0.00,-0.00,0.00
2026-06-26 17:54:25.908,994.14,994.23,9.22,4.02,0.00,1.01,0.28,9.25,0.00,0.00,-0.00,0.00
2026-06-26 17:54:25.910,994.14,994.23,9.22,4.02,0.00,1.01,0.28,9.25,0.00,0.00,-0.00,0.00
2026-06-26 17:54:25.916,994.14,994.23,9.22,4.02,0.00,1.01,0.28,9.25,0.00,0.00,-0.00,0.00
2026-06-26 17:54:25.917,994.14,994.23,9.22,4.02,0.00,1.02,0.28,9.27,-0.00,-0.00,-0.00,0.00
2026-06-26 17:54:25.957,994.14,994.23,9.18,4.02,0.00,1.02,0.30,9.27,0.00,0.00,0.00,0.00
2026-06-26 17:54:25.959,994.14,994.23,9.18,4.02,0.00,1.02,0.30,9.27,0.00,0.00,0.00,0.00
2026-06-26 17:54:25.960,994.14,994.23,9.18,4.02,0.00,1.02,0.30,9.27,0.00,0.00,0.00,0.00
2026-06-26 17:54:25.965,994.14,994.23,9.18,4.02,0.00,1.02,0.30,9.27,0.00,0.00,0.00,0.00
2026-06-26 17:54:25.967,994.14,994.23,9.18,4.02,0.00,1.03,0.29,9.28,0.00,-0.00,0.00,0.00
2026-06-26 17:54:25.969,994.14,994.23,9.18,4.02,0.00,1.03,0.29,9.28,0.00,-0.00,0.00,0.00
2026-06-26 17:54:25.970,994.14,994.23,9.18,4.02,0.00,1.03,0.29,9.28,0.00,-0.00,0.00,0.00
2026-06-26 17:54:25.976,994.14,994.23,9.18,4.02,0.00,1.03,0.29,9.28,0.00,-0.00,0.00,0.00
2026-06-26 17:54:25.978,994.14,994.23,9.18,4.02,0.00,1.01,0.29,9.26,0.00,-0.00,0.00,0.00
2026-06-26 17:54:26.026,994.14,994.23,8.72,3.91,0.00,1.03,0.28,9.29,0.00,0.00,0.00,0.00
2026-06-26 17:54:26.027,994.14,994.23,8.72,3.91,0.00,1.04,0.30,9.28,0.00,0.00,0.00,0.00
2026-06-26 17:54:26.029,994.14,994.23,8.72,3.91,0.00,1.04,0.30,9.28,0.00,0.00,0.00,0.00
2026-06-26 17:54:26.031,994.14,994.23,8.72,3.91,0.00,1.04,0.30,9.28,0.00,0.00,0.00,0.00
2026-06-26 17:54:26.032,994.14,994.23,8.72,3.91,0.00,1.04,0.30,9.28,0.00,0.00,0.00,0.00
2026-06-26 17:54:26.034,994.14,994.23,8.72,3.91,0.00,1.04,0.30,9.28,0.00,0.00,0.00,0.00
2026-06-26 17:54:26.037,994.14,994.23,8.72,3.91,0.00,1.04,0.30,9.28,0.00,-0.00,0.00,0.00
2026-06-26 17:54:26.038,994.14,994.23,8.72,3.91,0.00,1.02,0.29,9.31,0.00,-0.00,0.00,0.00
2026-06-26 17:54:26.040,994.14,994.23,8.72,3.91,0.00,1.02,0.29,9.31,0.00,-0.00,0.00,0.00
2026-06-26 17:54:26.047,994.14,994.23,8.72,3.91,0.00,1.02,0.29,9.31,0.00,0.00,0.00,0.00
2026-06-26 17:54:26.049,994.14,994.23,8.72,3.91,0.00,1.02,0.30,9.29,0.00,0.00,0.00,0.00
2026-06-26 17:54:26.052,994.14,994.23,8.72,3.91,0.00,1.02,0.30,9.29,0.00,0.00,0.00,0.00
2026-06-26 17:54:26.057,994.14,994.23,8.72,3.91,0.00,1.02,0.30,9.29,0.00,-0.00,0.00,0.00
2026-06-26 17:54:26.100,994.14,994.23,9.02,3.98,0.00,1.02,0.29,9.26,-0.00,0.00,0.00,0.00
2026-06-26 17:54:26.106,994.14,994.23,9.02,3.98,0.00,1.02,0.29,9.26,-0.00,0.00,0.00,0.00
2026-06-26 17:54:26.108,994.14,994.23,9.02,3.98,0.00,1.02,0.28,9.25,0.00,-0.00,0.00,0.00
2026-06-26 17:54:26.109,994.14,994.23,9.02,3.98,0.00,1.02,0.28,9.25,0.00,-0.00,0.00,0.00
2026-06-26 17:54:26.112,994.14,994.23,9.02,3.98,0.00,1.02,0.28,9.25,0.00,-0.00,0.00,0.00
2026-06-26 17:54:26.117,994.14,994.23,9.02,3.98,0.00,1.02,0.28,9.25,-0.00,0.00,0.00,0.00
2026-06-26 17:54:26.118,994.14,994.23,9.02,3.98,0.00,1.01,0.29,9.27,-0.00,0.00,0.00,0.00
2026-06-26 17:54:26.120,994.14,994.23,9.02,3.98,0.00,1.01,0.29,9.27,-0.00,0.00,0.00,0.00
2026-06-26 17:54:26.168,994.14,994.23,8.84,3.94,0.00,1.02,0.28,9.26,0.00,0.00,0.00,0.00
2026-06-26 17:54:26.170,994.14,994.23,8.84,3.94,0.00,1.01,0.30,9.29,0.00,0.00,0.00,0.00
2026-06-26 17:54:26.175,994.14,994.23,8.84,3.94,0.00,1.01,0.30,9.29,0.00,0.00,0.00,0.00
2026-06-26 17:54:26.178,994.14,994.23,8.84,3.94,0.00,1.01,0.30,9.28,0.00,0.00,0.00,0.00
2026-06-26 17:54:26.179,994.14,994.23,8.84,3.94,0.00,1.01,0.30,9.28,0.00,0.00,0.00,0.00
2026-06-26 17:54:26.181,994.14,994.23,8.84,3.94,0.00,1.01,0.30,9.28,0.00,0.00,0.00,0.00
2026-06-26 17:54:26.182,994.14,994.23,8.84,3.94,0.00,1.01,0.30,9.28,0.00,0.00,0.00,0.00
2026-06-26 17:54:26.184,994.14,994.23,8.84,3.94,0.00,1.01,0.30,9.28,0.00,0.00,0.00,0.00
2026-06-26 17:54:26.187,994.14,994.23,8.84,3.94,0.00,1.01,0.30,9.28,0.00,0.00,0.00,0.00
2026-06-26 17:54:26.189,994.14,994.23,8.84,3.94,0.00,1.01,0.28,9.29,0.00,0.00,0.00,0.00
2026-06-26 17:54:26.190,994.14,994.23,8.84,3.94,0.00,1.01,0.28,9.29,0.00,0.00,0.00,0.00
2026-06-26 17:54:26.197,994.14,994.23,8.84,3.94,0.00,1.01,0.28,9.29,0.00,0.00,0.00,0.00
2026-06-26 17:54:26.198,994.14,994.23,8.84,3.94,0.00,1.04,0.30,9.25,0.00,0.01,0.00,0.00
2026-06-26 17:54:26.245,994.14,994.23,8.60,3.89,0.00,1.01,0.31,9.28,-0.00,0.00,0.00,0.00
2026-06-26 17:54:26.247,994.14,994.23,8.60,3.89,0.00,1.02,0.28,9.27,-0.00,0.00,0.00,0.00
2026-06-26 17:54:26.249,994.14,994.23,8.60,3.89,0.00,1.02,0.28,9.27,-0.00,0.00,0.00,0.00
2026-06-26 17:54:26.251,994.14,994.23,8.60,3.89,0.00,1.02,0.28,9.27,-0.00,0.00,0.00,0.00
2026-06-26 17:54:26.256,994.14,994.23,8.60,3.89,0.00,1.02,0.28,9.27,-0.00,0.00,0.00,0.00
2026-06-26 17:54:26.258,994.14,994.23,8.60,3.89,0.00,1.00,0.29,9.27,0.00,0.00,0.00,0.00
2026-06-26 17:54:26.260,994.14,994.23,8.60,3.89,0.00,1.00,0.29,9.27,0.00,0.00,0.00,0.00
2026-06-26 17:54:26.262,994.14,994.23,8.60,3.89,0.00,1.00,0.29,9.27,0.00,0.00,0.00,0.00
2026-06-26 17:54:26.307,994.14,994.23,8.78,3.93,0.00,1.01,0.28,9.29,0.00,0.00,0.00,0.00
2026-06-26 17:54:26.308,994.14,994.23,8.78,3.93,0.00,1.03,0.28,9.27,-0.00,0.00,-0.00,0.00
2026-06-26 17:54:26.310,994.14,994.23,8.78,3.93,0.00,1.03,0.28,9.27,-0.00,0.00,-0.00,0.00
2026-06-26 17:54:26.314,994.14,994.23,8.78,3.93,0.00,1.03,0.28,9.27,-0.00,0.00,-0.00,0.00
2026-06-26 17:54:26.318,994.14,994.23,8.78,3.93,0.00,1.03,0.28,9.27,0.00,0.00,0.00,0.00
2026-06-26 17:54:26.319,994.14,994.23,8.78,3.93,0.00,1.00,0.30,9.28,0.00,0.00,0.00,0.00
2026-06-26 17:54:26.322,994.14,994.23,8.78,3.93,0.00,1.00,0.30,9.28,0.00,0.00,0.00,0.00
2026-06-26 17:54:26.327,994.14,994.23,8.78,3.93,0.00,1.00,0.30,9.28,0.00,0.00,0.00,0.00
2026-06-26 17:54:26.329,994.14,994.23,8.78,3.93,0.00,1.03,0.29,9.28,0.00,0.00,0.00,0.00
2026-06-26 17:54:26.331,994.14,994.23,8.78,3.93,0.00,1.03,0.29,9.28,0.00,0.00,0.00,0.00
2026-06-26 17:54:26.332,994.14,994.23,8.78,3.93,0.00,1.03,0.29,9.28,0.00,0.00,0.00,0.00
2026-06-26 17:54:26.334,994.14,994.23,8.78,3.93,0.00,1.03,0.29,9.28,0.00,0.00,0.00,0.00
2026-06-26 17:54:26.337,994.14,994.23,8.78,3.93,0.00,1.03,0.29,9.28,-0.00,0.00,-0.00,0.00
2026-06-26 17:54:26.339,994.14,994.23,8.78,3.93,0.00,1.03,0.27,9.30,-0.00,0.00,-0.00,0.00
2026-06-26 17:54:26.341,994.14,994.23,8.78,3.93,0.00,1.03,0.27,9.30,-0.00,0.00,-0.00,0.00
2026-06-26 17:54:26.381,994.14,994.23,8.87,3.95,0.00,1.03,0.28,9.27,0.00,0.00,0.00,0.00
2026-06-26 17:54:26.383,994.14,994.23,8.87,3.95,0.00,1.03,0.28,9.27,0.00,0.00,0.00,0.00
2026-06-26 17:54:26.387,994.14,994.23,8.87,3.95,0.00,1.03,0.28,9.27,0.00,0.00,0.00,0.00
2026-06-26 17:54:26.388,994.14,994.23,8.87,3.95,0.00,1.02,0.29,9.26,0.00,0.00,0.00,0.00
2026-06-26 17:54:26.390,994.14,994.23,8.87,3.95,0.00,1.02,0.29,9.26,0.00,0.00,0.00,0.00
2026-06-26 17:54:26.394,994.14,994.23,8.87,3.95,0.00,1.02,0.29,9.26,0.00,0.00,0.00,0.00
2026-06-26 17:54:26.398,994.14,994.23,8.87,3.95,0.00,1.02,0.29,9.26,0.00,-0.01,0.00,0.00
2026-06-26 17:54:26.400,994.14,994.23,8.87,3.95,0.00,1.01,0.29,9.29,0.00,-0.01,0.00,0.00
2026-06-26 17:54:26.404,994.14,994.23,8.87,3.95,0.00,1.01,0.29,9.29,0.00,-0.01,0.00,0.00
2026-06-26 17:54:26.448,994.14,994.23,8.73,3.92,0.00,1.01,0.28,9.27,0.00,0.00,0.00,0.00
2026-06-26 17:54:26.449,994.14,994.23,8.73,3.92,0.00,1.01,0.28,9.27,0.00,0.00,0.00,0.00
2026-06-26 17:54:26.451,994.14,994.23,8.73,3.92,0.00,1.01,0.28,9.27,0.00,0.00,0.00,0.00
2026-06-26 17:54:26.457,994.14,994.23,8.73,3.92,0.00,1.01,0.28,9.27,0.00,0.00,0.00,0.00
2026-06-26 17:54:26.461,994.14,994.23,8.73,3.92,0.00,1.01,0.28,9.27,-0.00,-0.00,0.00,0.00
2026-06-26 17:54:26.467,994.14,994.23,8.73,3.92,0.00,1.01,0.28,9.27,-0.00,-0.00,0.00,0.00
2026-06-26 17:54:26.470,994.14,994.23,8.73,3.92,0.00,0.99,0.28,9.27,-0.00,-0.00,-0.00,0.00
2026-06-26 17:54:26.475,994.14,994.23,8.73,3.92,0.00,0.99,0.28,9.27,-0.00,-0.00,-0.00,0.00
2026-06-26 17:54:26.478,994.14,994.23,8.73,3.92,0.00,1.01,0.29,9.30,-0.00,0.00,0.00,0.00
2026-06-26 17:54:26.480,994.14,994.23,8.73,3.92,0.00,1.01,0.29,9.30,-0.00,0.00,0.00,0.00
2026-06-26 17:54:26.527,994.14,994.23,8.62,3.89,0.00,0.99,0.29,9.27,-0.00,0.00,-0.00,0.00
2026-06-26 17:54:26.529,994.14,994.23,8.62,3.89,0.00,1.00,0.28,9.26,-0.00,0.00,0.00,0.00
2026-06-26 17:54:26.531,994.14,994.23,8.62,3.89,0.00,1.00,0.28,9.26,-0.00,0.00,0.00,0.00
2026-06-26 17:54:26.534,994.14,994.23,8.62,3.89,0.00,1.00,0.28,9.26,-0.00,0.00,0.00,0.00
2026-06-26 17:54:26.538,994.14,994.23,8.62,3.89,0.00,1.01,0.29,9.29,-0.00,0.00,0.00,0.00
2026-06-26 17:54:26.540,994.14,994.23,8.62,3.89,0.00,1.01,0.29,9.29,-0.00,0.00,0.00,0.00
2026-06-26 17:54:26.546,994.14,994.23,8.62,3.89,0.00,1.01,0.29,9.29,-0.00,0.00,0.00,0.00
2026-06-26 17:54:26.590,994.14,994.23,8.98,3.97,0.00,1.02,0.28,9.26,0.00,0.00,0.00,0.00
2026-06-26 17:54:26.595,994.14,994.23,8.98,3.97,0.00,1.02,0.28,9.26,0.00,0.00,0.00,0.00
2026-06-26 17:54:26.598,994.14,994.23,8.98,3.97,0.00,1.02,0.28,9.26,-0.00,-0.00,-0.00,0.00
2026-06-26 17:54:26.600,994.14,994.23,8.98,3.97,0.00,1.00,0.31,9.27,-0.00,-0.00,-0.00,0.00
2026-06-26 17:54:26.601,994.14,994.23,8.98,3.97,0.00,1.00,0.31,9.27,-0.00,-0.00,-0.00,0.00
2026-06-26 17:54:26.607,994.14,994.23,8.98,3.97,0.00,1.00,0.31,9.27,-0.00,-0.00,-0.00,0.00
2026-06-26 17:54:26.609,994.14,994.23,8.98,3.97,0.00,1.00,0.29,9.27,-0.00,-0.00,-0.00,0.00
2026-06-26 17:54:26.611,994.14,994.23,8.98,3.97,0.00,1.00,0.29,9.27,-0.00,-0.00,-0.00,0.00
2026-06-26 17:54:26.617,994.14,994.23,8.98,3.97,0.00,1.00,0.29,9.27,-0.00,-0.00,-0.00,0.00
2026-06-26 17:54:26.619,994.14,994.23,8.98,3.97,0.00,1.00,0.27,9.27,0.00,-0.00,-0.00,0.00
2026-06-26 17:54:26.621,994.14,994.23,8.98,3.97,0.00,1.00,0.27,9.27,0.00,-0.00,-0.00,0.00
2026-06-26 17:54:26.629,994.14,994.23,8.98,3.97,0.00,1.00,0.27,9.27,0.00,-0.00,-0.00,0.00
2026-06-26 17:54:26.677,994.14,994.23,9.07,3.99,0.00,1.01,0.29,9.29,-0.00,0.00,-0.00,0.00
2026-06-26 17:54:26.679,994.14,994.23,9.07,3.99,0.00,1.00,0.31,9.27,-0.00,-0.00,-0.00,0.00
2026-06-26 17:54:26.680,994.14,994.23,9.07,3.99,0.00,1.00,0.31,9.27,-0.00,-0.00,-0.00,0.00
2026-06-26 17:54:26.682,994.14,994.23,9.07,3.99,0.00,1.00,0.31,9.27,-0.00,-0.00,-0.00,0.00
2026-06-26 17:54:26.683,994.14,994.23,9.07,3.99,0.00,1.00,0.31,9.27,-0.00,-0.00,-0.00,0.00
2026-06-26 17:54:26.685,994.14,994.23,9.07,3.99,0.00,1.00,0.31,9.27,-0.00,-0.00,-0.00,0.00
2026-06-26 17:54:26.688,994.14,994.23,9.07,3.99,0.00,1.00,0.31,9.27,0.00,-0.00,-0.00,0.00
2026-06-26 17:54:26.690,994.14,994.23,9.07,3.99,0.00,1.02,0.29,9.27,0.00,-0.00,-0.00,0.00
2026-06-26 17:54:26.733,994.14,994.23,9.14,4.01,0.00,1.03,0.29,9.27,0.00,-0.00,-0.00,0.00
2026-06-26 17:54:26.737,994.14,994.23,9.14,4.01,0.00,1.03,0.29,9.27,-0.00,0.00,-0.00,0.00
2026-06-26 17:54:26.739,994.14,994.23,9.14,4.01,0.00,1.02,0.28,9.28,-0.00,0.00,-0.00,0.00
2026-06-26 17:54:26.741,994.14,994.23,9.14,4.01,0.00,1.02,0.28,9.28,-0.00,0.00,-0.00,0.00
2026-06-26 17:54:26.745,994.14,994.23,9.14,4.01,0.00,1.02,0.28,9.28,-0.00,0.00,-0.00,0.00
2026-06-26 17:54:26.748,994.14,994.23,9.14,4.01,0.00,1.02,0.28,9.28,0.00,0.00,-0.00,0.00
2026-06-26 17:54:26.750,994.14,994.23,9.14,4.01,0.00,1.02,0.29,9.29,0.00,0.00,-0.00,0.00
2026-06-26 17:54:26.751,994.14,994.23,9.14,4.01,0.00,1.02,0.29,9.29,0.00,0.00,-0.00,0.00
2026-06-26 17:54:26.757,994.14,994.23,9.14,4.01,0.00,1.02,0.29,9.29,0.00,0.00,-0.00,0.00
2026-06-26 17:54:26.760,994.14,994.23,9.14,4.01,0.00,1.04,0.28,9.25,0.00,-0.00,-0.00,0.00
2026-06-26 17:54:26.762,994.14,994.23,9.14,4.01,0.00,1.04,0.28,9.25,0.00,-0.00,-0.00,0.00
2026-06-26 17:54:26.768,994.14,994.23,9.14,4.01,0.00,1.04,0.28,9.25,0.00,-0.00,-0.00,0.00
2026-06-26 17:54:26.770,994.14,994.23,9.14,4.01,0.00,1.03,0.30,9.29,0.00,-0.00,-0.00,0.00
2026-06-26 17:54:26.776,994.14,994.23,9.14,4.01,0.00,1.03,0.30,9.29,0.00,-0.00,-0.00,0.00
2026-06-26 17:54:26.819,994.14,994.23,8.97,3.97,0.00,1.03,0.29,9.30,0.00,0.00,0.00,0.00
2026-06-26 17:54:26.821,994.14,994.23,8.97,3.97,0.00,1.03,0.29,9.30,0.00,0.00,0.00,0.00
2026-06-26 17:54:26.823,994.14,994.23,8.97,3.97,0.00,1.03,0.29,9.30,0.00,0.00,0.00,0.00
2026-06-26 17:54:26.828,994.14,994.23,8.97,3.97,0.00,1.03,0.29,9.30,-0.00,0.00,0.00,0.00
2026-06-26 17:54:26.830,994.14,994.23,8.97,3.97,0.00,1.02,0.28,9.28,-0.00,0.00,0.00,0.00
2026-06-26 17:54:26.832,994.14,994.23,8.97,3.97,0.00,1.02,0.28,9.28,-0.00,0.00,0.00,0.00
2026-06-26 17:54:26.878,994.14,994.23,8.55,3.88,0.00,1.03,0.30,9.26,0.00,0.00,0.00,0.00
2026-06-26 17:54:26.880,994.14,994.23,8.55,3.88,0.00,1.03,0.29,9.28,0.00,0.00,0.00,0.00
2026-06-26 17:54:26.882,994.14,994.23,8.55,3.88,0.00,1.03,0.29,9.28,0.00,0.00,0.00,0.00
2026-06-26 17:54:26.884,994.14,994.23,8.55,3.88,0.00,1.03,0.29,9.28,0.00,0.00,0.00,0.00
2026-06-26 17:54:26.885,994.14,994.23,8.55,3.88,0.00,1.03,0.29,9.28,0.00,0.00,0.00,0.00
2026-06-26 17:54:26.888,994.14,994.23,8.55,3.88,0.00,1.03,0.29,9.28,0.00,-0.00,0.00,0.00
2026-06-26 17:54:26.890,994.14,994.23,8.55,3.88,0.00,1.03,0.29,9.27,0.00,-0.00,0.00,0.00
2026-06-26 17:54:26.892,994.14,994.23,8.55,3.88,0.00,1.03,0.29,9.27,0.00,-0.00,0.00,0.00
2026-06-26 17:54:26.898,994.14,994.23,8.55,3.88,0.00,1.03,0.29,9.27,0.00,-0.00,0.00,0.00
2026-06-26 17:54:26.906,994.14,994.23,8.55,3.88,0.00,1.03,0.28,9.27,0.00,0.00,0.00,0.00
2026-06-26 17:54:26.909,994.14,994.23,8.55,3.88,0.00,1.03,0.30,9.27,0.00,-0.00,0.00,0.00
2026-06-26 17:54:26.911,994.14,994.23,8.55,3.88,0.00,1.03,0.30,9.27,0.00,-0.00,0.00,0.00
2026-06-26 17:54:26.918,994.14,994.23,8.55,3.88,0.00,1.03,0.30,9.27,0.00,-0.00,0.00,0.00
2026-06-26 17:54:26.960,994.14,994.23,8.38,3.84,0.00,1.04,0.31,9.25,0.00,0.00,0.00,0.00
2026-06-26 17:54:26.962,994.14,994.23,8.38,3.84,0.00,1.04,0.31,9.25,0.00,0.00,0.00,0.00
2026-06-26 17:54:26.968,994.14,994.23,8.38,3.84,0.00,1.04,0.31,9.25,0.00,0.00,0.00,0.00
2026-06-26 17:54:26.969,994.14,994.23,8.38,3.84,0.00,1.06,0.31,9.28,0.00,-0.00,0.00,0.00
2026-06-26 17:54:26.971,994.14,994.23,8.38,3.84,0.00,1.06,0.31,9.28,0.00,-0.00,0.00,0.00
2026-06-26 17:54:26.975,994.14,994.23,8.38,3.84,0.00,1.06,0.31,9.28,0.00,-0.00,0.00,0.00
2026-06-26 17:54:27.019,994.14,994.23,8.97,3.97,0.00,1.03,0.28,9.28,0.00,0.00,0.01,0.00
2026-06-26 17:54:27.021,994.14,994.23,8.97,3.97,0.00,1.03,0.28,9.28,0.00,0.00,0.01,0.00
2026-06-26 17:54:27.022,994.14,994.23,8.97,3.97,0.00,1.03,0.28,9.28,0.00,0.00,0.01,0.00
2026-06-26 17:54:27.028,994.14,994.23,8.97,3.97,0.00,1.03,0.28,9.28,0.00,0.00,0.01,0.00
2026-06-26 17:54:27.030,994.14,994.23,8.97,3.97,0.00,1.02,0.29,9.30,0.00,0.01,0.01,0.00
2026-06-26 17:54:27.032,994.14,994.23,8.97,3.97,0.00,1.02,0.29,9.30,0.00,0.01,0.01,0.00
2026-06-26 17:54:27.033,994.14,994.23,8.97,3.97,0.00,1.02,0.29,9.30,0.00,0.01,0.01,0.00
2026-06-26 17:54:27.035,994.14,994.23,8.97,3.97,0.00,1.02,0.29,9.30,0.00,0.01,0.01,0.00
2026-06-26 17:54:27.038,994.14,994.23,8.97,3.97,0.00,1.02,0.29,9.30,0.00,0.01,0.01,0.00
2026-06-26 17:54:27.040,994.14,994.23,8.97,3.97,0.00,1.01,0.30,9.27,-0.00,0.01,0.00,0.00
2026-06-26 17:54:27.042,994.14,994.23,8.97,3.97,0.00,1.01,0.30,9.27,-0.00,0.01,0.00,0.00
2026-06-26 17:54:27.048,994.14,994.23,8.97,3.97,0.00,1.01,0.30,9.27,-0.00,0.01,0.00,0.00
2026-06-26 17:54:27.050,994.14,994.23,8.97,3.97,0.00,1.00,0.30,9.28,0.00,-0.00,0.00,0.00
2026-06-26 17:54:27.052,994.14,994.23,8.97,3.97,0.00,1.00,0.30,9.28,0.00,-0.00,0.00,0.00
2026-06-26 17:54:27.058,994.14,994.23,8.97,3.97,0.00,1.00,0.30,9.28,0.00,-0.00,0.00,0.00
2026-06-26 17:54:27.060,994.14,994.23,8.97,3.97,0.00,0.99,0.27,9.30,0.00,0.00,0.00,0.00
2026-06-26 17:54:27.108,994.15,994.23,8.73,3.92,0.00,0.90,0.29,9.25,-0.00,-0.00,0.00,0.00
2026-06-26 17:54:27.111,994.15,994.23,8.73,3.92,0.00,0.98,0.27,9.28,0.00,0.00,0.00,0.00
