timestamp,pressure_mpl,pressure_bme,diff_pressure,v_wind_est,speed,accel_x,accel_y,accel_z,gyro_x,gyro_y,gyro_z
2026-06-23 20:09:15.228,990.00,991.59,158.63,16.69,0.00,0.66,0.39,9.28,0.00,0.00,0.00
2026-06-23 20:09:15.232,990.00,991.59,158.63,16.69,0.00,0.66,0.39,9.28,0.00,0.00,0.00
2026-06-23 20:09:15.235,990.00,991.59,158.63,16.69,0.00,0.66,0.39,9.28,0.00,0.00,0.00
2026-06-23 20:09:15.237,990.00,991.59,158.63,16.69,0.00,0.67,0.37,9.27,0.00,0.00,0.00
2026-06-23 20:09:15.238,990.00,991.59,158.63,16.69,0.00,0.67,0.37,9.27,0.00,0.00,0.00
2026-06-23 20:09:15.239,990.00,991.59,158.63,16.69,0.00,0.67,0.37,9.27,0.00,0.00,0.00
2026-06-23 20:09:15.241,990.00,991.59,158.63,16.69,0.00,0.67,0.37,9.27,0.00,0.00,0.00
2026-06-23 20:09:15.245,990.00,991.59,158.63,16.69,0.00,0.67,0.37,9.27,-0.00,0.00,0.00
2026-06-23 20:09:15.246,990.00,991.59,158.63,16.69,0.00,0.65,0.37,9.31,-0.00,0.00,0.00
2026-06-23 20:09:15.248,990.00,991.59,158.63,16.69,0.00,0.65,0.37,9.31,-0.00,0.00,0.00
2026-06-23 20:09:15.251,990.00,991.59,158.63,16.69,0.00,0.65,0.37,9.31,-0.00,0.00,0.00
2026-06-23 20:09:15.255,990.00,991.59,158.63,16.69,0.00,0.65,0.37,9.31,0.00,-0.00,0.00
2026-06-23 20:09:15.256,990.00,991.59,158.63,16.69,0.00,0.66,0.39,9.29,0.00,-0.00,0.00
2026-06-23 20:09:15.258,990.00,991.59,158.63,16.69,0.00,0.66,0.39,9.29,0.00,-0.00,0.00
2026-06-23 20:09:15.259,990.00,991.59,158.63,16.69,0.00,0.66,0.39,9.29,0.00,-0.00,0.00
2026-06-23 20:09:15.260,990.00,991.59,158.63,16.69,0.00,0.66,0.39,9.29,0.00,-0.00,0.00
2026-06-23 20:09:15.261,990.00,991.59,158.63,16.69,0.00,0.66,0.39,9.29,0.00,-0.00,0.00
2026-06-23 20:09:15.265,990.00,991.59,158.63,16.69,0.00,0.66,0.39,9.29,-0.00,0.00,-0.00
2026-06-23 20:09:15.267,990.00,991.59,158.63,16.69,0.00,0.67,0.38,9.31,-0.00,0.00,-0.00
2026-06-23 20:09:15.268,990.00,991.59,158.63,16.69,0.00,0.67,0.38,9.31,-0.00,0.00,-0.00
2026-06-23 20:09:15.269,990.00,991.59,158.63,16.69,0.00,0.67,0.38,9.31,-0.00,0.00,-0.00
2026-06-23 20:09:15.273,990.00,991.59,158.63,16.69,0.00,0.67,0.38,9.31,-0.00,0.00,-0.00
2026-06-23 20:09:15.275,990.00,991.59,158.63,16.69,0.00,0.66,0.39,9.31,0.00,0.00,-0.00
2026-06-23 20:09:15.276,990.00,991.59,158.63,16.69,0.00,0.66,0.39,9.31,0.00,0.00,-0.00
2026-06-23 20:09:15.278,990.00,991.59,158.63,16.69,0.00,0.66,0.39,9.31,0.00,0.00,-0.00
2026-06-23 20:09:15.279,990.00,991.59,158.63,16.69,0.00,0.66,0.39,9.31,0.00,0.00,-0.00
2026-06-23 20:09:15.285,990.00,991.59,158.63,16.69,0.00,0.66,0.39,9.31,0.00,0.00,-0.00
2026-06-23 20:09:15.286,990.00,991.59,158.63,16.69,0.00,0.66,0.39,9.26,-0.00,0.00,-0.00
2026-06-23 20:09:15.287,990.00,991.59,158.63,16.69,0.00,0.66,0.39,9.26,-0.00,0.00,-0.00
2026-06-23 20:09:15.288,990.00,991.59,158.63,16.69,0.00,0.66,0.39,9.26,-0.00,0.00,-0.00
2026-06-23 20:09:15.290,990.00,991.59,158.63,16.69,0.00,0.66,0.39,9.26,-0.00,0.00,-0.00
2026-06-23 20:09:15.291,990.00,991.59,158.63,16.69,0.00,0.66,0.39,9.26,-0.00,0.00,-0.00
2026-06-23 20:09:15.295,990.00,991.59,158.63,16.69,0.00,0.66,0.39,9.26,-0.00,-0.00,-0.00
2026-06-23 20:09:15.297,990.00,991.59,158.63,16.69,0.00,0.67,0.39,9.30,-0.00,-0.00,-0.00
2026-06-23 20:09:15.298,990.00,991.59,158.63,16.69,0.00,0.67,0.39,9.30,-0.00,-0.00,-0.00
2026-06-23 20:09:15.300,990.00,991.59,158.63,16.69,0.00,0.67,0.39,9.30,-0.00,-0.00,-0.00
2026-06-23 20:09:15.305,990.00,991.59,158.63,16.69,0.00,0.67,0.39,9.30,-0.00,-0.00,-0.00
2026-06-23 20:09:15.306,990.00,991.59,158.63,16.69,0.00,0.65,0.35,9.29,-0.00,-0.00,0.00
2026-06-23 20:09:15.307,990.00,991.59,158.63,16.69,0.00,0.65,0.35,9.29,-0.00,-0.00,0.00
2026-06-23 20:09:15.309,990.00,991.59,158.63,16.69,0.00,0.65,0.35,9.29,-0.00,-0.00,0.00
2026-06-23 20:09:15.310,990.00,991.59,158.63,16.69,0.00,0.65,0.35,9.29,-0.00,-0.00,0.00
2026-06-23 20:09:15.311,990.00,991.59,158.63,16.69,0.00,0.65,0.35,9.29,-0.00,-0.00,0.00
2026-06-23 20:09:15.314,990.00,991.59,158.63,16.69,0.00,0.65,0.35,9.29,-0.00,-0.00,0.00
2026-06-23 20:09:15.316,990.00,991.59,158.63,16.69,0.00,0.65,0.37,9.30,0.00,-0.00,-0.00
2026-06-23 20:09:15.317,990.00,991.59,158.63,16.69,0.00,0.65,0.37,9.30,0.00,-0.00,-0.00
2026-06-23 20:09:15.319,990.00,991.59,158.63,16.69,0.00,0.65,0.37,9.30,0.00,-0.00,-0.00
2026-06-23 20:09:15.320,990.00,991.59,158.63,16.69,0.00,0.65,0.37,9.30,0.00,-0.00,-0.00
2026-06-23 20:09:15.325,990.00,991.59,158.63,16.69,0.00,0.65,0.37,9.30,0.00,-0.00,-0.00
2026-06-23 20:09:15.326,990.00,991.59,158.63,16.69,0.00,0.66,0.37,9.34,-0.00,-0.00,0.00
2026-06-23 20:09:15.327,990.00,991.59,158.63,16.69,0.00,0.66,0.37,9.34,-0.00,-0.00,0.00
2026-06-23 20:09:15.517,990.00,991.60,160.06,16.78,0.00,0.66,0.38,9.28,0.00,0.00,-0.00
2026-06-23 20:09:15.518,990.00,991.60,160.06,16.78,0.00,0.66,0.38,9.28,0.00,0.00,-0.00
2026-06-23 20:09:15.519,990.00,991.60,160.06,16.78,0.00,0.66,0.38,9.28,0.00,0.00,-0.00
2026-06-23 20:09:15.520,990.00,991.60,160.06,16.78,0.00,0.66,0.38,9.28,0.00,0.00,-0.00
2026-06-23 20:09:15.525,990.00,991.60,160.06,16.78,0.00,0.66,0.38,9.28,0.00,0.00,-0.00
2026-06-23 20:09:15.526,990.00,991.60,160.06,16.78,0.00,0.66,0.38,9.33,-0.00,0.00,-0.00
2026-06-23 20:09:15.528,990.00,991.60,160.06,16.78,0.00,0.66,0.38,9.33,-0.00,0.00,-0.00
2026-06-23 20:09:15.529,990.00,991.60,160.06,16.78,0.00,0.66,0.38,9.33,-0.00,0.00,-0.00
2026-06-23 20:09:15.533,990.00,991.60,160.06,16.78,0.00,0.66,0.38,9.33,-0.00,0.00,-0.00
2026-06-23 20:09:15.536,990.00,991.60,160.06,16.78,0.00,0.66,0.38,9.33,-0.00,0.00,0.00
2026-06-23 20:09:15.537,990.00,991.60,160.06,16.78,0.00,0.67,0.39,9.27,-0.00,0.00,0.00
2026-06-23 20:09:15.538,990.00,991.60,160.06,16.78,0.00,0.67,0.39,9.27,-0.00,0.00,0.00
2026-06-23 20:09:15.540,990.00,991.60,160.06,16.78,0.00,0.67,0.39,9.27,-0.00,0.00,0.00
2026-06-23 20:09:15.542,990.00,991.60,160.06,16.78,0.00,0.67,0.39,9.27,-0.00,0.00,0.00
2026-06-23 20:09:15.546,990.00,991.60,160.06,16.78,0.00,0.67,0.39,9.27,-0.00,-0.00,0.00
2026-06-23 20:09:15.547,990.00,991.60,160.06,16.78,0.00,0.65,0.38,9.29,-0.00,-0.00,0.00
2026-06-23 20:09:15.549,990.00,991.60,160.06,16.78,0.00,0.65,0.38,9.29,-0.00,-0.00,0.00
2026-06-23 20:09:15.553,990.00,991.60,160.06,16.78,0.00,0.65,0.38,9.29,-0.00,-0.00,0.00
2026-06-23 20:09:15.556,990.00,991.60,160.06,16.78,0.00,0.65,0.38,9.29,0.00,0.00,0.00
2026-06-23 20:09:15.558,990.00,991.60,160.06,16.78,0.00,0.66,0.38,9.29,0.00,0.00,0.00
2026-06-23 20:09:15.559,990.00,991.60,160.06,16.78,0.00,0.66,0.38,9.29,0.00,0.00,0.00
2026-06-23 20:09:15.560,990.00,991.60,160.06,16.78,0.00,0.66,0.38,9.29,0.00,0.00,0.00
2026-06-23 20:09:15.562,990.00,991.60,160.06,16.78,0.00,0.66,0.38,9.29,0.00,0.00,0.00
2026-06-23 20:09:15.563,990.00,991.60,160.06,16.78,0.00,0.66,0.38,9.29,0.00,0.00,0.00
2026-06-23 20:09:15.566,990.00,991.60,160.06,16.78,0.00,0.66,0.38,9.29,0.00,0.00,-0.00
2026-06-23 20:09:15.568,990.00,991.60,160.06,16.78,0.00,0.66,0.39,9.31,0.00,0.00,-0.00
2026-06-23 20:09:15.569,990.00,991.60,160.06,16.78,0.00,0.66,0.39,9.31,0.00,0.00,-0.00
2026-06-23 20:09:15.570,990.00,991.60,160.06,16.78,0.00,0.66,0.39,9.31,0.00,0.00,-0.00
2026-06-23 20:09:15.575,990.00,991.60,160.06,16.78,0.00,0.66,0.39,9.31,0.00,0.00,-0.00
2026-06-23 20:09:15.577,990.00,991.60,160.06,16.78,0.00,0.65,0.37,9.32,-0.00,0.00,0.00
2026-06-23 20:09:15.578,990.00,991.60,160.06,16.78,0.00,0.65,0.37,9.32,-0.00,0.00,0.00
2026-06-23 20:09:15.579,990.00,991.60,160.06,16.78,0.00,0.65,0.37,9.32,-0.00,0.00,0.00
2026-06-23 20:09:15.582,990.00,991.60,160.06,16.78,0.00,0.65,0.37,9.32,-0.00,0.00,0.00
2026-06-23 20:09:15.586,990.00,991.60,160.06,16.78,0.00,0.65,0.37,9.32,-0.00,0.00,0.00
2026-06-23 20:09:15.587,990.00,991.60,160.06,16.78,0.00,0.66,0.37,9.27,-0.00,0.00,0.00
2026-06-23 20:09:15.589,990.00,991.60,160.06,16.78,0.00,0.66,0.37,9.27,-0.00,0.00,0.00
2026-06-23 20:09:15.590,990.00,991.60,160.06,16.78,0.00,0.66,0.37,9.27,-0.00,0.00,0.00
2026-06-23 20:09:15.596,990.00,991.60,160.06,16.78,0.00,0.66,0.37,9.27,-0.00,0.00,0.00
2026-06-23 20:09:15.597,990.00,991.60,160.06,16.78,0.00,0.65,0.38,9.31,-0.00,0.00,0.00
2026-06-23 20:09:15.599,990.00,991.60,160.06,16.78,0.00,0.65,0.38,9.31,-0.00,0.00,0.00
2026-06-23 20:09:15.600,990.00,991.60,160.06,16.78,0.00,0.65,0.38,9.31,-0.00,0.00,0.00
2026-06-23 20:09:15.606,990.00,991.60,160.06,16.78,0.00,0.65,0.38,9.31,-0.00,0.00,0.00
2026-06-23 20:09:15.607,990.00,991.60,160.06,16.78,0.00,0.66,0.41,9.33,-0.00,-0.00,-0.00
2026-06-23 20:09:15.608,990.00,991.60,160.06,16.78,0.00,0.66,0.41,9.33,-0.00,-0.00,-0.00
2026-06-23 20:09:15.609,990.00,991.60,160.06,16.78,0.00,0.66,0.41,9.33,-0.00,-0.00,-0.00
2026-06-23 20:09:15.611,990.00,991.60,160.06,16.78,0.00,0.66,0.41,9.33,-0.00,-0.00,-0.00
2026-06-23 20:09:15.612,990.00,991.60,160.06,16.78,0.00,0.66,0.41,9.33,-0.00,-0.00,-0.00
2026-06-23 20:09:15.613,990.00,991.60,160.06,16.78,0.00,0.66,0.41,9.33,-0.00,-0.00,-0.00
2026-06-23 20:09:15.616,990.00,991.60,160.06,16.78,0.00,0.66,0.41,9.33,-0.00,0.00,0.00
2026-06-23 20:09:15.807,990.00,991.62,161.87,16.88,0.00,0.65,0.39,9.29,0.00,0.00,-0.00
2026-06-23 20:09:15.808,990.00,991.62,161.87,16.90,0.00,0.66,0.38,9.29,0.00,0.00,-0.00
2026-06-23 20:09:15.809,990.00,991.62,161.87,16.90,0.00,0.66,0.38,9.29,0.00,0.00,-0.00
2026-06-23 20:09:15.811,990.00,991.62,161.87,16.90,0.00,0.66,0.38,9.29,0.00,0.00,-0.00
2026-06-23 20:09:15.812,990.00,991.62,161.87,16.90,0.00,0.66,0.38,9.29,0.00,0.00,-0.00
2026-06-23 20:09:15.813,990.00,991.62,161.87,16.90,0.00,0.66,0.38,9.29,0.00,0.00,-0.00
2026-06-23 20:09:15.815,990.00,991.62,161.87,16.90,0.00,0.66,0.38,9.29,0.00,0.00,-0.00
2026-06-23 20:09:15.817,990.00,991.62,161.87,16.90,0.00,0.65,0.38,9.30,-0.00,0.00,-0.00
2026-06-23 20:09:15.818,990.00,991.62,161.87,16.90,0.00,0.65,0.38,9.30,-0.00,0.00,-0.00
2026-06-23 20:09:15.819,990.00,991.62,161.87,16.90,0.00,0.65,0.38,9.30,-0.00,0.00,-0.00
2026-06-23 20:09:15.821,990.00,991.62,161.87,16.90,0.00,0.65,0.38,9.30,-0.00,0.00,-0.00
2026-06-23 20:09:15.825,990.00,991.62,161.87,16.90,0.00,0.65,0.38,9.30,-0.00,0.00,-0.00
2026-06-23 20:09:15.827,990.00,991.62,161.87,16.90,0.00,0.65,0.38,9.30,0.00,-0.00,0.00
2026-06-23 20:09:15.828,990.00,991.62,161.87,16.90,0.00,0.66,0.38,9.31,0.00,-0.00,0.00
2026-06-23 20:09:15.829,990.00,991.62,161.87,16.90,0.00,0.66,0.38,9.31,0.00,-0.00,0.00
2026-06-23 20:09:15.831,990.00,991.62,161.87,16.90,0.00,0.66,0.38,9.31,0.00,-0.00,0.00
2026-06-23 20:09:15.836,990.00,991.62,161.87,16.90,0.00,0.66,0.38,9.31,0.00,-0.00,0.00
2026-06-23 20:09:15.837,990.00,991.62,161.87,16.90,0.00,0.66,0.37,9.31,-0.00,-0.00,0.00
2026-06-23 20:09:15.839,990.00,991.62,161.87,16.90,0.00,0.66,0.37,9.31,-0.00,-0.00,0.00
2026-06-23 20:09:15.840,990.00,991.62,161.87,16.90,0.00,0.66,0.37,9.31,-0.00,-0.00,0.00
2026-06-23 20:09:15.841,990.00,991.62,161.87,16.90,0.00,0.66,0.37,9.31,-0.00,-0.00,0.00
2026-06-23 20:09:15.846,990.00,991.62,161.87,16.90,0.00,0.66,0.37,9.31,-0.00,-0.00,0.00
2026-06-23 20:09:15.848,990.00,991.62,161.87,16.90,0.00,0.67,0.37,9.30,0.00,-0.00,0.00
2026-06-23 20:09:15.849,990.00,991.62,161.87,16.90,0.00,0.67,0.37,9.30,0.00,-0.00,0.00
2026-06-23 20:09:15.851,990.00,991.62,161.87,16.90,0.00,0.67,0.37,9.30,0.00,-0.00,0.00
2026-06-23 20:09:15.855,990.00,991.62,161.87,16.90,0.00,0.67,0.37,9.30,0.00,-0.00,0.00
2026-06-23 20:09:15.857,990.00,991.62,161.87,16.90,0.00,0.66,0.38,9.28,0.00,-0.00,0.00
2026-06-23 20:09:15.858,990.00,991.62,161.87,16.90,0.00,0.66,0.38,9.28,0.00,-0.00,0.00
2026-06-23 20:09:15.859,990.00,991.62,161.87,16.90,0.00,0.66,0.38,9.28,0.00,-0.00,0.00
2026-06-23 20:09:15.861,990.00,991.62,161.87,16.90,0.00,0.66,0.38,9.28,0.00,-0.00,0.00
2026-06-23 20:09:15.862,990.00,991.62,161.87,16.90,0.00,0.66,0.38,9.28,0.00,-0.00,0.00
2026-06-23 20:09:15.863,990.00,991.62,161.87,16.90,0.00,0.66,0.38,9.28,0.00,-0.00,0.00
2026-06-23 20:09:15.865,990.00,991.62,161.87,16.90,0.00,0.66,0.38,9.28,0.00,-0.00,0.00
2026-06-23 20:09:15.867,990.00,991.62,161.87,16.90,0.00,0.66,0.37,9.33,0.00,-0.00,-0.00
2026-06-23 20:09:15.868,990.00,991.62,161.87,16.90,0.00,0.66,0.37,9.33,0.00,-0.00,-0.00
2026-06-23 20:09:15.870,990.00,991.62,161.87,16.90,0.00,0.66,0.37,9.33,0.00,-0.00,-0.00
2026-06-23 20:09:15.871,990.00,991.62,161.87,16.90,0.00,0.66,0.37,9.33,0.00,-0.00,-0.00
2026-06-23 20:09:15.874,990.00,991.62,161.87,16.90,0.00,0.66,0.37,9.33,0.00,-0.00,-0.00
2026-06-23 20:09:15.877,990.00,991.62,161.87,16.90,0.00,0.66,0.37,9.33,0.00,-0.00,0.00
2026-06-23 20:09:15.878,990.00,991.62,161.87,16.90,0.00,0.66,0.39,9.29,0.00,-0.00,0.00
2026-06-23 20:09:15.880,990.00,991.62,161.87,16.90,0.00,0.66,0.39,9.29,0.00,-0.00,0.00
2026-06-23 20:09:15.881,990.00,991.62,161.87,16.90,0.00,0.66,0.39,9.29,0.00,-0.00,0.00
2026-06-23 20:09:15.886,990.00,991.62,161.87,16.90,0.00,0.66,0.39,9.29,0.00,-0.00,0.00
2026-06-23 20:09:15.887,990.00,991.62,161.87,16.90,0.00,0.66,0.37,9.30,0.00,0.00,0.00
2026-06-23 20:09:15.889,990.00,991.62,161.87,16.90,0.00,0.66,0.37,9.30,0.00,0.00,0.00
2026-06-23 20:09:15.890,990.00,991.62,161.87,16.90,0.00,0.66,0.37,9.30,0.00,0.00,0.00
2026-06-23 20:09:15.891,990.00,991.62,161.87,16.90,0.00,0.66,0.37,9.30,0.00,0.00,0.00
2026-06-23 20:09:15.893,990.00,991.62,161.87,16.90,0.00,0.66,0.37,9.30,0.00,0.00,0.00
2026-06-23 20:09:15.897,990.00,991.62,161.87,16.90,0.00,0.66,0.37,9.30,-0.00,-0.00,0.00
2026-06-23 20:09:15.898,990.00,991.62,161.87,16.90,0.00,0.65,0.39,9.26,-0.00,-0.00,0.00
2026-06-23 20:09:15.900,990.00,991.62,161.87,16.90,0.00,0.65,0.39,9.26,-0.00,-0.00,0.00
2026-06-23 20:09:15.901,990.00,991.62,161.87,16.90,0.00,0.65,0.39,9.26,-0.00,-0.00,0.00
2026-06-23 20:09:15.906,990.00,991.62,161.87,16.90,0.00,0.65,0.39,9.26,-0.00,-0.00,0.00
2026-06-23 20:09:16.097,990.00,991.65,165.49,17.09,0.00,0.66,0.38,9.30,-0.00,0.00,0.00
2026-06-23 20:09:16.099,990.00,991.65,165.49,17.09,0.00,0.66,0.37,9.29,-0.00,0.00,0.00
2026-06-23 20:09:16.100,990.00,991.65,165.49,17.09,0.00,0.66,0.37,9.29,-0.00,0.00,0.00
2026-06-23 20:09:16.103,990.00,991.65,165.49,17.09,0.00,0.66,0.37,9.29,-0.00,0.00,0.00
2026-06-23 20:09:16.107,990.00,991.65,165.49,17.09,0.00,0.66,0.37,9.29,0.00,0.00,-0.00
2026-06-23 20:09:16.108,990.00,991.65,165.49,17.09,0.00,0.66,0.36,9.28,0.00,0.00,-0.00
2026-06-23 20:09:16.109,990.00,991.65,165.49,17.09,0.00,0.66,0.36,9.28,0.00,0.00,-0.00
2026-06-23 20:09:16.111,990.00,991.65,165.49,17.09,0.00,0.66,0.36,9.28,0.00,0.00,-0.00
2026-06-23 20:09:16.112,990.00,991.65,165.49,17.10,0.00,0.66,0.36,9.28,0.00,0.00,-0.00
2026-06-23 20:09:16.114,990.00,991.65,165.49,17.10,0.00,0.66,0.36,9.28,0.00,0.00,-0.00
2026-06-23 20:09:16.116,990.00,991.65,165.49,17.10,0.00,0.66,0.36,9.28,0.00,0.00,-0.00
2026-06-23 20:09:16.118,990.00,991.65,165.49,17.10,0.00,0.64,0.39,9.31,0.00,0.00,-0.00
2026-06-23 20:09:16.119,990.00,991.65,165.49,17.10,0.00,0.64,0.39,9.31,0.00,0.00,-0.00
2026-06-23 20:09:16.120,990.00,991.65,165.49,17.10,0.00,0.64,0.39,9.31,0.00,0.00,-0.00
2026-06-23 20:09:16.121,990.00,991.65,165.49,17.10,0.00,0.64,0.39,9.31,0.00,0.00,-0.00
2026-06-23 20:09:16.126,990.00,991.65,165.49,17.10,0.00,0.64,0.39,9.31,0.00,0.00,-0.00
2026-06-23 20:09:16.128,990.00,991.65,165.49,17.10,0.00,0.66,0.39,9.27,-0.00,0.00,-0.00
2026-06-23 20:09:16.129,990.00,991.65,165.49,17.10,0.00,0.66,0.39,9.27,-0.00,0.00,-0.00
2026-06-23 20:09:16.131,990.00,991.65,165.49,17.10,0.00,0.66,0.39,9.27,-0.00,0.00,-0.00
2026-06-23 20:09:16.135,990.00,991.65,165.49,17.10,0.00,0.66,0.39,9.27,-0.00,0.00,-0.00
2026-06-23 20:09:16.137,990.00,991.65,165.49,17.10,0.00,0.67,0.37,9.27,0.00,0.00,-0.00
2026-06-23 20:09:16.139,990.00,991.65,165.49,17.10,0.00,0.67,0.37,9.27,0.00,0.00,-0.00
2026-06-23 20:09:16.140,990.00,991.65,165.49,17.10,0.00,0.67,0.37,9.27,0.00,0.00,-0.00
2026-06-23 20:09:16.141,990.00,991.65,165.49,17.10,0.00,0.67,0.37,9.27,0.00,0.00,-0.00
2026-06-23 20:09:16.144,990.00,991.65,165.49,17.10,0.00,0.67,0.37,9.27,0.00,0.00,-0.00
2026-06-23 20:09:16.148,990.00,991.65,165.49,17.10,0.00,0.67,0.37,9.27,-0.00,0.00,0.00
2026-06-23 20:09:16.149,990.00,991.65,165.49,17.10,0.00,0.66,0.37,9.28,-0.00,0.00,0.00
2026-06-23 20:09:16.150,990.00,991.65,165.49,17.10,0.00,0.66,0.37,9.28,-0.00,0.00,0.00
2026-06-23 20:09:16.153,990.00,991.65,165.49,17.10,0.00,0.66,0.37,9.28,-0.00,0.00,0.00
2026-06-23 20:09:16.157,990.00,991.65,165.49,17.10,0.00,0.66,0.37,9.28,0.00,0.00,0.00
2026-06-23 20:09:16.158,990.00,991.65,165.49,17.10,0.00,0.66,0.39,9.30,0.00,0.00,0.00
2026-06-23 20:09:16.160,990.00,991.65,165.49,17.10,0.00,0.66,0.39,9.30,0.00,0.00,0.00
2026-06-23 20:09:16.161,990.00,991.65,165.49,17.10,0.00,0.66,0.39,9.30,0.00,0.00,0.00
2026-06-23 20:09:16.163,990.00,991.65,165.49,17.10,0.00,0.66,0.39,9.30,0.00,0.00,0.00
2026-06-23 20:09:16.164,990.00,991.65,165.49,17.10,0.00,0.66,0.39,9.30,0.00,0.00,0.00
2026-06-23 20:09:16.167,990.00,991.65,165.49,17.10,0.00,0.66,0.39,9.30,0.00,0.00,0.00
2026-06-23 20:09:16.168,990.00,991.65,165.49,17.10,0.00,0.66,0.37,9.30,0.00,0.00,0.00
2026-06-23 20:09:16.170,990.00,991.65,165.49,17.10,0.00,0.66,0.37,9.30,0.00,0.00,0.00
2026-06-23 20:09:16.171,990.00,991.65,165.49,17.10,0.00,0.66,0.37,9.30,0.00,0.00,0.00
2026-06-23 20:09:16.174,990.00,991.65,165.49,17.10,0.00,0.66,0.37,9.30,0.00,0.00,0.00
2026-06-23 20:09:16.178,990.00,991.65,165.49,17.10,0.00,0.66,0.37,9.30,0.00,0.00,0.00
2026-06-23 20:09:16.179,990.00,991.65,165.49,17.10,0.00,0.65,0.37,9.31,0.00,0.00,0.00
2026-06-23 20:09:16.180,990.00,991.65,165.49,17.10,0.00,0.65,0.37,9.31,0.00,0.00,0.00
2026-06-23 20:09:16.184,990.00,991.65,165.49,17.10,0.00,0.65,0.37,9.31,0.00,0.00,0.00
2026-06-23 20:09:16.187,990.00,991.65,165.49,17.10,0.00,0.65,0.37,9.31,0.00,0.00,0.00
2026-06-23 20:09:16.188,990.00,991.65,165.49,17.10,0.00,0.66,0.40,9.26,0.00,0.00,0.00
2026-06-23 20:09:16.190,990.00,991.65,165.49,17.10,0.00,0.66,0.40,9.26,0.00,0.00,0.00
2026-06-23 20:09:16.191,990.00,991.65,165.49,17.10,0.00,0.66,0.40,9.26,0.00,0.00,0.00
2026-06-23 20:09:16.192,990.00,991.65,165.49,17.10,0.00,0.66,0.40,9.26,0.00,0.00,0.00
2026-06-23 20:09:16.197,990.00,991.65,165.49,17.10,0.00,0.66,0.40,9.26,0.00,0.00,0.00
2026-06-23 20:09:16.389,990.00,991.62,162.45,16.94,0.00,0.66,0.36,9.30,-0.00,0.00,0.00
2026-06-23 20:09:16.390,990.00,991.62,162.45,16.94,0.00,0.66,0.39,9.27,-0.00,0.00,0.00
2026-06-23 20:09:16.391,990.00,991.62,162.45,16.94,0.00,0.66,0.39,9.27,-0.00,0.00,0.00
2026-06-23 20:09:16.392,990.00,991.62,162.45,16.94,0.00,0.66,0.39,9.27,-0.00,0.00,0.00
2026-06-23 20:09:16.398,990.00,991.62,162.45,16.94,0.00,0.66,0.39,9.27,-0.00,0.00,0.00
2026-06-23 20:09:16.399,990.00,991.62,162.45,16.94,0.00,0.66,0.39,9.29,0.00,0.00,-0.00
2026-06-23 20:09:16.400,990.00,991.62,162.45,16.94,0.00,0.66,0.39,9.29,0.00,0.00,-0.00
2026-06-23 20:09:16.402,990.00,991.62,162.45,16.94,0.00,0.66,0.39,9.29,0.00,0.00,-0.00
2026-06-23 20:09:16.407,990.00,991.62,162.45,16.95,0.00,0.66,0.39,9.29,0.00,0.00,-0.00
2026-06-23 20:09:16.408,990.00,991.62,162.45,16.95,0.00,0.67,0.35,9.28,0.00,0.00,0.00
2026-06-23 20:09:16.410,990.00,991.62,162.45,16.95,0.00,0.67,0.35,9.28,0.00,0.00,0.00
2026-06-23 20:09:16.411,990.00,991.62,162.45,16.95,0.00,0.67,0.35,9.28,0.00,0.00,0.00
2026-06-23 20:09:16.412,990.00,991.62,162.45,16.95,0.00,0.67,0.35,9.28,0.00,0.00,0.00
2026-06-23 20:09:16.414,990.00,991.62,162.45,16.95,0.00,0.67,0.35,9.28,0.00,0.00,0.00
2026-06-23 20:09:16.415,990.00,991.62,162.45,16.95,0.00,0.67,0.35,9.28,0.00,0.00,0.00
2026-06-23 20:09:16.418,990.00,991.62,162.45,16.95,0.00,0.67,0.35,9.28,0.00,-0.00,0.00
2026-06-23 20:09:16.419,990.00,991.62,162.45,16.95,0.00,0.67,0.39,9.32,0.00,-0.00,0.00
2026-06-23 20:09:16.420,990.00,991.62,162.45,16.95,0.00,0.67,0.39,9.32,0.00,-0.00,0.00
2026-06-23 20:09:16.422,990.00,991.62,162.45,16.95,0.00,0.67,0.39,9.32,0.00,-0.00,0.00
2026-06-23 20:09:16.426,990.00,991.62,162.45,16.95,0.00,0.67,0.39,9.32,0.00,-0.00,0.00
2026-06-23 20:09:16.428,990.00,991.62,162.45,16.95,0.00,0.67,0.39,9.32,0.00,-0.00,0.00
2026-06-23 20:09:16.430,990.00,991.62,162.45,16.95,0.00,0.66,0.38,9.30,0.00,-0.00,0.00
2026-06-23 20:09:16.431,990.00,991.62,162.45,16.95,0.00,0.66,0.38,9.30,0.00,-0.00,0.00
2026-06-23 20:09:16.435,990.00,991.62,162.45,16.95,0.00,0.66,0.38,9.30,0.00,-0.00,0.00
2026-06-23 20:09:16.438,990.00,991.62,162.45,16.95,0.00,0.66,0.38,9.30,0.00,-0.00,-0.00
2026-06-23 20:09:16.439,990.00,991.62,162.45,16.95,0.00,0.66,0.38,9.27,0.00,-0.00,-0.00
2026-06-23 20:09:16.440,990.00,991.62,162.45,16.95,0.00,0.66,0.38,9.27,0.00,-0.00,-0.00
2026-06-23 20:09:16.442,990.00,991.62,162.45,16.95,0.00,0.66,0.38,9.27,0.00,-0.00,-0.00
2026-06-23 20:09:16.445,990.00,991.62,162.45,16.95,0.00,0.66,0.38,9.27,0.00,-0.00,-0.00
2026-06-23 20:09:16.448,990.00,991.62,162.45,16.95,0.00,0.66,0.38,9.27,0.00,-0.00,-0.00
2026-06-23 20:09:16.450,990.00,991.62,162.45,16.95,0.00,0.66,0.40,9.29,0.00,-0.00,-0.00
2026-06-23 20:09:16.451,990.00,991.62,162.45,16.95,0.00,0.66,0.40,9.29,0.00,-0.00,-0.00
2026-06-23 20:09:16.454,990.00,991.62,162.45,16.95,0.00,0.66,0.40,9.29,0.00,-0.00,-0.00
2026-06-23 20:09:16.458,990.00,991.62,162.45,16.95,0.00,0.66,0.40,9.29,0.00,-0.00,0.00
2026-06-23 20:09:16.459,990.00,991.62,162.45,16.95,0.00,0.65,0.38,9.27,0.00,-0.00,0.00
2026-06-23 20:09:16.460,990.00,991.62,162.45,16.95,0.00,0.65,0.38,9.27,0.00,-0.00,0.00
2026-06-23 20:09:16.462,990.00,991.62,162.45,16.95,0.00,0.65,0.38,9.27,0.00,-0.00,0.00
2026-06-23 20:09:16.463,990.00,991.62,162.45,16.95,0.00,0.65,0.38,9.27,0.00,-0.00,0.00
2026-06-23 20:09:16.465,990.00,991.62,162.45,16.95,0.00,0.65,0.38,9.27,0.00,-0.00,0.00
2026-06-23 20:09:16.467,990.00,991.62,162.45,16.95,0.00,0.65,0.38,9.27,0.00,-0.00,0.00
2026-06-23 20:09:16.469,990.00,991.62,162.45,16.95,0.00,0.67,0.39,9.30,0.00,0.00,-0.00
2026-06-23 20:09:16.470,990.00,991.62,162.45,16.95,0.00,0.67,0.39,9.30,0.00,0.00,-0.00
2026-06-23 20:09:16.471,990.00,991.62,162.45,16.95,0.00,0.67,0.39,9.30,0.00,0.00,-0.00
2026-06-23 20:09:16.472,990.00,991.62,162.45,16.95,0.00,0.67,0.39,9.30,0.00,0.00,-0.00
2026-06-23 20:09:16.478,990.00,991.62,162.45,16.95,0.00,0.67,0.39,9.30,0.00,0.00,-0.00
2026-06-23 20:09:16.479,990.00,991.62,162.45,16.95,0.00,0.66,0.37,9.29,0.00,-0.00,0.00
2026-06-23 20:09:16.480,990.00,991.62,162.45,16.95,0.00,0.66,0.37,9.29,0.00,-0.00,0.00
2026-06-23 20:09:16.482,990.00,991.62,162.45,16.95,0.00,0.66,0.37,9.29,0.00,-0.00,0.00
2026-06-23 20:09:16.488,990.00,991.62,162.45,16.95,0.00,0.66,0.37,9.29,0.00,-0.00,0.00
2026-06-23 20:09:16.679,990.00,991.61,161.25,16.88,0.00,0.66,0.39,9.29,0.00,-0.00,-0.00
2026-06-23 20:09:16.680,990.00,991.61,161.25,16.88,0.00,0.66,0.41,9.29,0.00,-0.00,-0.00
2026-06-23 20:09:16.682,990.00,991.61,161.25,16.88,0.00,0.66,0.41,9.29,0.00,-0.00,-0.00
2026-06-23 20:09:16.686,990.00,991.61,161.25,16.88,0.00,0.66,0.41,9.29,0.00,-0.00,-0.00
2026-06-23 20:09:16.689,990.00,991.61,161.25,16.88,0.00,0.66,0.41,9.29,-0.00,-0.00,-0.00
2026-06-23 20:09:16.690,990.00,991.61,161.25,16.88,0.00,0.66,0.37,9.28,-0.00,-0.00,-0.00
2026-06-23 20:09:16.691,990.00,991.61,161.25,16.88,0.00,0.66,0.37,9.28,-0.00,-0.00,-0.00
2026-06-23 20:09:16.692,990.00,991.61,161.25,16.88,0.00,0.66,0.37,9.28,-0.00,-0.00,-0.00
2026-06-23 20:09:16.694,990.00,991.61,161.25,16.88,0.00,0.66,0.37,9.28,-0.00,-0.00,-0.00
2026-06-23 20:09:16.698,990.00,991.61,161.25,16.89,0.00,0.66,0.37,9.28,-0.00,0.00,0.00
2026-06-23 20:09:16.700,990.00,991.61,161.25,16.89,0.00,0.66,0.38,9.30,-0.00,0.00,0.00
2026-06-23 20:09:16.701,990.00,991.61,161.25,16.89,0.00,0.66,0.38,9.30,-0.00,0.00,0.00
2026-06-23 20:09:16.702,990.00,991.61,161.25,16.89,0.00,0.66,0.38,9.30,-0.00,0.00,0.00
2026-06-23 20:09:16.706,990.00,991.61,161.25,16.89,0.00,0.66,0.38,9.30,-0.00,0.00,0.00
2026-06-23 20:09:16.709,990.00,991.61,161.25,16.89,0.00,0.66,0.38,9.30,0.00,0.00,0.00
2026-06-23 20:09:16.710,990.00,991.61,161.25,16.89,0.00,0.66,0.36,9.31,0.00,0.00,0.00
2026-06-23 20:09:16.711,990.00,991.61,161.25,16.89,0.00,0.66,0.36,9.31,0.00,0.00,0.00
2026-06-23 20:09:16.713,990.00,991.61,161.25,16.89,0.00,0.66,0.36,9.31,0.00,0.00,0.00
2026-06-23 20:09:16.714,990.00,991.61,161.25,16.89,0.00,0.66,0.36,9.31,0.00,0.00,0.00
2026-06-23 20:09:16.716,990.00,991.61,161.25,16.89,0.00,0.66,0.36,9.31,0.00,0.00,0.00
2026-06-23 20:09:16.719,990.00,991.61,161.25,16.89,0.00,0.66,0.36,9.31,0.00,-0.00,-0.00
2026-06-23 20:09:16.720,990.00,991.61,161.25,16.89,0.00,0.66,0.39,9.30,0.00,-0.00,-0.00
2026-06-23 20:09:16.721,990.00,991.61,161.25,16.89,0.00,0.66,0.39,9.30,0.00,-0.00,-0.00
2026-06-23 20:09:16.722,990.00,991.61,161.25,16.89,0.00,0.66,0.39,9.30,0.00,-0.00,-0.00
2026-06-23 20:09:16.726,990.00,991.61,161.25,16.89,0.00,0.66,0.39,9.30,0.00,-0.00,-0.00
2026-06-23 20:09:16.729,990.00,991.61,161.25,16.89,0.00,0.66,0.39,9.30,0.00,-0.00,-0.00
2026-06-23 20:09:16.730,990.00,991.61,161.25,16.89,0.00,0.67,0.37,9.31,0.00,-0.00,-0.00
2026-06-23 20:09:16.732,990.00,991.61,161.25,16.89,0.00,0.67,0.37,9.31,0.00,-0.00,-0.00
2026-06-23 20:09:16.737,990.00,991.61,161.25,16.89,0.00,0.67,0.37,9.31,0.00,-0.00,-0.00
2026-06-23 20:09:16.739,990.00,991.61,161.25,16.89,0.00,0.66,0.37,9.30,0.00,0.00,0.00
2026-06-23 20:09:16.740,990.00,991.61,161.25,16.89,0.00,0.66,0.37,9.30,0.00,0.00,0.00
2026-06-23 20:09:16.741,990.00,991.61,161.25,16.89,0.00,0.66,0.37,9.30,0.00,0.00,0.00
2026-06-23 20:09:16.742,990.00,991.61,161.25,16.89,0.00,0.66,0.37,9.30,0.00,0.00,0.00
2026-06-23 20:09:16.747,990.00,991.61,161.25,16.89,0.00,0.66,0.37,9.30,0.00,0.00,0.00
2026-06-23 20:09:16.750,990.00,991.61,161.25,16.89,0.00,0.67,0.38,9.28,0.00,0.00,0.00
2026-06-23 20:09:16.751,990.00,991.61,161.25,16.89,0.00,0.67,0.38,9.28,0.00,0.00,0.00
2026-06-23 20:09:16.753,990.00,991.61,161.25,16.89,0.00,0.67,0.38,9.28,0.00,0.00,0.00
2026-06-23 20:09:16.758,990.00,991.61,161.25,16.89,0.00,0.67,0.38,9.28,0.00,0.00,0.00
2026-06-23 20:09:16.759,990.00,991.61,161.25,16.89,0.00,0.65,0.38,9.29,0.00,-0.00,0.00
2026-06-23 20:09:16.760,990.00,991.61,161.25,16.89,0.00,0.65,0.38,9.29,0.00,-0.00,0.00
2026-06-23 20:09:16.762,990.00,991.61,161.25,16.89,0.00,0.65,0.38,9.29,0.00,-0.00,0.00
2026-06-23 20:09:16.763,990.00,991.61,161.25,16.89,0.00,0.65,0.38,9.29,0.00,-0.00,0.00
2026-06-23 20:09:16.765,990.00,991.61,161.25,16.89,0.00,0.65,0.38,9.29,0.00,-0.00,0.00
2026-06-23 20:09:16.766,990.00,991.61,161.25,16.89,0.00,0.65,0.38,9.29,0.00,-0.00,0.00
2026-06-23 20:09:16.769,990.00,991.61,161.25,16.89,0.00,0.65,0.38,9.29,0.00,-0.00,0.00
2026-06-23 20:09:16.770,990.00,991.61,161.25,16.89,0.00,0.65,0.38,9.29,0.00,-0.00,0.00
2026-06-23 20:09:16.771,990.00,991.61,161.25,16.89,0.00,0.65,0.38,9.29,0.00,-0.00,0.00
2026-06-23 20:09:16.772,990.00,991.61,161.25,16.89,0.00,0.65,0.38,9.29,0.00,-0.00,0.00
2026-06-23 20:09:16.776,990.00,991.61,161.25,16.89,0.00,0.65,0.38,9.29,0.00,-0.00,0.00
2026-06-23 20:09:16.779,990.00,991.61,161.25,16.89,0.00,0.65,0.38,9.29,0.00,0.00,-0.00
2026-06-23 20:09:16.969,990.00,991.64,164.33,17.05,0.00,0.66,0.38,9.31,0.00,0.00,0.00
2026-06-23 20:09:16.971,990.00,991.64,164.33,17.05,0.00,0.66,0.38,9.32,0.00,0.00,0.00
2026-06-23 20:09:16.972,990.00,991.64,164.33,17.05,0.00,0.66,0.38,9.32,0.00,0.00,0.00
2026-06-23 20:09:16.973,990.00,991.64,164.33,17.05,0.00,0.66,0.38,9.32,0.00,0.00,0.00
2026-06-23 20:09:16.977,990.00,991.64,164.33,17.05,0.00,0.66,0.38,9.32,0.00,0.00,0.00
2026-06-23 20:09:16.980,990.00,991.64,164.33,17.05,0.00,0.66,0.38,9.32,0.00,0.00,0.00
2026-06-23 20:09:16.981,990.00,991.64,164.33,17.05,0.00,0.66,0.38,9.29,0.00,0.00,0.00
2026-06-23 20:09:16.983,990.00,991.64,164.33,17.05,0.00,0.66,0.38,9.29,0.00,0.00,0.00
2026-06-23 20:09:16.986,990.00,991.64,164.33,17.05,0.00,0.66,0.38,9.29,0.00,0.00,0.00
2026-06-23 20:09:16.989,990.00,991.64,164.33,17.05,0.00,0.66,0.38,9.29,0.00,0.00,0.00
2026-06-23 20:09:16.991,990.00,991.64,164.33,17.05,0.00,0.65,0.40,9.27,0.00,0.00,0.00
2026-06-23 20:09:16.992,990.00,991.64,164.33,17.05,0.00,0.65,0.40,9.27,0.00,0.00,0.00
2026-06-23 20:09:16.993,990.00,991.64,164.33,17.05,0.00,0.65,0.40,9.27,0.00,0.00,0.00
2026-06-23 20:09:16.994,990.00,991.64,164.33,17.05,0.00,0.65,0.40,9.27,0.00,0.00,0.00
2026-06-23 20:09:16.999,990.00,991.64,164.33,17.05,0.00,0.65,0.40,9.27,0.00,0.00,0.00
2026-06-23 20:09:16.000,990.00,991.64,164.33,17.05,0.00,0.66,0.37,9.27,0.00,-0.00,0.00
2026-06-23 20:09:16.003,990.00,991.64,164.33,17.05,0.00,0.66,0.37,9.27,0.00,-0.00,0.00
2026-06-23 20:09:17.006,990.00,991.64,164.33,17.05,0.00,0.66,0.37,9.27,0.00,-0.00,0.00
2026-06-23 20:09:17.009,990.00,991.64,164.33,17.05,0.00,0.66,0.37,9.27,0.00,-0.00,0.00
2026-06-23 20:09:17.011,990.00,991.64,164.33,17.05,0.00,0.67,0.39,9.30,0.00,-0.00,0.00
2026-06-23 20:09:17.012,990.00,991.64,164.33,17.05,0.00,0.67,0.39,9.30,0.00,-0.00,0.00
2026-06-23 20:09:17.013,990.00,991.64,164.33,17.05,0.00,0.67,0.39,9.30,0.00,-0.00,0.00
2026-06-23 20:09:17.015,990.00,991.64,164.33,17.05,0.00,0.67,0.39,9.30,0.00,-0.00,0.00
2026-06-23 20:09:17.017,990.00,991.64,164.33,17.05,0.00,0.67,0.39,9.30,0.00,-0.00,0.00
2026-06-23 20:09:17.019,990.00,991.64,164.33,17.05,0.00,0.67,0.39,9.30,0.00,-0.00,0.00
2026-06-23 20:09:17.021,990.00,991.64,164.33,17.05,0.00,0.66,0.39,9.31,0.00,-0.00,0.00
2026-06-23 20:09:17.022,990.00,991.64,164.33,17.05,0.00,0.66,0.39,9.31,0.00,-0.00,0.00
2026-06-23 20:09:17.023,990.00,991.64,164.33,17.05,0.00,0.66,0.39,9.31,0.00,-0.00,0.00
2026-06-23 20:09:17.026,990.00,991.64,164.33,17.05,0.00,0.66,0.39,9.31,0.00,-0.00,0.00
2026-06-23 20:09:17.030,990.00,991.64,164.33,17.05,0.00,0.66,0.39,9.31,0.00,0.00,0.00
2026-06-23 20:09:17.031,990.00,991.64,164.33,17.05,0.00,0.65,0.38,9.28,0.00,0.00,0.00
2026-06-23 20:09:17.033,990.00,991.64,164.33,17.05,0.00,0.65,0.38,9.28,0.00,0.00,0.00
2026-06-23 20:09:17.037,990.00,991.64,164.33,17.05,0.00,0.65,0.38,9.28,0.00,0.00,0.00
2026-06-23 20:09:17.039,990.00,991.64,164.33,17.05,0.00,0.65,0.38,9.28,0.00,0.00,0.00
2026-06-23 20:09:17.041,990.00,991.64,164.33,17.05,0.00,0.65,0.37,9.31,0.00,0.00,0.00
2026-06-23 20:09:17.042,990.00,991.64,164.33,17.05,0.00,0.65,0.37,9.31,0.00,0.00,0.00
2026-06-23 20:09:17.043,990.00,991.64,164.33,17.05,0.00,0.65,0.37,9.31,0.00,0.00,0.00
2026-06-23 20:09:17.047,990.00,991.64,164.33,17.05,0.00,0.65,0.37,9.31,0.00,0.00,0.00
2026-06-23 20:09:17.050,990.00,991.64,164.33,17.05,0.00,0.65,0.37,9.31,0.00,0.00,0.00
2026-06-23 20:09:17.051,990.00,991.64,164.33,17.05,0.00,0.66,0.39,9.28,0.00,0.00,0.00
2026-06-23 20:09:17.052,990.00,991.64,164.33,17.05,0.00,0.66,0.39,9.28,0.00,0.00,0.00
2026-06-23 20:09:17.053,990.00,991.64,164.33,17.05,0.00,0.66,0.39,9.28,0.00,0.00,0.00
2026-06-23 20:09:17.058,990.00,991.64,164.33,17.05,0.00,0.66,0.39,9.28,0.00,0.00,0.00
2026-06-23 20:09:17.060,990.00,991.64,164.33,17.05,0.00,0.65,0.38,9.30,0.00,0.00,0.00
2026-06-23 20:09:17.061,990.00,991.64,164.33,17.05,0.00,0.65,0.38,9.30,0.00,0.00,0.00
2026-06-23 20:09:17.063,990.00,991.64,164.33,17.05,0.00,0.65,0.38,9.30,0.00,0.00,0.00
2026-06-23 20:09:17.064,990.00,991.64,164.33,17.05,0.00,0.65,0.38,9.30,0.00,0.00,0.00
2026-06-23 20:09:17.066,990.00,991.64,164.33,17.05,0.00,0.65,0.38,9.30,0.00,0.00,0.00
2026-06-23 20:09:17.068,990.00,991.64,164.33,17.05,0.00,0.65,0.38,9.30,0.00,0.00,0.00
2026-06-23 20:09:17.260,990.00,991.67,167.38,17.21,0.00,0.65,0.38,9.29,0.00,0.00,0.00
2026-06-23 20:09:17.261,990.00,991.67,167.38,17.21,0.00,0.65,0.40,9.29,0.00,0.00,0.00
2026-06-23 20:09:17.263,990.00,991.67,167.38,17.21,0.00,0.65,0.40,9.29,0.00,0.00,0.00
2026-06-23 20:09:17.264,990.00,991.67,167.38,17.21,0.00,0.65,0.40,9.29,0.00,0.00,0.00
2026-06-23 20:09:17.266,990.00,991.67,167.38,17.21,0.00,0.65,0.40,9.29,0.00,0.00,0.00
2026-06-23 20:09:17.267,990.00,991.67,167.38,17.21,0.00,0.65,0.40,9.29,0.00,0.00,0.00
2026-06-23 20:09:17.269,990.00,991.67,167.38,17.21,0.00,0.65,0.40,9.29,0.00,0.00,0.00
2026-06-23 20:09:17.271,990.00,991.67,167.38,17.21,0.00,0.66,0.37,9.29,0.00,0.00,0.00
2026-06-23 20:09:17.272,990.00,991.67,167.38,17.21,0.00,0.66,0.37,9.29,0.00,0.00,0.00
2026-06-23 20:09:17.273,990.00,991.67,167.38,17.21,0.00,0.66,0.37,9.29,0.00,0.00,0.00
2026-06-23 20:09:17.274,990.00,991.67,167.38,17.21,0.00,0.66,0.37,9.29,0.00,0.00,0.00
2026-06-23 20:09:17.279,990.00,991.67,167.38,17.21,0.00,0.66,0.37,9.29,0.00,0.00,0.00
2026-06-23 20:09:17.281,990.00,991.67,167.38,17.21,0.00,0.66,0.40,9.31,0.00,-0.00,-0.00
2026-06-23 20:09:17.283,990.00,991.67,167.38,17.21,0.00,0.66,0.40,9.31,0.00,-0.00,-0.00
2026-06-23 20:09:17.284,990.00,991.67,167.38,17.21,0.00,0.66,0.40,9.31,0.00,-0.00,-0.00
2026-06-23 20:09:17.289,990.00,991.67,167.38,17.21,0.00,0.66,0.40,9.31,0.00,-0.00,-0.00
2026-06-23 20:09:17.291,990.00,991.67,167.38,17.21,0.00,0.66,0.38,9.30,0.00,-0.00,0.00
2026-06-23 20:09:17.292,990.00,991.67,167.38,17.21,0.00,0.66,0.38,9.30,0.00,-0.00,0.00
2026-06-23 20:09:17.293,990.00,991.67,167.38,17.21,0.00,0.66,0.38,9.30,0.00,-0.00,0.00
2026-06-23 20:09:17.294,990.00,991.67,167.38,17.21,0.00,0.66,0.38,9.30,0.00,-0.00,0.00
2026-06-23 20:09:17.298,990.00,991.67,167.38,17.21,0.00,0.66,0.38,9.30,0.00,-0.00,0.00
2026-06-23 20:09:17.300,990.00,991.67,167.38,17.21,0.00,0.66,0.40,9.30,0.00,-0.00,0.00
2026-06-23 20:09:17.302,990.00,991.67,167.38,17.21,0.00,0.66,0.40,9.30,0.00,-0.00,0.00
2026-06-23 20:09:17.303,990.00,991.67,167.38,17.21,0.00,0.66,0.40,9.30,0.00,-0.00,0.00
2026-06-23 20:09:17.304,990.00,991.67,167.38,17.21,0.00,0.66,0.40,9.30,0.00,-0.00,0.00
2026-06-23 20:09:17.310,990.00,991.67,167.38,17.21,0.00,0.66,0.40,9.30,0.00,-0.00,0.00
2026-06-23 20:09:17.311,990.00,991.67,167.38,17.21,0.00,0.66,0.38,9.28,0.00,-0.00,0.00
2026-06-23 20:09:17.312,990.00,991.67,167.38,17.21,0.00,0.66,0.38,9.28,0.00,-0.00,0.00
2026-06-23 20:09:17.314,990.00,991.67,167.38,17.21,0.00,0.66,0.38,9.28,0.00,-0.00,0.00
2026-06-23 20:09:17.315,990.00,991.67,167.38,17.21,0.00,0.66,0.38,9.28,0.00,-0.00,0.00
2026-06-23 20:09:17.317,990.00,991.67,167.38,17.21,0.00,0.66,0.38,9.28,0.00,-0.00,0.00
2026-06-23 20:09:17.320,990.00,991.67,167.38,17.21,0.00,0.66,0.38,9.28,0.00,-0.00,0.00
2026-06-23 20:09:17.321,990.00,991.67,167.38,17.21,0.00,0.65,0.37,9.28,-0.00,-0.00,0.00
2026-06-23 20:09:17.322,990.00,991.67,167.38,17.21,0.00,0.65,0.37,9.28,-0.00,-0.00,0.00
2026-06-23 20:09:17.323,990.00,991.67,167.38,17.21,0.00,0.65,0.37,9.28,-0.00,-0.00,0.00
2026-06-23 20:09:17.324,990.00,991.67,167.38,17.21,0.00,0.65,0.37,9.28,-0.00,-0.00,0.00
2026-06-23 20:09:17.330,990.00,991.67,167.38,17.21,0.00,0.65,0.37,9.28,-0.00,-0.00,0.00
2026-06-23 20:09:17.331,990.00,991.67,167.38,17.21,0.00,0.65,0.38,9.30,-0.00,-0.00,0.00
2026-06-23 20:09:17.333,990.00,991.67,167.38,17.21,0.00,0.65,0.38,9.30,-0.00,-0.00,0.00
2026-06-23 20:09:17.334,990.00,991.67,167.38,17.21,0.00,0.65,0.38,9.30,-0.00,-0.00,0.00
2026-06-23 20:09:17.340,990.00,991.67,167.38,17.21,0.00,0.65,0.38,9.30,-0.00,-0.00,0.00
2026-06-23 20:09:17.341,990.00,991.67,167.38,17.21,0.00,0.66,0.37,9.33,0.00,-0.00,-0.00
2026-06-23 20:09:17.342,990.00,991.67,167.38,17.21,0.00,0.66,0.37,9.33,0.00,-0.00,-0.00
2026-06-23 20:09:17.343,990.00,991.67,167.38,17.21,0.00,0.66,0.37,9.33,0.00,-0.00,-0.00
2026-06-23 20:09:17.344,990.00,991.67,167.38,17.21,0.00,0.66,0.37,9.33,0.00,-0.00,-0.00
2026-06-23 20:09:17.350,990.00,991.67,167.38,17.21,0.00,0.66,0.37,9.33,0.00,-0.00,-0.00
2026-06-23 20:09:17.351,990.00,991.67,167.38,17.21,0.00,0.66,0.37,9.30,0.00,0.00,-0.00
2026-06-23 20:09:17.352,990.00,991.67,167.38,17.21,0.00,0.66,0.37,9.30,0.00,0.00,-0.00
2026-06-23 20:09:17.353,990.00,991.67,167.38,17.21,0.00,0.66,0.37,9.30,0.00,0.00,-0.00
2026-06-23 20:09:17.356,990.00,991.67,167.38,17.21,0.00,0.66,0.37,9.30,0.00,0.00,-0.00
2026-06-23 20:09:17.550,990.00,991.65,165.00,17.09,0.00,0.66,0.38,9.27,0.00,-0.00,-0.00
2026-06-23 20:09:17.551,990.00,991.65,165.00,17.09,0.00,0.66,0.38,9.28,0.00,0.00,0.00
2026-06-23 20:09:17.553,990.00,991.65,165.00,17.09,0.00,0.66,0.38,9.28,0.00,0.00,0.00
2026-06-23 20:09:17.554,990.00,991.65,165.00,17.09,0.00,0.66,0.38,9.28,0.00,0.00,0.00
2026-06-23 20:09:17.560,990.00,991.65,165.00,17.09,0.00,0.66,0.38,9.28,0.00,0.00,0.00
2026-06-23 20:09:17.561,990.00,991.65,165.00,17.09,0.00,0.66,0.38,9.30,-0.00,-0.00,-0.00
2026-06-23 20:09:17.563,990.00,991.65,165.00,17.09,0.00,0.66,0.38,9.30,-0.00,-0.00,-0.00
2026-06-23 20:09:17.564,990.00,991.65,165.00,17.09,0.00,0.66,0.38,9.30,-0.00,-0.00,-0.00
2026-06-23 20:09:17.566,990.00,991.65,165.00,17.09,0.00,0.66,0.38,9.30,-0.00,-0.00,-0.00
2026-06-23 20:09:17.567,990.00,991.65,165.00,17.09,0.00,0.66,0.38,9.30,-0.00,-0.00,-0.00
2026-06-23 20:09:17.570,990.00,991.65,165.00,17.09,0.00,0.66,0.38,9.30,-0.00,-0.00,-0.00
2026-06-23 20:09:17.572,990.00,991.65,165.00,17.09,0.00,0.66,0.38,9.31,0.00,0.00,0.00
2026-06-23 20:09:17.573,990.00,991.65,165.00,17.09,0.00,0.66,0.38,9.31,0.00,0.00,0.00
2026-06-23 20:09:17.574,990.00,991.65,165.00,17.09,0.00,0.66,0.38,9.31,0.00,0.00,0.00
2026-06-23 20:09:17.580,990.00,991.65,165.00,17.09,0.00,0.66,0.38,9.31,0.00,0.00,0.00
2026-06-23 20:09:17.581,990.00,991.65,165.00,17.09,0.00,0.66,0.39,9.29,0.00,-0.00,-0.00
2026-06-23 20:09:17.583,990.00,991.65,165.00,17.09,0.00,0.66,0.39,9.29,0.00,-0.00,-0.00
2026-06-23 20:09:17.584,990.00,991.65,165.00,17.09,0.00,0.66,0.39,9.29,0.00,-0.00,-0.00
2026-06-23 20:09:17.588,990.00,991.65,165.00,17.09,0.00,0.66,0.39,9.29,0.00,-0.00,-0.00
2026-06-23 20:09:17.591,990.00,991.65,165.00,17.09,0.00,0.66,0.39,9.29,-0.00,-0.00,0.00
2026-06-23 20:09:17.592,990.00,991.65,165.00,17.09,0.00,0.67,0.38,9.29,-0.00,-0.00,0.00
2026-06-23 20:09:17.593,990.00,991.65,165.00,17.09,0.00,0.67,0.38,9.29,-0.00,-0.00,0.00
2026-06-23 20:09:17.595,990.00,991.65,165.00,17.09,0.00,0.67,0.38,9.29,-0.00,-0.00,0.00
2026-06-23 20:09:17.597,990.00,991.65,165.00,17.09,0.00,0.67,0.38,9.29,-0.00,-0.00,0.00
2026-06-23 20:09:17.601,990.00,991.65,165.00,17.09,0.00,0.67,0.38,9.29,0.00,0.00,0.00
2026-06-23 20:09:17.602,990.00,991.65,165.00,17.09,0.00,0.66,0.39,9.30,0.00,0.00,0.00
2026-06-23 20:09:17.603,990.00,991.65,165.00,17.09,0.00,0.66,0.39,9.30,0.00,0.00,0.00
2026-06-23 20:09:17.605,990.00,991.65,165.00,17.09,0.00,0.66,0.39,9.30,0.00,0.00,0.00
2026-06-23 20:09:17.609,990.00,991.65,165.00,17.09,0.00,0.66,0.39,9.30,0.00,0.00,0.00
2026-06-23 20:09:17.612,990.00,991.65,165.00,17.09,0.00,0.66,0.38,9.28,0.00,0.00,-0.00
2026-06-23 20:09:17.613,990.00,991.65,165.00,17.09,0.00,0.66,0.38,9.28,0.00,0.00,-0.00
2026-06-23 20:09:17.615,990.00,991.65,165.00,17.09,0.00,0.66,0.38,9.28,0.00,0.00,-0.00
2026-06-23 20:09:17.617,990.00,991.65,165.00,17.09,0.00,0.66,0.38,9.28,0.00,0.00,-0.00
2026-06-23 20:09:17.621,990.00,991.65,165.00,17.09,0.00,0.66,0.38,9.28,-0.00,0.00,0.00
2026-06-23 20:09:17.622,990.00,991.65,165.00,17.09,0.00,0.65,0.36,9.33,-0.00,0.00,0.00
2026-06-23 20:09:17.623,990.00,991.65,165.00,17.09,0.00,0.65,0.36,9.33,-0.00,0.00,0.00
2026-06-23 20:09:17.624,990.00,991.65,165.00,17.09,0.00,0.65,0.36,9.33,-0.00,0.00,0.00
2026-06-23 20:09:17.628,990.00,991.65,165.00,17.09,0.00,0.65,0.36,9.33,-0.00,0.00,0.00
2026-06-23 20:09:17.631,990.00,991.65,165.00,17.09,0.00,0.65,0.36,9.33,-0.00,-0.00,-0.00
2026-06-23 20:09:17.633,990.00,991.65,165.00,17.09,0.00,0.66,0.38,9.30,-0.00,-0.00,-0.00
2026-06-23 20:09:17.634,990.00,991.65,165.00,17.09,0.00,0.66,0.38,9.30,-0.00,-0.00,-0.00
2026-06-23 20:09:17.637,990.00,991.65,165.00,17.09,0.00,0.66,0.38,9.30,-0.00,-0.00,-0.00
2026-06-23 20:09:17.641,990.00,991.65,165.00,17.09,0.00,0.66,0.38,9.30,-0.00,0.00,-0.00
2026-06-23 20:09:17.642,990.00,991.65,165.00,17.09,0.00,0.65,0.38,9.27,-0.00,0.00,-0.00
2026-06-23 20:09:17.643,990.00,991.65,165.00,17.09,0.00,0.65,0.38,9.27,-0.00,0.00,-0.00
2026-06-23 20:09:17.644,990.00,991.65,165.00,17.09,0.00,0.65,0.38,9.27,-0.00,0.00,-0.00
2026-06-23 20:09:17.833,990.00,991.62,162.05,16.94,0.00,0.65,0.40,9.29,-0.00,0.00,0.00
2026-06-23 20:09:17.835,990.00,991.62,162.05,16.94,0.00,0.65,0.40,9.29,-0.00,0.00,0.00
2026-06-23 20:09:17.839,990.00,991.62,162.05,16.94,0.00,0.65,0.40,9.29,-0.00,0.00,0.00
2026-06-23 20:09:17.841,990.00,991.62,162.05,16.94,0.00,0.65,0.40,9.29,0.00,0.00,0.00
2026-06-23 20:09:17.843,990.00,991.62,162.05,16.94,0.00,0.66,0.38,9.30,0.00,0.00,0.00
2026-06-23 20:09:17.844,990.00,991.62,162.05,16.94,0.00,0.66,0.38,9.30,0.00,0.00,0.00
2026-06-23 20:09:17.845,990.00,991.62,162.05,16.94,0.00,0.66,0.38,9.30,0.00,0.00,0.00
2026-06-23 20:09:17.851,990.00,991.62,162.05,16.94,0.00,0.66,0.38,9.30,0.00,0.00,0.00
2026-06-23 20:09:17.852,990.00,991.62,162.05,16.94,0.00,0.67,0.39,9.30,0.00,0.00,0.00
2026-06-23 20:09:17.853,990.00,991.62,162.05,16.94,0.00,0.67,0.39,9.30,0.00,0.00,0.00
2026-06-23 20:09:17.855,990.00,991.62,162.05,16.94,0.00,0.67,0.39,9.30,0.00,0.00,0.00
2026-06-23 20:09:17.856,990.00,991.62,162.05,16.94,0.00,0.67,0.39,9.30,0.00,0.00,0.00
2026-06-23 20:09:17.861,990.00,991.62,162.05,16.94,0.00,0.67,0.39,9.30,0.00,0.00,0.00
2026-06-23 20:09:17.863,990.00,991.62,162.05,16.94,0.00,0.66,0.37,9.30,0.00,0.00,0.00
2026-06-23 20:09:17.864,990.00,991.62,162.05,16.94,0.00,0.66,0.37,9.30,0.00,0.00,0.00
2026-06-23 20:09:17.866,990.00,991.62,162.05,16.94,0.00,0.66,0.37,9.30,0.00,0.00,0.00
2026-06-23 20:09:17.867,990.00,991.62,162.05,16.94,0.00,0.66,0.37,9.30,0.00,0.00,0.00
2026-06-23 20:09:17.868,990.00,991.62,162.05,16.94,0.00,0.66,0.37,9.30,0.00,0.00,0.00
2026-06-23 20:09:17.871,990.00,991.62,162.05,16.94,0.00,0.66,0.37,9.30,0.00,0.00,0.00
2026-06-23 20:09:17.872,990.00,991.62,162.05,16.94,0.00,0.66,0.38,9.30,0.00,0.00,-0.00
2026-06-23 20:09:17.873,990.00,991.62,162.05,16.94,0.00,0.66,0.38,9.30,0.00,0.00,-0.00
2026-06-23 20:09:17.875,990.00,991.62,162.05,16.94,0.00,0.66,0.38,9.30,0.00,0.00,-0.00
2026-06-23 20:09:17.876,990.00,991.62,162.05,16.94,0.00,0.66,0.38,9.30,0.00,0.00,-0.00
2026-06-23 20:09:17.881,990.00,991.62,162.05,16.94,0.00,0.66,0.38,9.30,0.00,0.00,-0.00
2026-06-23 20:09:17.883,990.00,991.62,162.05,16.94,0.00,0.65,0.40,9.30,0.00,-0.00,0.00
2026-06-23 20:09:17.884,990.00,991.62,162.05,16.94,0.00,0.65,0.40,9.30,0.00,-0.00,0.00
2026-06-23 20:09:17.885,990.00,991.62,162.05,16.94,0.00,0.65,0.40,9.30,0.00,-0.00,0.00
2026-06-23 20:09:17.890,990.00,991.62,162.05,16.94,0.00,0.65,0.40,9.30,0.00,-0.00,0.00
2026-06-23 20:09:17.892,990.00,991.62,162.05,16.94,0.00,0.66,0.38,9.32,0.00,0.00,-0.00
2026-06-23 20:09:17.893,990.00,991.62,162.05,16.94,0.00,0.66,0.38,9.32,0.00,0.00,-0.00
2026-06-23 20:09:17.894,990.00,991.62,162.05,16.94,0.00,0.66,0.38,9.32,0.00,0.00,-0.00
2026-06-23 20:09:17.896,990.00,991.62,162.05,16.94,0.00,0.66,0.38,9.32,0.00,0.00,-0.00
2026-06-23 20:09:17.899,990.00,991.62,162.05,16.94,0.00,0.66,0.38,9.32,0.00,0.00,-0.00
2026-06-23 20:09:17.902,990.00,991.62,162.05,16.94,0.00,0.66,0.38,9.32,-0.00,-0.00,0.00
2026-06-23 20:09:17.903,990.00,991.62,162.05,16.94,0.00,0.65,0.36,9.28,-0.00,-0.00,0.00
2026-06-23 20:09:17.904,990.00,991.62,162.05,16.94,0.00,0.65,0.36,9.28,-0.00,-0.00,0.00
2026-06-23 20:09:17.905,990.00,991.62,162.05,16.94,0.00,0.65,0.36,9.28,-0.00,-0.00,0.00
2026-06-23 20:09:17.909,990.00,991.62,162.05,16.94,0.00,0.65,0.36,9.28,-0.00,-0.00,0.00
2026-06-23 20:09:17.912,990.00,991.62,162.05,16.94,0.00,0.65,0.36,9.28,0.00,-0.00,0.00
2026-06-23 20:09:17.913,990.00,991.62,162.05,16.94,0.00,0.65,0.38,9.32,0.00,-0.00,0.00
2026-06-23 20:09:17.915,990.00,991.62,162.05,16.94,0.00,0.65,0.38,9.32,0.00,-0.00,0.00
2026-06-23 20:09:17.916,990.00,991.62,162.05,16.94,0.00,0.65,0.38,9.32,0.00,-0.00,0.00
2026-06-23 20:09:17.918,990.00,991.62,162.05,16.94,0.00,0.65,0.38,9.32,0.00,-0.00,0.00
2026-06-23 20:09:17.919,990.00,991.62,162.05,16.94,0.00,0.65,0.38,9.32,0.00,-0.00,0.00
2026-06-23 20:09:17.922,990.00,991.62,162.05,16.94,0.00,0.65,0.38,9.32,-0.00,0.00,0.00
2026-06-23 20:09:17.923,990.00,991.62,162.05,16.94,0.00,0.66,0.36,9.31,-0.00,0.00,0.00
2026-06-23 20:09:17.924,990.00,991.62,162.05,16.94,0.00,0.66,0.36,9.31,-0.00,0.00,0.00
2026-06-23 20:09:17.925,990.00,991.62,162.05,16.94,0.00,0.66,0.36,9.31,-0.00,0.00,0.00
2026-06-23 20:09:17.928,990.00,991.62,162.05,16.94,0.00,0.66,0.36,9.31,-0.00,0.00,0.00
2026-06-23 20:09:17.932,990.00,991.62,162.05,16.94,0.00,0.66,0.36,9.31,-0.00,0.00,0.00
2026-06-23 20:09:17.933,990.00,991.62,162.05,16.94,0.00,0.65,0.38,9.30,-0.00,0.00,0.00
2026-06-23 20:09:18.123,990.00,991.60,160.38,16.85,0.00,0.66,0.38,9.32,0.00,0.00,0.00
2026-06-23 20:09:18.124,990.00,991.60,160.38,16.85,0.00,0.66,0.38,9.32,0.00,0.00,0.00
2026-06-23 20:09:18.125,990.00,991.60,160.38,16.85,0.00,0.66,0.38,9.32,0.00,0.00,0.00
2026-06-23 20:09:18.126,990.00,991.60,160.38,16.85,0.00,0.66,0.38,9.32,0.00,0.00,0.00
2026-06-23 20:09:18.132,990.00,991.60,160.38,16.85,0.00,0.66,0.38,9.32,0.00,0.00,0.00
2026-06-23 20:09:18.133,990.00,991.60,160.38,16.85,0.00,0.65,0.37,9.29,-0.00,0.00,0.00
2026-06-23 20:09:18.135,990.00,991.60,160.38,16.85,0.00,0.65,0.37,9.29,-0.00,0.00,0.00
2026-06-23 20:09:18.136,990.00,991.60,160.38,16.85,0.00,0.65,0.37,9.29,-0.00,0.00,0.00
2026-06-23 20:09:18.140,990.00,991.60,160.38,16.85,0.00,0.65,0.37,9.29,-0.00,0.00,0.00
2026-06-23 20:09:18.142,990.00,991.60,160.38,16.85,0.00,0.67,0.39,9.30,0.00,0.00,-0.00
2026-06-23 20:09:18.143,990.00,991.60,160.38,16.85,0.00,0.67,0.39,9.30,0.00,0.00,-0.00
2026-06-23 20:09:18.145,990.00,991.60,160.38,16.85,0.00,0.67,0.39,9.30,0.00,0.00,-0.00
2026-06-23 20:09:18.146,990.00,991.60,160.38,16.85,0.00,0.67,0.39,9.30,0.00,0.00,-0.00
2026-06-23 20:09:18.152,990.00,991.60,160.38,16.85,0.00,0.67,0.39,9.30,0.00,0.00,-0.00
2026-06-23 20:09:18.153,990.00,991.60,160.38,16.85,0.00,0.66,0.36,9.28,0.00,0.00,0.00
2026-06-23 20:09:18.154,990.00,991.60,160.38,16.85,0.00,0.66,0.36,9.28,0.00,0.00,0.00
2026-06-23 20:09:18.155,990.00,991.60,160.38,16.85,0.00,0.66,0.36,9.28,0.00,0.00,0.00
2026-06-23 20:09:18.156,990.00,991.60,160.38,16.85,0.00,0.66,0.36,9.28,0.00,0.00,0.00
2026-06-23 20:09:18.162,990.00,991.60,160.38,16.85,0.00,0.66,0.36,9.28,0.00,0.00,0.00
2026-06-23 20:09:18.163,990.00,991.60,160.38,16.85,0.00,0.66,0.37,9.27,0.00,-0.00,-0.00
2026-06-23 20:09:18.165,990.00,991.60,160.38,16.85,0.00,0.66,0.37,9.27,0.00,-0.00,-0.00
2026-06-23 20:09:18.166,990.00,991.60,160.38,16.85,0.00,0.66,0.37,9.27,0.00,-0.00,-0.00
2026-06-23 20:09:18.168,990.00,991.60,160.38,16.85,0.00,0.66,0.37,9.27,0.00,-0.00,-0.00
2026-06-23 20:09:18.169,990.00,991.60,160.38,16.85,0.00,0.66,0.37,9.27,0.00,-0.00,-0.00
2026-06-23 20:09:18.171,990.00,991.60,160.38,16.85,0.00,0.66,0.37,9.27,0.00,-0.00,-0.00
2026-06-23 20:09:18.173,990.00,991.60,160.38,16.85,0.00,0.66,0.37,9.31,0.00,-0.00,0.00
2026-06-23 20:09:18.174,990.00,991.60,160.38,16.85,0.00,0.66,0.37,9.31,0.00,-0.00,0.00
2026-06-23 20:09:18.175,990.00,991.60,160.38,16.85,0.00,0.66,0.37,9.31,0.00,-0.00,0.00
2026-06-23 20:09:18.176,990.00,991.60,160.38,16.85,0.00,0.66,0.37,9.31,0.00,-0.00,0.00
2026-06-23 20:09:18.180,990.00,991.60,160.38,16.85,0.00,0.66,0.37,9.31,0.00,-0.00,0.00
2026-06-23 20:09:18.183,990.00,991.60,160.38,16.85,0.00,0.66,0.37,9.31,0.00,-0.00,0.00
2026-06-23 20:09:18.184,990.00,991.60,160.38,16.85,0.00,0.66,0.38,9.29,0.00,-0.00,0.00
2026-06-23 20:09:18.185,990.00,991.60,160.38,16.85,0.00,0.66,0.38,9.29,0.00,-0.00,0.00
2026-06-23 20:09:18.186,990.00,991.60,160.38,16.85,0.00,0.66,0.38,9.29,0.00,-0.00,0.00
2026-06-23 20:09:18.192,990.00,991.60,160.38,16.85,0.00,0.66,0.38,9.29,0.00,-0.00,0.00
2026-06-23 20:09:18.193,990.00,991.60,160.38,16.85,0.00,0.66,0.40,9.29,-0.00,0.00,0.00
2026-06-23 20:09:18.194,990.00,991.60,160.38,16.85,0.00,0.66,0.40,9.29,-0.00,0.00,0.00
2026-06-23 20:09:18.195,990.00,991.60,160.38,16.85,0.00,0.66,0.40,9.29,-0.00,0.00,0.00
2026-06-23 20:09:18.197,990.00,991.60,160.38,16.85,0.00,0.66,0.40,9.29,-0.00,0.00,0.00
2026-06-23 20:09:18.202,990.00,991.60,160.38,16.85,0.00,0.66,0.40,9.29,-0.00,0.00,0.00
2026-06-23 20:09:18.203,990.00,991.60,160.38,16.85,0.00,0.65,0.39,9.30,0.00,-0.00,0.00
2026-06-23 20:09:18.204,990.00,991.60,160.38,16.85,0.00,0.65,0.39,9.30,0.00,-0.00,0.00
2026-06-23 20:09:18.205,990.00,991.60,160.38,16.85,0.00,0.65,0.39,9.30,0.00,-0.00,0.00
2026-06-23 20:09:18.207,990.00,991.60,160.38,16.85,0.00,0.65,0.39,9.30,0.00,-0.00,0.00
2026-06-23 20:09:18.212,990.00,991.60,160.38,16.85,0.00,0.65,0.39,9.30,0.00,-0.00,0.00
2026-06-23 20:09:18.214,990.00,991.60,160.38,16.85,0.00,0.65,0.37,9.29,0.00,-0.00,-0.00
2026-06-23 20:09:18.215,990.00,991.60,160.38,16.85,0.00,0.65,0.37,9.29,0.00,-0.00,-0.00
2026-06-23 20:09:18.217,990.00,991.60,160.38,16.85,0.00,0.65,0.37,9.29,0.00,-0.00,-0.00
2026-06-23 20:09:18.218,990.00,991.60,160.38,16.85,0.00,0.65,0.37,9.29,0.00,-0.00,-0.00
2026-06-23 20:09:18.219,990.00,991.60,160.38,16.85,0.00,0.65,0.37,9.29,0.00,-0.00,-0.00
2026-06-23 20:09:18.221,990.00,991.60,160.38,16.85,0.00,0.65,0.37,9.29,0.00,-0.00,-0.00
2026-06-23 20:09:18.224,990.00,991.60,160.38,16.85,0.00,0.67,0.39,9.30,0.00,0.00,-0.00
2026-06-23 20:09:18.415,990.00,991.63,162.51,16.96,0.00,0.66,0.36,9.31,-0.00,0.00,0.00
2026-06-23 20:09:18.421,990.00,991.63,162.51,16.96,0.00,0.66,0.36,9.31,-0.00,0.00,0.00
2026-06-23 20:09:18.424,990.00,991.63,162.51,16.96,0.00,0.67,0.39,9.31,0.00,-0.00,-0.00
2026-06-23 20:09:18.432,990.00,991.63,162.51,16.96,0.00,0.67,0.39,9.31,0.00,-0.00,-0.00
2026-06-23 20:09:18.436,990.00,991.63,162.51,16.96,0.00,0.67,0.39,9.29,-0.00,-0.00,0.00
2026-06-23 20:09:18.443,990.00,991.63,162.51,16.96,0.00,0.67,0.39,9.29,-0.00,-0.00,0.00
2026-06-23 20:09:18.456,990.00,991.63,162.51,16.96,0.00,0.65,0.37,9.27,-0.00,0.00,-0.00
2026-06-23 20:09:18.462,990.00,991.63,162.51,16.96,0.00,0.66,0.38,9.33,-0.00,0.00,-0.00
2026-06-23 20:09:18.464,990.00,991.63,162.51,16.96,0.00,0.64,0.38,9.30,-0.00,0.00,0.00
2026-06-23 20:09:18.473,990.00,991.63,162.51,16.96,0.00,0.64,0.38,9.30,0.00,0.00,0.00
2026-06-23 20:09:18.475,990.00,991.63,162.51,16.96,0.00,0.66,0.40,9.29,0.00,0.00,0.00
2026-06-23 20:09:18.482,990.00,991.63,162.51,16.96,0.00,0.66,0.40,9.29,0.00,0.00,0.00
2026-06-23 20:09:18.484,990.00,991.63,162.51,16.96,0.00,0.65,0.40,9.30,-0.00,0.00,-0.00
2026-06-23 20:09:18.486,990.00,991.63,162.51,16.96,0.00,0.65,0.40,9.30,-0.00,0.00,-0.00
2026-06-23 20:09:18.494,990.00,991.63,162.51,16.96,0.00,0.65,0.40,9.30,-0.00,0.00,0.00
2026-06-23 20:09:18.502,990.00,991.63,162.51,16.96,0.00,0.66,0.36,9.28,-0.00,0.00,0.00
2026-06-23 20:09:18.504,990.00,991.63,162.51,16.96,0.00,0.65,0.37,9.28,-0.00,0.00,0.00
2026-06-23 20:09:18.513,990.00,991.63,162.51,16.96,0.00,0.65,0.37,9.28,-0.00,0.00,0.00
2026-06-23 20:09:18.704,990.00,991.64,163.67,17.02,0.00,0.65,0.38,9.28,-0.00,-0.00,-0.00
2026-06-23 20:09:18.705,990.00,991.64,163.67,17.02,0.00,0.67,0.38,9.30,-0.00,-0.00,-0.00
2026-06-23 20:09:18.707,990.00,991.64,163.67,17.02,0.00,0.67,0.38,9.30,-0.00,-0.00,-0.00
2026-06-23 20:09:18.710,990.00,991.64,163.67,17.03,0.00,0.67,0.38,9.30,-0.00,-0.00,-0.00
2026-06-23 20:09:18.714,990.00,991.64,163.67,17.03,0.00,0.67,0.38,9.30,-0.00,0.00,0.00
2026-06-23 20:09:18.716,990.00,991.64,163.67,17.03,0.00,0.66,0.38,9.29,-0.00,0.00,0.00
2026-06-23 20:09:18.717,990.00,991.64,163.67,17.03,0.00,0.66,0.38,9.29,-0.00,0.00,0.00
2026-06-23 20:09:18.719,990.00,991.64,163.67,17.03,0.00,0.66,0.38,9.29,-0.00,0.00,0.00
2026-06-23 20:09:18.721,990.00,991.64,163.67,17.03,0.00,0.66,0.38,9.29,-0.00,0.00,0.00
2026-06-23 20:09:18.724,990.00,991.64,163.67,17.03,0.00,0.66,0.38,9.29,-0.00,0.00,0.00
2026-06-23 20:09:18.725,990.00,991.64,163.67,17.03,0.00,0.66,0.36,9.29,-0.00,0.00,0.00
2026-06-23 20:09:18.727,990.00,991.64,163.67,17.03,0.00,0.66,0.36,9.29,-0.00,0.00,0.00
2026-06-23 20:09:18.731,990.00,991.64,163.67,17.03,0.00,0.66,0.36,9.29,-0.00,0.00,0.00
2026-06-23 20:09:18.734,990.00,991.64,163.67,17.03,0.00,0.66,0.36,9.29,-0.00,0.00,0.00
2026-06-23 20:09:18.736,990.00,991.64,163.67,17.03,0.00,0.66,0.37,9.25,-0.00,0.00,0.00
2026-06-23 20:09:18.737,990.00,991.64,163.67,17.03,0.00,0.66,0.37,9.25,-0.00,0.00,0.00
2026-06-23 20:09:18.743,990.00,991.64,163.67,17.03,0.00,0.66,0.37,9.25,-0.00,0.00,0.00
2026-06-23 20:09:18.745,990.00,991.64,163.67,17.03,0.00,0.65,0.41,9.26,0.00,-0.00,0.00
2026-06-23 20:09:18.746,990.00,991.64,163.67,17.03,0.00,0.65,0.41,9.26,0.00,-0.00,0.00
2026-06-23 20:09:18.749,990.00,991.64,163.67,17.03,0.00,0.65,0.41,9.26,0.00,-0.00,0.00
2026-06-23 20:09:18.754,990.00,991.64,163.67,17.03,0.00,0.65,0.41,9.26,-0.00,0.00,0.00
2026-06-23 20:09:18.755,990.00,991.64,163.67,17.03,0.00,0.65,0.38,9.27,-0.00,0.00,0.00
2026-06-23 20:09:18.757,990.00,991.64,163.67,17.03,0.00,0.65,0.38,9.27,-0.00,0.00,0.00
2026-06-23 20:09:18.758,990.00,991.64,163.67,17.03,0.00,0.65,0.38,9.27,-0.00,0.00,0.00
2026-06-23 20:09:18.763,990.00,991.64,163.67,17.03,0.00,0.65,0.38,9.27,-0.00,0.00,0.00
2026-06-23 20:09:18.765,990.00,991.64,163.67,17.03,0.00,0.66,0.37,9.29,-0.00,-0.00,-0.00
2026-06-23 20:09:18.767,990.00,991.64,163.67,17.03,0.00,0.66,0.37,9.29,-0.00,-0.00,-0.00
2026-06-23 20:09:18.769,990.00,991.64,163.67,17.03,0.00,0.66,0.37,9.29,-0.00,-0.00,-0.00
2026-06-23 20:09:18.770,990.00,991.64,163.67,17.03,0.00,0.66,0.37,9.29,-0.00,-0.00,-0.00
2026-06-23 20:09:18.773,990.00,991.64,163.67,17.03,0.00,0.66,0.37,9.29,-0.00,-0.00,-0.00
2026-06-23 20:09:18.775,990.00,991.64,163.67,17.03,0.00,0.65,0.36,9.32,-0.00,-0.00,-0.00
2026-06-23 20:09:18.776,990.00,991.64,163.67,17.03,0.00,0.65,0.36,9.32,-0.00,-0.00,-0.00
2026-06-23 20:09:18.778,990.00,991.64,163.67,17.03,0.00,0.65,0.36,9.32,-0.00,-0.00,-0.00
2026-06-23 20:09:18.783,990.00,991.64,163.67,17.03,0.00,0.65,0.36,9.32,-0.00,-0.00,-0.00
2026-06-23 20:09:18.785,990.00,991.64,163.67,17.03,0.00,0.65,0.37,9.31,0.00,0.00,-0.00
2026-06-23 20:09:18.787,990.00,991.64,163.67,17.03,0.00,0.65,0.37,9.31,0.00,0.00,-0.00
2026-06-23 20:09:18.791,990.00,991.64,163.67,17.03,0.00,0.65,0.37,9.31,0.00,0.00,-0.00
2026-06-23 20:09:18.794,990.00,991.64,163.67,17.03,0.00,0.65,0.37,9.31,0.00,0.00,0.00
2026-06-23 20:09:18.795,990.00,991.64,163.67,17.03,0.00,0.65,0.38,9.30,0.00,0.00,0.00
2026-06-23 20:09:18.797,990.00,991.64,163.67,17.03,0.00,0.65,0.38,9.30,0.00,0.00,0.00
2026-06-23 20:09:18.799,990.00,991.64,163.67,17.03,0.00,0.65,0.38,9.30,0.00,0.00,0.00
2026-06-23 20:09:18.803,990.00,991.64,163.67,17.03,0.00,0.65,0.38,9.30,0.00,-0.00,0.00
2026-06-23 20:09:18.995,990.00,991.64,163.69,17.03,0.00,0.66,0.38,9.27,0.00,-0.00,0.00
2026-06-23 20:09:18.997,990.00,991.64,163.69,17.03,0.00,0.66,0.38,9.27,0.00,-0.00,0.00
2026-06-23 20:09:18.998,990.00,991.64,163.69,17.03,0.00,0.66,0.38,9.27,0.00,-0.00,0.00
2026-06-23 20:09:18.003,990.00,991.64,163.69,17.03,0.00,0.66,0.38,9.27,0.00,-0.00,0.00
2026-06-23 20:09:19.005,990.00,991.64,163.69,17.03,0.00,0.65,0.39,9.29,0.00,-0.00,0.00
2026-06-23 20:09:19.006,990.00,991.64,163.69,17.03,0.00,0.65,0.39,9.29,0.00,-0.00,0.00
2026-06-23 20:09:19.008,990.00,991.64,163.69,17.03,0.00,0.65,0.39,9.29,0.00,-0.00,0.00
2026-06-23 20:09:19.011,990.00,991.64,163.69,17.03,0.00,0.65,0.39,9.29,0.00,-0.00,0.00
2026-06-23 20:09:19.015,990.00,991.64,163.69,17.03,0.00,0.65,0.39,9.29,0.00,-0.00,0.00
2026-06-23 20:09:19.017,990.00,991.64,163.69,17.03,0.00,0.66,0.37,9.27,0.00,-0.00,0.00
2026-06-23 20:09:19.018,990.00,991.64,163.69,17.03,0.00,0.66,0.37,9.27,0.00,-0.00,0.00
2026-06-23 20:09:19.020,990.00,991.64,163.69,17.03,0.00,0.66,0.37,9.27,0.00,-0.00,0.00
2026-06-23 20:09:19.021,990.00,991.64,163.69,17.03,0.00,0.66,0.37,9.27,0.00,-0.00,0.00
2026-06-23 20:09:19.024,990.00,991.64,163.69,17.03,0.00,0.66,0.37,9.27,0.00,-0.00,0.00
2026-06-23 20:09:19.026,990.00,991.64,163.69,17.03,0.00,0.66,0.37,9.33,0.00,-0.00,0.00
2026-06-23 20:09:19.027,990.00,991.64,163.69,17.03,0.00,0.66,0.37,9.33,0.00,-0.00,0.00
2026-06-23 20:09:19.031,990.00,991.64,163.69,17.03,0.00,0.66,0.37,9.33,0.00,-0.00,0.00
2026-06-23 20:09:19.035,990.00,991.64,163.69,17.03,0.00,0.66,0.37,9.33,0.00,-0.00,0.00
2026-06-23 20:09:19.036,990.00,991.64,163.69,17.03,0.00,0.66,0.39,9.32,0.00,-0.00,0.00
2026-06-23 20:09:19.038,990.00,991.64,163.69,17.03,0.00,0.66,0.39,9.32,0.00,-0.00,0.00
2026-06-23 20:09:19.041,990.00,991.64,163.69,17.03,0.00,0.66,0.39,9.32,0.00,-0.00,0.00
2026-06-23 20:09:19.045,990.00,991.64,163.69,17.03,0.00,0.66,0.39,9.32,0.00,-0.00,-0.00
2026-06-23 20:09:19.046,990.00,991.64,163.69,17.03,0.00,0.67,0.36,9.29,0.00,-0.00,-0.00
2026-06-23 20:09:19.048,990.00,991.64,163.69,17.03,0.00,0.67,0.36,9.29,0.00,-0.00,-0.00
2026-06-23 20:09:19.054,990.00,991.64,163.69,17.03,0.00,0.67,0.36,9.29,0.00,-0.00,-0.00
2026-06-23 20:09:19.055,990.00,991.64,163.69,17.03,0.00,0.66,0.38,9.30,-0.00,-0.00,0.00
2026-06-23 20:09:19.057,990.00,991.64,163.69,17.03,0.00,0.66,0.38,9.30,-0.00,-0.00,0.00
2026-06-23 20:09:19.058,990.00,991.64,163.69,17.03,0.00,0.66,0.38,9.30,-0.00,-0.00,0.00
2026-06-23 20:09:19.062,990.00,991.64,163.69,17.03,0.00,0.66,0.38,9.30,-0.00,-0.00,0.00
2026-06-23 20:09:19.065,990.00,991.64,163.69,17.03,0.00,0.66,0.38,9.30,-0.00,0.00,0.00
2026-06-23 20:09:19.067,990.00,991.64,163.69,17.03,0.00,0.66,0.40,9.34,-0.00,0.00,0.00
2026-06-23 20:09:19.069,990.00,991.64,163.69,17.03,0.00,0.66,0.40,9.34,-0.00,0.00,0.00
2026-06-23 20:09:19.070,990.00,991.64,163.69,17.03,0.00,0.66,0.40,9.34,-0.00,0.00,0.00
2026-06-23 20:09:19.071,990.00,991.64,163.69,17.03,0.00,0.66,0.40,9.34,-0.00,0.00,0.00
2026-06-23 20:09:19.074,990.00,991.64,163.69,17.03,0.00,0.66,0.40,9.34,0.00,0.00,0.00
2026-06-23 20:09:19.076,990.00,991.64,163.69,17.03,0.00,0.66,0.37,9.28,0.00,0.00,0.00
2026-06-23 20:09:19.077,990.00,991.64,163.69,17.03,0.00,0.66,0.37,9.28,0.00,0.00,0.00
2026-06-23 20:09:19.081,990.00,991.64,163.69,17.03,0.00,0.66,0.37,9.28,0.00,0.00,0.00
2026-06-23 20:09:19.085,990.00,991.64,163.69,17.03,0.00,0.66,0.37,9.28,0.00,-0.00,0.00
2026-06-23 20:09:19.087,990.00,991.64,163.69,17.03,0.00,0.66,0.39,9.30,0.00,-0.00,0.00
2026-06-23 20:09:19.088,990.00,991.64,163.69,17.03,0.00,0.66,0.39,9.30,0.00,-0.00,0.00
2026-06-23 20:09:19.093,990.00,991.64,163.69,17.03,0.00,0.66,0.39,9.30,0.00,-0.00,0.00
2026-06-23 20:09:19.095,990.00,991.64,163.69,17.03,0.00,0.65,0.38,9.28,0.00,0.00,0.00
2026-06-23 20:09:19.287,990.00,991.58,157.78,16.72,0.00,0.66,0.38,9.33,0.00,-0.00,-0.00
2026-06-23 20:09:19.288,990.00,991.58,157.78,16.72,0.00,0.66,0.38,9.33,0.00,-0.00,-0.00
2026-06-23 20:09:19.294,990.00,991.58,157.78,16.72,0.00,0.66,0.38,9.33,0.00,-0.00,-0.00
2026-06-23 20:09:19.296,990.00,991.58,157.78,16.72,0.00,0.65,0.39,9.28,0.00,0.00,-0.00
2026-06-23 20:09:19.297,990.00,991.58,157.78,16.72,0.00,0.65,0.39,9.28,0.00,0.00,-0.00
2026-06-23 20:09:19.299,990.00,991.58,157.78,16.72,0.00,0.65,0.39,9.28,0.00,0.00,-0.00
2026-06-23 20:09:19.303,990.00,991.58,157.78,16.72,0.00,0.65,0.39,9.28,0.00,0.00,-0.00
2026-06-23 20:09:19.305,990.00,991.58,157.78,16.72,0.00,0.65,0.39,9.29,0.00,-0.00,-0.00
2026-06-23 20:09:19.307,990.00,991.58,157.78,16.72,0.00,0.65,0.39,9.29,0.00,-0.00,-0.00
2026-06-23 20:09:19.308,990.00,991.58,157.78,16.72,0.00,0.65,0.39,9.29,0.00,-0.00,-0.00
2026-06-23 20:09:19.311,990.00,991.58,157.78,16.72,0.00,0.65,0.39,9.29,0.00,-0.00,-0.00
2026-06-23 20:09:19.317,990.00,991.58,157.78,16.72,0.00,0.65,0.39,9.29,0.00,-0.00,0.00
2026-06-23 20:09:19.319,990.00,991.58,157.78,16.72,0.00,0.67,0.38,9.32,0.00,-0.00,0.00
2026-06-23 20:09:19.320,990.00,991.58,157.78,16.72,0.00,0.67,0.38,9.32,0.00,-0.00,0.00
2026-06-23 20:09:19.321,990.00,991.58,157.78,16.72,0.00,0.67,0.38,9.32,0.00,-0.00,0.00
2026-06-23 20:09:19.325,990.00,991.58,157.78,16.72,0.00,0.67,0.38,9.32,0.00,-0.00,0.00
2026-06-23 20:09:19.326,990.00,991.58,157.78,16.72,0.00,0.66,0.38,9.30,0.00,0.00,0.00
2026-06-23 20:09:19.327,990.00,991.58,157.78,16.72,0.00,0.66,0.38,9.30,0.00,0.00,0.00
2026-06-23 20:09:19.329,990.00,991.58,157.78,16.72,0.00,0.66,0.38,9.30,0.00,0.00,0.00
2026-06-23 20:09:19.335,990.00,991.58,157.78,16.72,0.00,0.66,0.38,9.30,0.00,0.00,0.00
2026-06-23 20:09:19.336,990.00,991.58,157.78,16.72,0.00,0.67,0.37,9.28,-0.00,0.00,0.00
2026-06-23 20:09:19.338,990.00,991.58,157.78,16.72,0.00,0.67,0.37,9.28,-0.00,0.00,0.00
2026-06-23 20:09:19.339,990.00,991.58,157.78,16.72,0.00,0.67,0.37,9.28,-0.00,0.00,0.00
2026-06-23 20:09:19.345,990.00,991.58,157.78,16.72,0.00,0.67,0.37,9.28,-0.00,0.00,0.00
2026-06-23 20:09:19.346,990.00,991.58,157.78,16.72,0.00,0.67,0.39,9.27,0.00,-0.01,0.00
2026-06-23 20:09:19.348,990.00,991.58,157.78,16.72,0.00,0.67,0.39,9.27,0.00,-0.01,0.00
2026-06-23 20:09:19.352,990.00,991.58,157.78,16.72,0.00,0.67,0.39,9.27,0.00,-0.01,0.00
2026-06-23 20:09:19.355,990.00,991.58,157.78,16.72,0.00,0.67,0.39,9.27,0.00,0.00,0.00
2026-06-23 20:09:19.357,990.00,991.58,157.78,16.72,0.00,0.67,0.39,9.26,0.00,0.00,0.00
2026-06-23 20:09:19.358,990.00,991.58,157.78,16.72,0.00,0.67,0.39,9.26,0.00,0.00,0.00
2026-06-23 20:09:19.360,990.00,991.58,157.78,16.72,0.00,0.67,0.39,9.26,0.00,0.00,0.00
2026-06-23 20:09:19.365,990.00,991.58,157.78,16.72,0.00,0.67,0.39,9.26,0.00,0.00,0.00
2026-06-23 20:09:19.367,990.00,991.58,157.78,16.72,0.00,0.66,0.38,9.31,0.00,0.00,-0.00
2026-06-23 20:09:19.368,990.00,991.58,157.78,16.72,0.00,0.66,0.38,9.31,0.00,0.00,-0.00
2026-06-23 20:09:19.370,990.00,991.58,157.78,16.72,0.00,0.66,0.38,9.31,0.00,0.00,-0.00
2026-06-23 20:09:19.371,990.00,991.58,157.78,16.72,0.00,0.66,0.38,9.31,0.00,0.00,-0.00
2026-06-23 20:09:19.373,990.00,991.58,157.78,16.72,0.00,0.66,0.38,9.31,0.00,0.00,-0.00
2026-06-23 20:09:19.376,990.00,991.58,157.78,16.72,0.00,0.66,0.38,9.31,0.00,0.00,0.00
2026-06-23 20:09:19.377,990.00,991.58,157.78,16.72,0.00,0.66,0.38,9.31,0.00,0.00,0.00
2026-06-23 20:09:19.379,990.00,991.58,157.78,16.72,0.00,0.66,0.38,9.31,0.00,0.00,0.00
2026-06-23 20:09:19.382,990.00,991.58,157.78,16.72,0.00,0.66,0.38,9.31,0.00,0.00,0.00
2026-06-23 20:09:19.386,990.00,991.58,157.78,16.72,0.00,0.66,0.38,9.31,0.00,0.00,0.00
2026-06-23 20:09:19.578,990.00,991.56,156.26,16.64,0.00,0.66,0.38,9.29,0.00,0.00,0.00
2026-06-23 20:09:19.581,990.00,991.56,156.26,16.64,0.00,0.66,0.38,9.29,0.00,0.00,0.00
2026-06-23 20:09:19.586,990.00,991.56,156.26,16.64,0.00,0.66,0.38,9.29,-0.00,-0.00,-0.00
2026-06-23 20:09:19.587,990.00,991.56,156.26,16.64,0.00,0.66,0.36,9.29,-0.00,-0.00,-0.00
2026-06-23 20:09:19.589,990.00,991.56,156.26,16.64,0.00,0.66,0.36,9.29,-0.00,-0.00,-0.00
2026-06-23 20:09:19.593,990.00,991.56,156.26,16.64,0.00,0.66,0.36,9.29,-0.00,-0.00,-0.00
2026-06-23 20:09:19.596,990.00,991.56,156.26,16.64,0.00,0.66,0.36,9.29,0.00,0.00,-0.00
2026-06-23 20:09:19.598,990.00,991.56,156.26,16.64,0.00,0.67,0.37,9.30,0.00,0.00,-0.00
2026-06-23 20:09:19.599,990.00,991.56,156.26,16.64,0.00,0.67,0.37,9.30,0.00,0.00,-0.00
2026-06-23 20:09:19.604,990.00,991.56,156.26,16.64,0.00,0.67,0.37,9.30,0.00,0.00,-0.00
2026-06-23 20:09:19.606,990.00,991.56,156.26,16.64,0.00,0.67,0.37,9.30,0.00,0.00,0.00
2026-06-23 20:09:19.608,990.00,991.56,156.26,16.64,0.00,0.66,0.38,9.28,0.00,0.00,0.00
2026-06-23 20:09:19.609,990.00,991.56,156.26,16.64,0.00,0.66,0.38,9.28,0.00,0.00,0.00
2026-06-23 20:09:19.612,990.00,991.56,156.26,16.64,0.00,0.66,0.38,9.28,0.00,0.00,0.00
2026-06-23 20:09:19.616,990.00,991.56,156.26,16.64,0.00,0.66,0.38,9.28,0.00,0.00,0.00
2026-06-23 20:09:19.618,990.00,991.56,156.26,16.64,0.00,0.66,0.38,9.31,0.00,0.00,0.00
2026-06-23 20:09:19.620,990.00,991.56,156.26,16.64,0.00,0.66,0.38,9.31,0.00,0.00,0.00
2026-06-23 20:09:19.621,990.00,991.56,156.26,16.64,0.00,0.66,0.38,9.31,0.00,0.00,0.00
2026-06-23 20:09:19.622,990.00,991.56,156.26,16.64,0.00,0.66,0.38,9.31,0.00,0.00,0.00
2026-06-23 20:09:19.625,990.00,991.56,156.26,16.64,0.00,0.66,0.38,9.31,0.00,0.00,0.00
2026-06-23 20:09:19.627,990.00,991.56,156.26,16.64,0.00,0.66,0.37,9.29,0.00,0.00,-0.00
2026-06-23 20:09:19.628,990.00,991.56,156.26,16.64,0.00,0.66,0.37,9.29,0.00,0.00,-0.00
2026-06-23 20:09:19.630,990.00,991.56,156.26,16.64,0.00,0.66,0.37,9.29,0.00,0.00,-0.00
2026-06-23 20:09:19.636,990.00,991.56,156.26,16.64,0.00,0.66,0.37,9.29,0.00,0.00,-0.00
2026-06-23 20:09:19.637,990.00,991.56,156.26,16.64,0.00,0.64,0.37,9.29,0.00,0.00,0.00
2026-06-23 20:09:19.639,990.00,991.56,156.26,16.64,0.00,0.64,0.37,9.29,0.00,0.00,0.00
2026-06-23 20:09:19.640,990.00,991.56,156.26,16.64,0.00,0.64,0.37,9.29,0.00,0.00,0.00
2026-06-23 20:09:19.645,990.00,991.56,156.26,16.64,0.00,0.64,0.37,9.29,0.00,0.00,0.00
2026-06-23 20:09:19.647,990.00,991.56,156.26,16.64,0.00,0.66,0.37,9.27,0.00,0.00,-0.00
2026-06-23 20:09:19.649,990.00,991.56,156.26,16.64,0.00,0.66,0.37,9.27,0.00,0.00,-0.00
2026-06-23 20:09:19.652,990.00,991.56,156.26,16.64,0.00,0.66,0.37,9.27,0.00,0.00,-0.00
2026-06-23 20:09:19.656,990.00,991.56,156.26,16.64,0.00,0.66,0.37,9.27,-0.00,-0.00,0.00
2026-06-23 20:09:19.657,990.00,991.56,156.26,16.64,0.00,0.65,0.38,9.29,-0.00,-0.00,0.00
2026-06-23 20:09:19.659,990.00,991.56,156.26,16.64,0.00,0.65,0.38,9.29,-0.00,-0.00,0.00
2026-06-23 20:09:19.660,990.00,991.56,156.26,16.64,0.00,0.65,0.38,9.29,-0.00,-0.00,0.00
2026-06-23 20:09:19.666,990.00,991.56,156.26,16.64,0.00,0.65,0.38,9.29,-0.00,-0.00,0.00
2026-06-23 20:09:19.668,990.00,991.56,156.26,16.64,0.00,0.67,0.38,9.31,0.00,0.00,0.00
2026-06-23 20:09:19.669,990.00,991.56,156.26,16.64,0.00,0.67,0.38,9.31,0.00,0.00,0.00
2026-06-23 20:09:19.671,990.00,991.56,156.26,16.64,0.00,0.67,0.38,9.31,0.00,0.00,0.00
2026-06-23 20:09:19.672,990.00,991.56,156.26,16.64,0.00,0.67,0.38,9.31,0.00,0.00,0.00
2026-06-23 20:09:19.673,990.00,991.56,156.26,16.64,0.00,0.67,0.38,9.31,0.00,0.00,0.00
2026-06-23 20:09:19.676,990.00,991.56,156.26,16.64,0.00,0.67,0.38,9.31,0.00,-0.00,0.00
2026-06-23 20:09:19.678,990.00,991.56,156.26,16.64,0.00,0.65,0.38,9.29,0.00,-0.00,0.00
2026-06-23 20:09:19.869,990.00,991.63,162.75,16.98,0.00,0.67,0.37,9.30,-0.00,0.00,0.00
2026-06-23 20:09:19.871,990.00,991.63,162.75,16.98,0.00,0.67,0.37,9.30,-0.00,0.00,0.00
2026-06-23 20:09:19.872,990.00,991.63,162.75,16.98,0.00,0.67,0.37,9.30,-0.00,0.00,0.00
2026-06-23 20:09:19.873,990.00,991.63,162.75,16.98,0.00,0.67,0.37,9.30,-0.00,0.00,0.00
2026-06-23 20:09:19.877,990.00,991.63,162.75,16.98,0.00,0.67,0.37,9.30,0.00,-0.01,0.00
2026-06-23 20:09:19.878,990.00,991.63,162.75,16.98,0.00,0.66,0.40,9.29,0.00,-0.01,0.00
2026-06-23 20:09:19.880,990.00,991.63,162.75,16.98,0.00,0.66,0.40,9.29,0.00,-0.01,0.00
2026-06-23 20:09:19.884,990.00,991.63,162.75,16.98,0.00,0.66,0.40,9.29,0.00,-0.01,0.00
2026-06-23 20:09:19.887,990.00,991.63,162.75,16.98,0.00,0.66,0.40,9.29,-0.00,0.00,-0.00
2026-06-23 20:09:19.888,990.00,991.63,162.75,16.98,0.00,0.67,0.38,9.30,-0.00,0.00,-0.00
2026-06-23 20:09:19.890,990.00,991.63,162.75,16.98,0.00,0.67,0.38,9.30,-0.00,0.00,-0.00
2026-06-23 20:09:19.894,990.00,991.63,162.75,16.98,0.00,0.67,0.38,9.30,-0.00,0.00,-0.00
2026-06-23 20:09:19.897,990.00,991.63,162.75,16.98,0.00,0.67,0.38,9.30,0.00,0.00,-0.00
2026-06-23 20:09:19.899,990.00,991.63,162.75,16.98,0.00,0.66,0.39,9.29,0.00,0.00,-0.00
2026-06-23 20:09:19.900,990.00,991.63,162.75,16.98,0.00,0.66,0.39,9.29,0.00,0.00,-0.00
2026-06-23 20:09:19.904,990.00,991.63,162.75,16.98,0.00,0.66,0.39,9.29,0.00,0.00,-0.00
2026-06-23 20:09:19.907,990.00,991.63,162.75,16.98,0.00,0.66,0.39,9.29,-0.00,-0.00,-0.00
2026-06-23 20:09:19.908,990.00,991.63,162.75,16.98,0.00,0.66,0.38,9.31,-0.00,-0.00,-0.00
2026-06-23 20:09:19.909,990.00,991.63,162.75,16.98,0.00,0.66,0.38,9.31,-0.00,-0.00,-0.00
2026-06-23 20:09:19.913,990.00,991.63,162.75,16.98,0.00,0.66,0.38,9.31,-0.00,-0.00,-0.00
2026-06-23 20:09:19.917,990.00,991.63,162.75,16.98,0.00,0.66,0.38,9.31,-0.00,-0.00,0.00
2026-06-23 20:09:19.919,990.00,991.63,162.75,16.98,0.00,0.66,0.38,9.30,-0.00,-0.00,0.00
2026-06-23 20:09:19.920,990.00,991.63,162.75,16.98,0.00,0.66,0.38,9.30,-0.00,-0.00,0.00
2026-06-23 20:09:19.922,990.00,991.63,162.75,16.98,0.00,0.66,0.38,9.30,-0.00,-0.00,0.00
2026-06-23 20:09:19.923,990.00,991.63,162.75,16.98,0.00,0.66,0.38,9.30,-0.00,-0.00,0.00
2026-06-23 20:09:19.926,990.00,991.63,162.75,16.98,0.00,0.66,0.38,9.30,-0.00,-0.00,0.00
2026-06-23 20:09:19.927,990.00,991.63,162.75,16.98,0.00,0.65,0.38,9.29,-0.00,0.00,0.00
2026-06-23 20:09:19.929,990.00,991.63,162.75,16.98,0.00,0.65,0.38,9.29,-0.00,0.00,0.00
2026-06-23 20:09:19.930,990.00,991.63,162.75,16.98,0.00,0.65,0.38,9.29,-0.00,0.00,0.00
2026-06-23 20:09:19.936,990.00,991.63,162.75,16.98,0.00,0.65,0.38,9.29,-0.00,0.00,0.00
2026-06-23 20:09:19.938,990.00,991.63,162.75,16.98,0.00,0.66,0.40,9.32,0.00,0.00,0.00
2026-06-23 20:09:19.939,990.00,991.63,162.75,16.98,0.00,0.66,0.40,9.32,0.00,0.00,0.00
2026-06-23 20:09:19.940,990.00,991.63,162.75,16.98,0.00,0.66,0.40,9.32,0.00,0.00,0.00
2026-06-23 20:09:19.946,990.00,991.63,162.75,16.98,0.00,0.66,0.40,9.32,0.00,0.00,0.00
2026-06-23 20:09:19.948,990.00,991.63,162.75,16.98,0.00,0.65,0.39,9.27,0.00,0.00,-0.00
2026-06-23 20:09:19.949,990.00,991.63,162.75,16.98,0.00,0.65,0.39,9.27,0.00,0.00,-0.00
2026-06-23 20:09:19.954,990.00,991.63,162.75,16.98,0.00,0.65,0.39,9.27,0.00,0.00,-0.00
2026-06-23 20:09:19.957,990.00,991.63,162.75,16.98,0.00,0.65,0.39,9.27,0.00,-0.00,-0.00
2026-06-23 20:09:19.958,990.00,991.63,162.75,16.98,0.00,0.66,0.39,9.28,0.00,-0.00,-0.00
2026-06-23 20:09:19.960,990.00,991.63,162.75,16.98,0.00,0.66,0.39,9.28,0.00,-0.00,-0.00
2026-06-23 20:09:19.963,990.00,991.63,162.75,16.98,0.00,0.66,0.39,9.28,0.00,-0.00,-0.00
2026-06-23 20:09:19.969,990.00,991.63,162.75,16.98,0.00,0.66,0.39,9.28,0.00,-0.01,0.00
2026-06-23 20:09:20.164,990.00,991.62,162.00,16.94,0.00,0.66,0.39,9.28,-0.00,0.00,-0.00
2026-06-23 20:09:20.168,990.00,991.62,162.00,16.94,0.00,0.66,0.39,9.28,0.00,-0.00,0.00
2026-06-23 20:09:20.170,990.00,991.62,162.00,16.94,0.00,0.66,0.35,9.29,0.00,-0.00,0.00
2026-06-23 20:09:20.171,990.00,991.62,162.00,16.94,0.00,0.66,0.35,9.29,0.00,-0.00,0.00
2026-06-23 20:09:20.173,990.00,991.62,162.00,16.94,0.00,0.66,0.35,9.29,0.00,-0.00,0.00
2026-06-23 20:09:20.174,990.00,991.62,162.00,16.94,0.00,0.66,0.35,9.29,0.00,-0.00,0.00
2026-06-23 20:09:20.178,990.00,991.62,162.00,16.94,0.00,0.66,0.35,9.29,0.00,-0.00,-0.00
2026-06-23 20:09:20.179,990.00,991.62,162.00,16.94,0.00,0.66,0.39,9.30,0.00,-0.00,-0.00
2026-06-23 20:09:20.181,990.00,991.62,162.00,16.94,0.00,0.66,0.39,9.30,0.00,-0.00,-0.00
2026-06-23 20:09:20.187,990.00,991.62,162.00,16.94,0.00,0.66,0.39,9.30,0.00,-0.00,-0.00
2026-06-23 20:09:20.189,990.00,991.62,162.00,16.94,0.00,0.66,0.38,9.30,0.00,-0.00,0.00
2026-06-23 20:09:20.190,990.00,991.62,162.00,16.94,0.00,0.66,0.38,9.30,0.00,-0.00,0.00
2026-06-23 20:09:20.193,990.00,991.62,162.00,16.94,0.00,0.66,0.38,9.30,0.00,-0.00,0.00
2026-06-23 20:09:20.197,990.00,991.62,162.00,16.94,0.00,0.66,0.38,9.30,-0.00,0.00,0.00
2026-06-23 20:09:20.199,990.00,991.62,162.00,16.94,0.00,0.66,0.38,9.27,-0.00,0.00,0.00
2026-06-23 20:09:20.200,990.00,991.62,162.00,16.94,0.00,0.66,0.38,9.27,-0.00,0.00,0.00
2026-06-23 20:09:20.201,990.00,991.62,162.00,16.94,0.00,0.66,0.38,9.27,-0.00,0.00,0.00
2026-06-23 20:09:20.205,990.00,991.62,162.00,16.94,0.00,0.66,0.38,9.27,-0.00,0.00,0.00
2026-06-23 20:09:20.207,990.00,991.62,162.00,16.94,0.00,0.66,0.38,9.27,-0.00,-0.00,0.00
2026-06-23 20:09:20.209,990.00,991.62,162.00,16.94,0.00,0.65,0.40,9.29,-0.00,-0.00,0.00
2026-06-23 20:09:20.210,990.00,991.62,162.00,16.94,0.00,0.65,0.40,9.29,-0.00,-0.00,0.00
2026-06-23 20:09:20.211,990.00,991.62,162.00,16.94,0.00,0.65,0.40,9.29,-0.00,-0.00,0.00
2026-06-23 20:09:20.217,990.00,991.62,162.00,16.94,0.00,0.65,0.40,9.29,-0.00,-0.00,0.00
2026-06-23 20:09:20.218,990.00,991.62,162.00,16.94,0.00,0.65,0.39,9.32,0.00,-0.00,0.00
2026-06-23 20:09:20.219,990.00,991.62,162.00,16.94,0.00,0.65,0.39,9.32,0.00,-0.00,0.00
2026-06-23 20:09:20.220,990.00,991.62,162.00,16.94,0.00,0.65,0.39,9.32,0.00,-0.00,0.00
2026-06-23 20:09:20.221,990.00,991.62,162.00,16.94,0.00,0.65,0.39,9.32,0.00,-0.00,0.00
2026-06-23 20:09:20.223,990.00,991.62,162.00,16.94,0.00,0.65,0.39,9.32,0.00,-0.00,0.00
2026-06-23 20:09:20.224,990.00,991.62,162.00,16.94,0.00,0.65,0.39,9.32,0.00,-0.00,0.00
2026-06-23 20:09:20.225,990.00,991.62,162.00,16.94,0.00,0.65,0.39,9.32,0.00,-0.00,0.00
2026-06-23 20:09:20.227,990.00,991.62,162.00,16.94,0.00,0.65,0.39,9.32,-0.00,0.00,0.00
2026-06-23 20:09:20.229,990.00,991.62,162.00,16.94,0.00,0.67,0.37,9.32,-0.00,0.00,0.00
2026-06-23 20:09:20.230,990.00,991.62,162.00,16.94,0.00,0.67,0.37,9.32,-0.00,0.00,0.00
2026-06-23 20:09:20.233,990.00,991.62,162.00,16.94,0.00,0.67,0.37,9.32,-0.00,0.00,0.00
2026-06-23 20:09:20.237,990.00,991.62,162.00,16.94,0.00,0.67,0.37,9.32,-0.00,-0.00,0.00
2026-06-23 20:09:20.238,990.00,991.62,162.00,16.94,0.00,0.65,0.39,9.31,-0.00,-0.00,0.00
2026-06-23 20:09:20.240,990.00,991.62,162.00,16.94,0.00,0.65,0.39,9.31,-0.00,-0.00,0.00
2026-06-23 20:09:20.241,990.00,991.62,162.00,16.94,0.00,0.65,0.39,9.31,-0.00,-0.00,0.00
2026-06-23 20:09:20.243,990.00,991.62,162.00,16.94,0.00,0.65,0.39,9.31,-0.00,-0.00,0.00
2026-06-23 20:09:20.247,990.00,991.62,162.00,16.94,0.00,0.65,0.39,9.31,-0.00,-0.00,0.00
2026-06-23 20:09:20.249,990.00,991.62,162.00,16.94,0.00,0.67,0.39,9.27,-0.00,-0.00,0.00
2026-06-23 20:09:20.250,990.00,991.62,162.00,16.94,0.00,0.67,0.39,9.27,-0.00,-0.00,0.00
2026-06-23 20:09:20.252,990.00,991.62,162.00,16.94,0.00,0.67,0.39,9.27,-0.00,-0.00,0.00
2026-06-23 20:09:20.257,990.00,991.62,162.00,16.94,0.00,0.67,0.39,9.27,-0.00,-0.00,0.00
2026-06-23 20:09:20.258,990.00,991.62,162.00,16.94,0.00,0.65,0.40,9.27,0.00,-0.00,0.00
2026-06-23 20:09:20.259,990.00,991.62,162.00,16.94,0.00,0.65,0.40,9.27,0.00,-0.00,0.00
2026-06-23 20:09:20.260,990.00,991.62,162.00,16.94,0.00,0.65,0.40,9.27,0.00,-0.00,0.00
2026-06-23 20:09:20.450,990.00,991.62,161.93,16.94,0.00,0.65,0.39,9.29,-0.00,0.00,0.00
2026-06-23 20:09:20.451,990.00,991.62,161.93,16.94,0.00,0.65,0.39,9.29,-0.00,0.00,0.00
2026-06-23 20:09:20.453,990.00,991.62,161.93,16.94,0.00,0.65,0.39,9.29,-0.00,0.00,0.00
2026-06-23 20:09:20.458,990.00,991.62,161.93,16.94,0.00,0.65,0.39,9.29,0.00,0.00,0.00
2026-06-23 20:09:20.459,990.00,991.62,161.93,16.94,0.00,0.66,0.38,9.29,0.00,0.00,0.00
2026-06-23 20:09:20.460,990.00,991.62,161.93,16.94,0.00,0.66,0.38,9.29,0.00,0.00,0.00
2026-06-23 20:09:20.461,990.00,991.62,161.93,16.94,0.00,0.66,0.38,9.29,0.00,0.00,0.00
2026-06-23 20:09:20.465,990.00,991.62,161.93,16.94,0.00,0.66,0.38,9.29,0.00,0.00,0.00
2026-06-23 20:09:20.468,990.00,991.62,161.93,16.94,0.00,0.66,0.38,9.29,0.00,0.00,0.00
2026-06-23 20:09:20.470,990.00,991.62,161.93,16.94,0.00,0.67,0.38,9.30,0.00,0.00,0.00
2026-06-23 20:09:20.471,990.00,991.62,161.93,16.94,0.00,0.67,0.38,9.30,0.00,0.00,0.00
2026-06-23 20:09:20.472,990.00,991.62,161.93,16.94,0.00,0.67,0.38,9.30,0.00,0.00,0.00
2026-06-23 20:09:20.473,990.00,991.62,161.93,16.94,0.00,0.67,0.38,9.30,0.00,0.00,0.00
2026-06-23 20:09:20.474,990.00,991.62,161.93,16.94,0.00,0.67,0.38,9.30,0.00,0.00,0.00
2026-06-23 20:09:20.476,990.00,991.62,161.93,16.94,0.00,0.67,0.38,9.30,0.00,0.00,0.00
2026-06-23 20:09:20.478,990.00,991.62,161.93,16.94,0.00,0.67,0.38,9.30,0.00,-0.00,0.00
2026-06-23 20:09:20.480,990.00,991.62,161.93,16.94,0.00,0.66,0.38,9.33,0.00,-0.00,0.00
2026-06-23 20:09:20.481,990.00,991.62,161.93,16.94,0.00,0.66,0.38,9.33,0.00,-0.00,0.00
2026-06-23 20:09:20.485,990.00,991.62,161.93,16.94,0.00,0.66,0.38,9.33,0.00,-0.00,0.00
2026-06-23 20:09:20.488,990.00,991.62,161.93,16.94,0.00,0.66,0.38,9.33,0.00,0.00,0.00
2026-06-23 20:09:20.489,990.00,991.62,161.93,16.94,0.00,0.65,0.38,9.33,0.00,0.00,0.00
2026-06-23 20:09:20.490,990.00,991.62,161.93,16.94,0.00,0.65,0.38,9.33,0.00,0.00,0.00
2026-06-23 20:09:20.492,990.00,991.62,161.93,16.94,0.00,0.65,0.38,9.33,0.00,0.00,0.00
2026-06-23 20:09:20.494,990.00,991.62,161.93,16.94,0.00,0.65,0.38,9.33,0.00,0.00,0.00
2026-06-23 20:09:20.498,990.00,991.62,161.93,16.94,0.00,0.65,0.38,9.33,-0.00,0.00,0.00
2026-06-23 20:09:20.500,990.00,991.62,161.93,16.94,0.00,0.65,0.36,9.26,-0.00,0.00,0.00
2026-06-23 20:09:20.501,990.00,991.62,161.93,16.94,0.00,0.65,0.36,9.26,-0.00,0.00,0.00
2026-06-23 20:09:20.502,990.00,991.62,161.93,16.94,0.00,0.65,0.36,9.26,-0.00,0.00,0.00
2026-06-23 20:09:20.506,990.00,991.62,161.93,16.94,0.00,0.65,0.36,9.26,-0.00,0.00,0.00
2026-06-23 20:09:20.508,990.00,991.62,161.93,16.94,0.00,0.66,0.37,9.27,0.00,-0.00,0.00
2026-06-23 20:09:20.509,990.00,991.62,161.93,16.94,0.00,0.66,0.37,9.27,0.00,-0.00,0.00
2026-06-23 20:09:20.511,990.00,991.62,161.93,16.94,0.00,0.66,0.37,9.27,0.00,-0.00,0.00
2026-06-23 20:09:20.512,990.00,991.62,161.93,16.94,0.00,0.66,0.37,9.27,0.00,-0.00,0.00
2026-06-23 20:09:20.518,990.00,991.62,161.93,16.94,0.00,0.66,0.37,9.27,0.00,-0.00,0.00
2026-06-23 20:09:20.519,990.00,991.62,161.93,16.94,0.00,0.66,0.39,9.31,0.00,0.00,0.00
2026-06-23 20:09:20.520,990.00,991.62,161.93,16.94,0.00,0.66,0.39,9.31,0.00,0.00,0.00
2026-06-23 20:09:20.521,990.00,991.62,161.93,16.94,0.00,0.66,0.39,9.31,0.00,0.00,0.00
2026-06-23 20:09:20.523,990.00,991.62,161.93,16.94,0.00,0.66,0.39,9.31,0.00,0.00,0.00
2026-06-23 20:09:20.524,990.00,991.62,161.93,16.94,0.00,0.66,0.39,9.31,0.00,0.00,0.00
2026-06-23 20:09:20.525,990.00,991.62,161.93,16.94,0.00,0.66,0.39,9.31,0.00,0.00,0.00
2026-06-23 20:09:20.527,990.00,991.62,161.93,16.94,0.00,0.66,0.39,9.31,0.00,0.00,0.00
2026-06-23 20:09:20.529,990.00,991.62,161.93,16.94,0.00,0.66,0.37,9.32,-0.00,0.00,-0.00
2026-06-23 20:09:20.530,990.00,991.62,161.93,16.94,0.00,0.66,0.37,9.32,-0.00,0.00,-0.00
2026-06-23 20:09:20.532,990.00,991.62,161.93,16.94,0.00,0.66,0.37,9.32,-0.00,0.00,-0.00
2026-06-23 20:09:20.537,990.00,991.62,161.93,16.94,0.00,0.66,0.37,9.32,-0.00,0.00,-0.00
2026-06-23 20:09:20.539,990.00,991.62,161.93,16.94,0.00,0.67,0.37,9.29,0.00,-0.00,0.00
2026-06-23 20:09:20.540,990.00,991.62,161.93,16.94,0.00,0.67,0.37,9.29,0.00,-0.00,0.00
2026-06-23 20:09:20.541,990.00,991.62,161.93,16.94,0.00,0.67,0.37,9.29,0.00,-0.00,0.00
2026-06-23 20:09:20.543,990.00,991.62,161.93,16.94,0.00,0.67,0.37,9.29,0.00,-0.00,0.00
2026-06-23 20:09:20.548,990.00,991.62,161.93,16.94,0.00,0.67,0.37,9.29,0.00,-0.00,0.00
2026-06-23 20:09:20.549,990.00,991.62,161.93,16.94,0.00,0.67,0.37,9.28,0.00,0.00,0.00
2026-06-23 20:09:20.739,990.00,991.65,165.36,17.12,0.00,0.67,0.35,9.27,-0.00,-0.00,0.00
2026-06-23 20:09:20.740,990.00,991.65,165.36,17.12,0.00,0.67,0.35,9.27,-0.00,-0.00,0.00
2026-06-23 20:09:20.742,990.00,991.65,165.36,17.12,0.00,0.67,0.35,9.27,-0.00,-0.00,0.00
2026-06-23 20:09:20.743,990.00,991.65,165.36,17.12,0.00,0.67,0.35,9.27,-0.00,-0.00,0.00
2026-06-23 20:09:20.748,990.00,991.65,165.36,17.12,0.00,0.67,0.35,9.27,-0.00,-0.00,0.00
2026-06-23 20:09:20.750,990.00,991.65,165.36,17.12,0.00,0.66,0.38,9.29,-0.00,-0.00,0.00
2026-06-23 20:09:20.751,990.00,991.65,165.36,17.12,0.00,0.66,0.38,9.29,-0.00,-0.00,0.00
2026-06-23 20:09:20.752,990.00,991.65,165.36,17.12,0.00,0.66,0.38,9.29,-0.00,-0.00,0.00
2026-06-23 20:09:20.756,990.00,991.65,165.36,17.12,0.00,0.66,0.38,9.29,-0.00,-0.00,0.00
2026-06-23 20:09:20.759,990.00,991.65,165.36,17.12,0.00,0.66,0.38,9.29,0.00,0.00,0.00
2026-06-23 20:09:20.760,990.00,991.65,165.36,17.12,0.00,0.66,0.38,9.30,0.00,0.00,0.00
2026-06-23 20:09:20.761,990.00,991.65,165.36,17.12,0.00,0.66,0.38,9.30,0.00,0.00,0.00
2026-06-23 20:09:20.763,990.00,991.65,165.36,17.12,0.00,0.66,0.38,9.30,0.00,0.00,0.00
2026-06-23 20:09:20.768,990.00,991.65,165.36,17.12,0.00,0.66,0.38,9.30,0.00,0.00,0.00
2026-06-23 20:09:20.770,990.00,991.65,165.36,17.12,0.00,0.66,0.36,9.26,0.00,0.00,0.00
2026-06-23 20:09:20.771,990.00,991.65,165.36,17.12,0.00,0.66,0.36,9.26,0.00,0.00,0.00
2026-06-23 20:09:20.772,990.00,991.65,165.36,17.12,0.00,0.66,0.36,9.26,0.00,0.00,0.00
2026-06-23 20:09:20.774,990.00,991.65,165.36,17.12,0.00,0.66,0.36,9.26,0.00,0.00,0.00
2026-06-23 20:09:20.775,990.00,991.65,165.36,17.12,0.00,0.66,0.36,9.26,0.00,0.00,0.00
2026-06-23 20:09:20.776,990.00,991.65,165.36,17.12,0.00,0.66,0.36,9.26,0.00,0.00,0.00
2026-06-23 20:09:20.779,990.00,991.65,165.36,17.12,0.00,0.66,0.36,9.26,0.00,0.00,0.00
2026-06-23 20:09:20.781,990.00,991.65,165.36,17.12,0.00,0.67,0.39,9.29,0.00,0.00,0.00
2026-06-23 20:09:20.782,990.00,991.65,165.36,17.12,0.00,0.67,0.39,9.29,0.00,0.00,0.00
2026-06-23 20:09:20.786,990.00,991.65,165.36,17.12,0.00,0.67,0.39,9.29,0.00,0.00,0.00
2026-06-23 20:09:20.789,990.00,991.65,165.36,17.12,0.00,0.67,0.39,9.29,-0.00,0.00,0.00
2026-06-23 20:09:20.790,990.00,991.65,165.36,17.12,0.00,0.67,0.38,9.29,-0.00,0.00,0.00
2026-06-23 20:09:20.791,990.00,991.65,165.36,17.12,0.00,0.67,0.38,9.29,-0.00,0.00,0.00
2026-06-23 20:09:20.792,990.00,991.65,165.36,17.12,0.00,0.67,0.38,9.29,-0.00,0.00,0.00
2026-06-23 20:09:20.796,990.00,991.65,165.36,17.12,0.00,0.67,0.38,9.29,-0.00,0.00,0.00
2026-06-23 20:09:20.799,990.00,991.65,165.36,17.12,0.00,0.67,0.38,9.29,0.00,0.00,0.00
2026-06-23 20:09:20.800,990.00,991.65,165.36,17.12,0.00,0.67,0.39,9.27,0.00,0.00,0.00
2026-06-23 20:09:20.802,990.00,991.65,165.36,17.12,0.00,0.67,0.39,9.27,0.00,0.00,0.00
2026-06-23 20:09:20.803,990.00,991.65,165.36,17.12,0.00,0.67,0.39,9.27,0.00,0.00,0.00
2026-06-23 20:09:20.804,990.00,991.65,165.36,17.12,0.00,0.67,0.39,9.27,0.00,0.00,0.00
2026-06-23 20:09:20.808,990.00,991.65,165.36,17.12,0.00,0.67,0.39,9.27,0.00,0.00,-0.00
2026-06-23 20:09:20.810,990.00,991.65,165.36,17.12,0.00,0.66,0.37,9.28,0.00,0.00,-0.00
2026-06-23 20:09:20.811,990.00,991.65,165.36,17.12,0.00,0.66,0.37,9.28,0.00,0.00,-0.00
2026-06-23 20:09:20.812,990.00,991.65,165.36,17.12,0.00,0.66,0.37,9.28,0.00,0.00,-0.00
2026-06-23 20:09:20.816,990.00,991.65,165.36,17.12,0.00,0.66,0.37,9.28,0.00,0.00,-0.00
2026-06-23 20:09:20.819,990.00,991.65,165.36,17.12,0.00,0.66,0.37,9.28,0.00,0.00,0.00
2026-06-23 20:09:20.820,990.00,991.65,165.36,17.12,0.00,0.66,0.37,9.30,0.00,0.00,0.00
2026-06-23 20:09:20.821,990.00,991.65,165.36,17.12,0.00,0.66,0.37,9.30,0.00,0.00,0.00
2026-06-23 20:09:20.823,990.00,991.65,165.36,17.12,0.00,0.66,0.37,9.30,0.00,0.00,0.00
2026-06-23 20:09:20.824,990.00,991.65,165.36,17.12,0.00,0.66,0.37,9.30,0.00,0.00,0.00
2026-06-23 20:09:20.825,990.00,991.65,165.36,17.12,0.00,0.66,0.37,9.30,0.00,0.00,0.00
2026-06-23 20:09:20.826,990.00,991.65,165.36,17.12,0.00,0.66,0.37,9.30,0.00,0.00,0.00
2026-06-23 20:09:20.828,990.00,991.65,165.36,17.12,0.00,0.66,0.37,9.30,0.00,0.00,0.00
2026-06-23 20:09:20.830,990.00,991.65,165.36,17.12,0.00,0.66,0.38,9.31,-0.00,0.00,0.00
2026-06-23 20:09:20.831,990.00,991.65,165.36,17.12,0.00,0.66,0.38,9.31,-0.00,0.00,0.00
2026-06-23 20:09:20.834,990.00,991.65,165.36,17.12,0.00,0.66,0.38,9.31,-0.00,0.00,0.00
2026-06-23 20:09:20.839,990.00,991.65,165.36,17.12,0.00,0.66,0.38,9.31,-0.00,0.00,0.00
2026-06-23 20:09:21.030,990.00,991.63,162.88,16.99,0.00,0.66,0.38,9.32,0.00,0.00,-0.00
2026-06-23 20:09:21.031,990.00,991.63,162.88,16.99,0.00,0.67,0.37,9.27,0.00,0.00,-0.00
2026-06-23 20:09:21.033,990.00,991.63,162.88,16.99,0.00,0.67,0.37,9.27,0.00,0.00,-0.00
2026-06-23 20:09:21.036,990.00,991.63,162.88,16.99,0.00,0.67,0.37,9.27,0.00,0.00,-0.00
2026-06-23 20:09:21.039,990.00,991.63,162.88,16.99,0.00,0.67,0.37,9.27,0.00,0.01,0.00
2026-06-23 20:09:21.041,990.00,991.63,162.88,16.99,0.00,0.65,0.37,9.30,0.00,0.01,0.00
2026-06-23 20:09:21.042,990.00,991.63,162.88,16.99,0.00,0.65,0.37,9.30,0.00,0.01,0.00
2026-06-23 20:09:21.043,990.00,991.63,162.88,16.99,0.00,0.65,0.37,9.30,0.00,0.01,0.00
2026-06-23 20:09:21.047,990.00,991.63,162.88,16.99,0.00,0.65,0.37,9.30,0.00,0.01,0.00
2026-06-23 20:09:21.050,990.00,991.63,162.88,16.99,0.00,0.65,0.37,9.30,0.00,0.00,-0.00
2026-06-23 20:09:21.051,990.00,991.63,162.88,16.99,0.00,0.65,0.39,9.29,0.00,0.00,-0.00
2026-06-23 20:09:21.052,990.00,991.63,162.88,16.99,0.00,0.65,0.39,9.29,0.00,0.00,-0.00
2026-06-23 20:09:21.053,990.00,991.63,162.88,16.99,0.00,0.65,0.39,9.29,0.00,0.00,-0.00
2026-06-23 20:09:21.058,990.00,991.63,162.88,16.99,0.00,0.65,0.39,9.29,0.00,0.00,-0.00
2026-06-23 20:09:21.060,990.00,991.63,162.88,16.99,0.00,0.66,0.37,9.29,0.00,0.00,0.00
2026-06-23 20:09:21.061,990.00,991.63,162.88,16.99,0.00,0.66,0.37,9.29,0.00,0.00,0.00
2026-06-23 20:09:21.063,990.00,991.63,162.88,16.99,0.00,0.66,0.37,9.29,0.00,0.00,0.00
2026-06-23 20:09:21.067,990.00,991.63,162.88,16.99,0.00,0.66,0.37,9.29,0.00,0.00,0.00
2026-06-23 20:09:21.070,990.00,991.63,162.88,16.99,0.00,0.66,0.37,9.29,-0.00,0.00,0.00
2026-06-23 20:09:21.071,990.00,991.63,162.88,16.99,0.00,0.66,0.36,9.27,-0.00,0.00,0.00
2026-06-23 20:09:21.072,990.00,991.63,162.88,16.99,0.00,0.66,0.36,9.27,-0.00,0.00,0.00
2026-06-23 20:09:21.073,990.00,991.63,162.88,16.99,0.00,0.66,0.36,9.27,-0.00,0.00,0.00
2026-06-23 20:09:21.074,990.00,991.63,162.88,16.99,0.00,0.66,0.36,9.27,-0.00,0.00,0.00
2026-06-23 20:09:21.076,990.00,991.63,162.88,16.99,0.00,0.66,0.36,9.27,-0.00,0.00,0.00
2026-06-23 20:09:21.077,990.00,991.63,162.88,16.99,0.00,0.66,0.36,9.27,-0.00,0.00,0.00
2026-06-23 20:09:21.080,990.00,991.63,162.88,16.99,0.00,0.66,0.36,9.27,0.00,0.00,-0.00
2026-06-23 20:09:21.081,990.00,991.63,162.88,16.99,0.00,0.66,0.37,9.30,0.00,0.00,-0.00
2026-06-23 20:09:21.083,990.00,991.63,162.88,16.99,0.00,0.66,0.37,9.30,0.00,0.00,-0.00
2026-06-23 20:09:21.086,990.00,991.63,162.88,16.99,0.00,0.66,0.37,9.30,0.00,0.00,-0.00
2026-06-23 20:09:21.089,990.00,991.63,162.88,16.99,0.00,0.66,0.37,9.30,0.00,0.00,0.00
2026-06-23 20:09:21.091,990.00,991.63,162.88,16.99,0.00,0.66,0.38,9.31,0.00,0.00,0.00
2026-06-23 20:09:21.092,990.00,991.63,162.88,16.99,0.00,0.66,0.38,9.31,0.00,0.00,0.00
2026-06-23 20:09:21.093,990.00,991.63,162.88,16.99,0.00,0.66,0.38,9.31,0.00,0.00,0.00
2026-06-23 20:09:21.096,990.00,991.63,162.88,16.99,0.00,0.66,0.38,9.31,0.00,0.00,0.00
2026-06-23 20:09:21.100,990.00,991.63,162.88,16.99,0.00,0.66,0.38,9.31,-0.00,0.00,0.00
2026-06-23 20:09:21.101,990.00,991.63,162.88,16.99,0.00,0.65,0.36,9.27,-0.00,0.00,0.00
2026-06-23 20:09:21.102,990.00,991.63,162.88,16.99,0.00,0.65,0.36,9.27,-0.00,0.00,0.00
2026-06-23 20:09:21.103,990.00,991.63,162.88,16.99,0.00,0.65,0.36,9.27,-0.00,0.00,0.00
2026-06-23 20:09:21.105,990.00,991.63,162.88,16.99,0.00,0.65,0.36,9.27,-0.00,0.00,0.00
2026-06-23 20:09:21.109,990.00,991.63,162.88,16.99,0.00,0.65,0.36,9.27,-0.00,0.00,0.00
2026-06-23 20:09:21.110,990.00,991.63,162.88,16.99,0.00,0.67,0.40,9.29,0.00,0.00,-0.00
2026-06-23 20:09:21.112,990.00,991.63,162.88,16.99,0.00,0.67,0.40,9.29,0.00,0.00,-0.00
2026-06-23 20:09:21.113,990.00,991.63,162.88,16.99,0.00,0.67,0.40,9.29,0.00,0.00,-0.00
2026-06-23 20:09:21.119,990.00,991.63,162.88,16.99,0.00,0.67,0.40,9.29,0.00,0.00,-0.00
2026-06-23 20:09:21.120,990.00,991.63,162.88,16.99,0.00,0.66,0.37,9.28,0.00,-0.00,0.00
2026-06-23 20:09:21.121,990.00,991.63,162.88,16.99,0.00,0.66,0.37,9.28,0.00,-0.00,0.00
2026-06-23 20:09:21.123,990.00,991.63,162.88,16.99,0.00,0.66,0.37,9.28,0.00,-0.00,0.00
2026-06-23 20:09:21.124,990.00,991.63,162.88,16.99,0.00,0.66,0.37,9.28,0.00,-0.00,0.00
2026-06-23 20:09:21.125,990.00,991.63,162.88,16.99,0.00,0.66,0.37,9.28,0.00,-0.00,0.00
2026-06-23 20:09:21.126,990.00,991.63,162.88,16.99,0.00,0.66,0.37,9.28,0.00,-0.00,0.00
2026-06-23 20:09:21.320,990.00,991.62,162.26,16.95,0.00,0.66,0.37,9.28,-0.00,0.00,-0.00
2026-06-23 20:09:21.321,990.00,991.62,162.26,16.95,0.00,0.66,0.37,9.29,0.00,0.00,0.00
2026-06-23 20:09:21.322,990.00,991.62,162.26,16.96,0.00,0.66,0.37,9.29,0.00,0.00,0.00
2026-06-23 20:09:21.323,990.00,991.62,162.26,16.96,0.00,0.66,0.37,9.29,0.00,0.00,0.00
2026-06-23 20:09:21.325,990.00,991.62,162.26,16.96,0.00,0.66,0.37,9.29,0.00,0.00,0.00
2026-06-23 20:09:21.326,990.00,991.62,162.26,16.96,0.00,0.66,0.37,9.29,0.00,0.00,0.00
2026-06-23 20:09:21.327,990.00,991.62,162.26,16.96,0.00,0.66,0.37,9.29,0.00,0.00,0.00
2026-06-23 20:09:21.330,990.00,991.62,162.26,16.96,0.00,0.66,0.37,9.29,0.00,0.00,0.00
2026-06-23 20:09:21.331,990.00,991.62,162.26,16.96,0.00,0.66,0.39,9.28,0.00,-0.00,-0.00
2026-06-23 20:09:21.333,990.00,991.62,162.26,16.96,0.00,0.66,0.39,9.28,0.00,-0.00,-0.00
2026-06-23 20:09:21.334,990.00,991.62,162.26,16.96,0.00,0.66,0.39,9.28,0.00,-0.00,-0.00
2026-06-23 20:09:21.339,990.00,991.62,162.26,16.96,0.00,0.66,0.39,9.28,0.00,-0.00,-0.00
2026-06-23 20:09:21.341,990.00,991.62,162.26,16.96,0.00,0.66,0.38,9.29,0.00,-0.00,0.00
2026-06-23 20:09:21.342,990.00,991.62,162.26,16.96,0.00,0.66,0.38,9.29,0.00,-0.00,0.00
2026-06-23 20:09:21.343,990.00,991.62,162.26,16.96,0.00,0.66,0.38,9.29,0.00,-0.00,0.00
2026-06-23 20:09:21.344,990.00,991.62,162.26,16.96,0.00,0.66,0.38,9.29,0.00,-0.00,0.00
2026-06-23 20:09:21.350,990.00,991.62,162.26,16.96,0.00,0.66,0.38,9.29,0.00,-0.00,0.00
2026-06-23 20:09:21.351,990.00,991.62,162.26,16.96,0.00,0.66,0.36,9.32,0.00,0.00,0.00
2026-06-23 20:09:21.352,990.00,991.62,162.26,16.96,0.00,0.66,0.36,9.32,0.00,0.00,0.00
2026-06-23 20:09:21.354,990.00,991.62,162.26,16.96,0.00,0.66,0.36,9.32,0.00,0.00,0.00
2026-06-23 20:09:21.356,990.00,991.62,162.26,16.96,0.00,0.66,0.36,9.32,0.00,0.00,0.00
2026-06-23 20:09:21.360,990.00,991.62,162.26,16.96,0.00,0.66,0.36,9.32,0.00,0.00,0.00
2026-06-23 20:09:21.361,990.00,991.62,162.26,16.96,0.00,0.66,0.38,9.28,0.00,0.00,0.00
2026-06-23 20:09:21.363,990.00,991.62,162.26,16.96,0.00,0.66,0.38,9.28,0.00,0.00,0.00
2026-06-23 20:09:21.364,990.00,991.62,162.26,16.96,0.00,0.66,0.38,9.28,0.00,0.00,0.00
2026-06-23 20:09:21.370,990.00,991.62,162.26,16.96,0.00,0.66,0.38,9.28,0.00,0.00,0.00
2026-06-23 20:09:21.371,990.00,991.62,162.26,16.96,0.00,0.66,0.37,9.31,-0.00,0.00,-0.00
2026-06-23 20:09:21.372,990.00,991.62,162.26,16.96,0.00,0.66,0.37,9.31,-0.00,0.00,-0.00
2026-06-23 20:09:21.374,990.00,991.62,162.26,16.96,0.00,0.66,0.37,9.31,-0.00,0.00,-0.00
2026-06-23 20:09:21.375,990.00,991.62,162.26,16.96,0.00,0.66,0.37,9.31,-0.00,0.00,-0.00
2026-06-23 20:09:21.376,990.00,991.62,162.26,16.96,0.00,0.66,0.37,9.31,-0.00,0.00,-0.00
2026-06-23 20:09:21.377,990.00,991.62,162.26,16.96,0.00,0.66,0.37,9.31,-0.00,0.00,-0.00
2026-06-23 20:09:21.381,990.00,991.62,162.26,16.96,0.00,0.66,0.37,9.31,0.00,0.00,0.00
2026-06-23 20:09:21.382,990.00,991.62,162.26,16.96,0.00,0.66,0.38,9.31,0.00,0.00,0.00
2026-06-23 20:09:21.384,990.00,991.62,162.26,16.96,0.00,0.66,0.38,9.31,0.00,0.00,0.00
2026-06-23 20:09:21.389,990.00,991.62,162.26,16.96,0.00,0.66,0.38,9.31,0.00,0.00,0.00
2026-06-23 20:09:21.391,990.00,991.62,162.26,16.96,0.00,0.66,0.38,9.30,0.00,-0.00,-0.00
2026-06-23 20:09:21.392,990.00,991.62,162.26,16.96,0.00,0.66,0.38,9.30,0.00,-0.00,-0.00
2026-06-23 20:09:21.393,990.00,991.62,162.26,16.96,0.00,0.66,0.38,9.30,0.00,-0.00,-0.00
2026-06-23 20:09:21.394,990.00,991.62,162.26,16.96,0.00,0.66,0.38,9.30,0.00,-0.00,-0.00
2026-06-23 20:09:21.400,990.00,991.62,162.26,16.96,0.00,0.66,0.38,9.30,0.00,-0.00,-0.00
2026-06-23 20:09:21.401,990.00,991.62,162.26,16.96,0.00,0.67,0.38,9.27,0.00,0.00,0.00
2026-06-23 20:09:21.402,990.00,991.62,162.26,16.96,0.00,0.67,0.38,9.27,0.00,0.00,0.00
2026-06-23 20:09:21.403,990.00,991.62,162.26,16.96,0.00,0.67,0.38,9.27,0.00,0.00,0.00
2026-06-23 20:09:21.405,990.00,991.62,162.26,16.96,0.00,0.67,0.38,9.27,0.00,0.00,0.00
2026-06-23 20:09:21.408,990.00,991.62,162.26,16.96,0.00,0.67,0.38,9.27,0.00,0.00,0.00
2026-06-23 20:09:21.410,990.00,991.62,162.26,16.96,0.00,0.67,0.38,9.27,0.00,0.00,-0.00
2026-06-23 20:09:21.412,990.00,991.62,162.26,16.96,0.00,0.66,0.40,9.27,0.00,0.00,-0.00
2026-06-23 20:09:21.413,990.00,991.62,162.26,16.96,0.00,0.66,0.40,9.27,0.00,0.00,-0.00
2026-06-23 20:09:21.418,990.00,991.62,162.26,16.96,0.00,0.66,0.40,9.27,0.00,0.00,-0.00
2026-06-23 20:09:21.611,990.00,991.65,164.98,17.10,0.00,0.66,0.37,9.27,0.00,0.00,-0.00
2026-06-23 20:09:21.612,990.00,991.65,164.98,17.10,0.00,0.65,0.38,9.31,0.00,0.00,-0.00
2026-06-23 20:09:21.613,990.00,991.65,164.98,17.10,0.00,0.65,0.38,9.31,0.00,0.00,-0.00
2026-06-23 20:09:21.615,990.00,991.65,164.98,17.10,0.00,0.65,0.38,9.31,0.00,0.00,-0.00
2026-06-23 20:09:21.621,990.00,991.65,164.98,17.10,0.00,0.65,0.38,9.31,0.00,0.00,-0.00
2026-06-23 20:09:21.622,990.00,991.65,164.98,17.10,0.00,0.66,0.38,9.30,0.00,0.00,-0.00
2026-06-23 20:09:21.623,990.00,991.65,164.98,17.10,0.00,0.66,0.38,9.30,0.00,0.00,-0.00
2026-06-23 20:09:21.624,990.00,991.65,164.98,17.10,0.00,0.66,0.38,9.30,0.00,0.00,-0.00
2026-06-23 20:09:21.625,990.00,991.65,164.98,17.10,0.00,0.66,0.38,9.30,0.00,0.00,-0.00
2026-06-23 20:09:21.626,990.00,991.65,164.98,17.10,0.00,0.66,0.38,9.30,0.00,0.00,-0.00
2026-06-23 20:09:21.628,990.00,991.65,164.98,17.10,0.00,0.66,0.38,9.30,0.00,0.00,-0.00
2026-06-23 20:09:21.630,990.00,991.65,164.98,17.10,0.00,0.66,0.38,9.30,0.00,0.00,-0.00
2026-06-23 20:09:21.632,990.00,991.65,164.98,17.10,0.00,0.66,0.38,9.28,-0.00,0.00,0.00
2026-06-23 20:09:21.633,990.00,991.65,164.98,17.10,0.00,0.66,0.38,9.28,-0.00,0.00,0.00
2026-06-23 20:09:21.635,990.00,991.65,164.98,17.10,0.00,0.66,0.38,9.28,-0.00,0.00,0.00
2026-06-23 20:09:21.640,990.00,991.65,164.98,17.10,0.00,0.66,0.38,9.28,-0.00,0.00,0.00
2026-06-23 20:09:21.641,990.00,991.65,164.98,17.10,0.00,0.66,0.38,9.27,0.00,-0.00,0.00
2026-06-23 20:09:21.643,990.00,991.65,164.98,17.10,0.00,0.66,0.38,9.27,0.00,-0.00,0.00
2026-06-23 20:09:21.644,990.00,991.65,164.98,17.10,0.00,0.66,0.38,9.27,0.00,-0.00,0.00
2026-06-23 20:09:21.646,990.00,991.65,164.98,17.10,0.00,0.66,0.38,9.27,0.00,-0.00,0.00
2026-06-23 20:09:21.651,990.00,991.65,164.98,17.10,0.00,0.66,0.38,9.27,0.00,0.00,-0.00
2026-06-23 20:09:21.652,990.00,991.65,164.98,17.10,0.00,0.66,0.38,9.26,0.00,0.00,-0.00
2026-06-23 20:09:21.653,990.00,991.65,164.98,17.10,0.00,0.66,0.38,9.26,0.00,0.00,-0.00
2026-06-23 20:09:21.654,990.00,991.65,164.98,17.10,0.00,0.66,0.38,9.26,0.00,0.00,-0.00
2026-06-23 20:09:21.657,990.00,991.65,164.98,17.10,0.00,0.66,0.38,9.26,0.00,0.00,-0.00
2026-06-23 20:09:21.661,990.00,991.65,164.98,17.10,0.00,0.66,0.38,9.26,0.00,0.00,-0.00
2026-06-23 20:09:21.662,990.00,991.65,164.98,17.10,0.00,0.67,0.37,9.31,0.00,0.00,-0.00
2026-06-23 20:09:21.664,990.00,991.65,164.98,17.10,0.00,0.67,0.37,9.31,0.00,0.00,-0.00
2026-06-23 20:09:21.665,990.00,991.65,164.98,17.10,0.00,0.67,0.37,9.31,0.00,0.00,-0.00
2026-06-23 20:09:21.671,990.00,991.65,164.98,17.10,0.00,0.67,0.37,9.31,0.00,0.00,-0.00
2026-06-23 20:09:21.672,990.00,991.65,164.98,17.10,0.00,0.66,0.38,9.30,-0.00,0.00,-0.00
2026-06-23 20:09:21.673,990.00,991.65,164.98,17.10,0.00,0.66,0.38,9.30,-0.00,0.00,-0.00
2026-06-23 20:09:21.674,990.00,991.65,164.98,17.10,0.00,0.66,0.38,9.30,-0.00,0.00,-0.00
2026-06-23 20:09:21.675,990.00,991.65,164.98,17.10,0.00,0.66,0.38,9.30,-0.00,0.00,-0.00
2026-06-23 20:09:21.676,990.00,991.65,164.98,17.10,0.00,0.66,0.38,9.30,-0.00,0.00,-0.00
2026-06-23 20:09:21.678,990.00,991.65,164.98,17.10,0.00,0.66,0.38,9.30,-0.00,0.00,-0.00
2026-06-23 20:09:21.681,990.00,991.65,164.98,17.10,0.00,0.66,0.38,9.30,-0.00,0.00,-0.00
2026-06-23 20:09:21.682,990.00,991.65,164.98,17.10,0.00,0.66,0.39,9.28,0.00,0.00,-0.00
2026-06-23 20:09:21.683,990.00,991.65,164.98,17.10,0.00,0.66,0.39,9.28,0.00,0.00,-0.00
2026-06-23 20:09:21.685,990.00,991.65,164.98,17.10,0.00,0.66,0.39,9.28,0.00,0.00,-0.00
2026-06-23 20:09:21.690,990.00,991.65,164.98,17.10,0.00,0.66,0.39,9.28,0.00,0.00,-0.00
2026-06-23 20:09:21.691,990.00,991.65,164.98,17.10,0.00,0.67,0.36,9.29,0.00,0.00,-0.00
2026-06-23 20:09:21.692,990.00,991.65,164.98,17.10,0.00,0.67,0.36,9.29,0.00,0.00,-0.00
2026-06-23 20:09:21.694,990.00,991.65,164.98,17.10,0.00,0.67,0.36,9.29,0.00,0.00,-0.00
2026-06-23 20:09:21.695,990.00,991.65,164.98,17.10,0.00,0.67,0.36,9.29,0.00,0.00,-0.00
2026-06-23 20:09:21.701,990.00,991.65,164.98,17.10,0.00,0.67,0.36,9.29,0.00,0.00,-0.00
2026-06-23 20:09:21.702,990.00,991.65,164.98,17.10,0.00,0.67,0.38,9.31,0.00,0.00,0.00
2026-06-23 20:09:21.703,990.00,991.65,164.98,17.10,0.00,0.67,0.38,9.31,0.00,0.00,0.00
2026-06-23 20:09:21.704,990.00,991.65,164.98,17.10,0.00,0.67,0.38,9.31,0.00,0.00,0.00
2026-06-23 20:09:21.705,990.00,991.65,164.98,17.10,0.00,0.67,0.38,9.31,0.00,0.00,0.00
2026-06-23 20:09:21.708,990.00,991.65,164.98,17.10,0.00,0.67,0.38,9.31,0.00,0.00,0.00
2026-06-23 20:09:21.901,990.00,991.62,161.87,16.93,0.00,0.66,0.38,9.27,0.00,0.00,0.00
2026-06-23 20:09:21.902,990.00,991.62,161.87,16.93,0.00,0.67,0.38,9.30,-0.00,-0.00,0.00
2026-06-23 20:09:21.903,990.00,991.62,161.87,16.93,0.00,0.67,0.38,9.30,-0.00,-0.00,0.00
2026-06-23 20:09:21.905,990.00,991.62,161.87,16.93,0.00,0.67,0.38,9.30,-0.00,-0.00,0.00
2026-06-23 20:09:21.906,990.00,991.62,161.87,16.93,0.00,0.67,0.38,9.30,-0.00,-0.00,0.00
2026-06-23 20:09:21.909,990.00,991.62,161.87,16.93,0.00,0.67,0.38,9.30,-0.00,-0.00,0.00
2026-06-23 20:09:21.912,990.00,991.62,161.87,16.93,0.00,0.67,0.38,9.30,0.00,-0.00,-0.00
2026-06-23 20:09:21.913,990.00,991.62,161.87,16.93,0.00,0.66,0.38,9.30,0.00,-0.00,-0.00
2026-06-23 20:09:21.915,990.00,991.62,161.87,16.93,0.00,0.66,0.38,9.30,0.00,-0.00,-0.00
2026-06-23 20:09:21.918,990.00,991.62,161.87,16.93,0.00,0.66,0.38,9.30,0.00,-0.00,-0.00
2026-06-23 20:09:21.922,990.00,991.62,161.87,16.93,0.00,0.66,0.38,9.30,0.00,0.00,-0.00
2026-06-23 20:09:21.923,990.00,991.62,161.87,16.93,0.00,0.66,0.38,9.30,0.00,0.00,-0.00
2026-06-23 20:09:21.924,990.00,991.62,161.87,16.93,0.00,0.66,0.38,9.30,0.00,0.00,-0.00
2026-06-23 20:09:21.925,990.00,991.62,161.87,16.93,0.00,0.66,0.38,9.30,0.00,0.00,-0.00
2026-06-23 20:09:21.926,990.00,991.62,161.87,16.93,0.00,0.66,0.38,9.30,0.00,0.00,-0.00
2026-06-23 20:09:21.928,990.00,991.62,161.87,16.93,0.00,0.66,0.38,9.30,0.00,0.00,-0.00
2026-06-23 20:09:21.929,990.00,991.62,161.87,16.93,0.00,0.66,0.38,9.30,0.00,0.00,-0.00
2026-06-23 20:09:21.932,990.00,991.62,161.87,16.93,0.00,0.66,0.38,9.30,0.00,0.00,0.00
2026-06-23 20:09:21.933,990.00,991.62,161.87,16.93,0.00,0.66,0.39,9.29,0.00,0.00,0.00
2026-06-23 20:09:21.935,990.00,991.62,161.87,16.93,0.00,0.66,0.39,9.29,0.00,0.00,0.00
2026-06-23 20:09:21.936,990.00,991.62,161.87,16.93,0.00,0.66,0.39,9.29,0.00,0.00,0.00
2026-06-23 20:09:21.941,990.00,991.62,161.87,16.93,0.00,0.66,0.39,9.29,0.00,0.00,0.00
2026-06-23 20:09:21.942,990.00,991.62,161.87,16.93,0.00,0.66,0.37,9.29,-0.00,-0.00,0.00
2026-06-23 20:09:21.943,990.00,991.62,161.87,16.93,0.00,0.66,0.37,9.29,-0.00,-0.00,0.00
2026-06-23 20:09:21.945,990.00,991.62,161.87,16.93,0.00,0.66,0.37,9.29,-0.00,-0.00,0.00
2026-06-23 20:09:21.948,990.00,991.62,161.87,16.93,0.00,0.66,0.37,9.29,-0.00,-0.00,0.00
2026-06-23 20:09:21.952,990.00,991.62,161.87,16.93,0.00,0.66,0.37,9.29,0.00,-0.00,0.00
2026-06-23 20:09:21.953,990.00,991.62,161.87,16.93,0.00,0.67,0.36,9.29,0.00,-0.00,0.00
2026-06-23 20:09:21.954,990.00,991.62,161.87,16.93,0.00,0.67,0.36,9.29,0.00,-0.00,0.00
2026-06-23 20:09:21.955,990.00,991.62,161.87,16.93,0.00,0.67,0.36,9.29,0.00,-0.00,0.00
2026-06-23 20:09:21.959,990.00,991.62,161.87,16.93,0.00,0.67,0.36,9.29,0.00,-0.00,0.00
2026-06-23 20:09:21.962,990.00,991.62,161.87,16.93,0.00,0.67,0.36,9.29,0.00,0.00,0.00
2026-06-23 20:09:21.963,990.00,991.62,161.87,16.93,0.00,0.66,0.38,9.29,0.00,0.00,0.00
2026-06-23 20:09:21.965,990.00,991.62,161.87,16.93,0.00,0.66,0.38,9.29,0.00,0.00,0.00
2026-06-23 20:09:21.968,990.00,991.62,161.87,16.93,0.00,0.66,0.38,9.29,0.00,0.00,0.00
2026-06-23 20:09:21.972,990.00,991.62,161.87,16.93,0.00,0.66,0.38,9.29,0.00,0.00,0.00
2026-06-23 20:09:21.973,990.00,991.62,161.87,16.93,0.00,0.66,0.37,9.31,0.00,0.00,0.00
2026-06-23 20:09:21.974,990.00,991.62,161.87,16.93,0.00,0.66,0.37,9.31,0.00,0.00,0.00
2026-06-23 20:09:21.975,990.00,991.62,161.87,16.93,0.00,0.66,0.37,9.31,0.00,0.00,0.00
2026-06-23 20:09:21.976,990.00,991.62,161.87,16.93,0.00,0.66,0.37,9.31,0.00,0.00,0.00
2026-06-23 20:09:21.978,990.00,991.62,161.87,16.93,0.00,0.66,0.37,9.31,0.00,0.00,0.00
2026-06-23 20:09:21.979,990.00,991.62,161.87,16.93,0.00,0.66,0.37,9.31,0.00,0.00,0.00
2026-06-23 20:09:21.982,990.00,991.62,161.87,16.93,0.00,0.66,0.37,9.31,0.00,-0.00,0.00
2026-06-23 20:09:21.984,990.00,991.62,161.87,16.93,0.00,0.66,0.37,9.28,0.00,-0.00,0.00
2026-06-23 20:09:21.985,990.00,991.62,161.87,16.93,0.00,0.66,0.37,9.28,0.00,-0.00,0.00
2026-06-23 20:09:21.987,990.00,991.62,161.87,16.93,0.00,0.66,0.37,9.28,0.00,-0.00,0.00
2026-06-23 20:09:21.991,990.00,991.62,161.87,16.93,0.00,0.66,0.37,9.28,0.00,-0.00,0.00
2026-06-23 20:09:21.992,990.00,991.62,161.87,16.93,0.00,0.67,0.38,9.29,0.00,-0.00,0.00
2026-06-23 20:09:21.994,990.00,991.62,161.87,16.93,0.00,0.67,0.38,9.29,0.00,-0.00,0.00
2026-06-23 20:09:21.995,990.00,991.62,161.87,16.93,0.00,0.67,0.38,9.29,0.00,-0.00,0.00
2026-06-23 20:09:21.999,990.00,991.62,161.87,16.93,0.00,0.67,0.38,9.29,0.00,-0.00,0.00
2026-06-23 20:09:22.192,990.00,991.64,164.03,17.05,0.00,0.66,0.39,9.32,0.00,0.00,0.00
2026-06-23 20:09:22.193,990.00,991.64,164.03,17.05,0.00,0.67,0.38,9.30,0.00,0.00,0.00
2026-06-23 20:09:22.194,990.00,991.64,164.03,17.05,0.00,0.67,0.38,9.30,0.00,0.00,0.00
2026-06-23 20:09:22.196,990.00,991.64,164.03,17.05,0.00,0.67,0.38,9.30,0.00,0.00,0.00
2026-06-23 20:09:22.201,990.00,991.64,164.03,17.05,0.00,0.67,0.38,9.30,0.00,0.00,0.00
2026-06-23 20:09:22.203,990.00,991.64,164.03,17.05,0.00,0.65,0.40,9.28,-0.00,0.00,0.00
2026-06-23 20:09:22.204,990.00,991.64,164.03,17.05,0.00,0.65,0.40,9.28,-0.00,0.00,0.00
2026-06-23 20:09:22.205,990.00,991.64,164.03,17.05,0.00,0.65,0.40,9.28,-0.00,0.00,0.00
2026-06-23 20:09:22.206,990.00,991.64,164.03,17.05,0.00,0.65,0.40,9.28,-0.00,0.00,0.00
2026-06-23 20:09:22.207,990.00,991.64,164.03,17.05,0.00,0.65,0.40,9.28,-0.00,0.00,0.00
2026-06-23 20:09:22.212,990.00,991.64,164.03,17.05,0.00,0.65,0.40,9.28,-0.00,0.00,0.00
2026-06-23 20:09:22.214,990.00,991.64,164.03,17.05,0.00,0.66,0.39,9.28,-0.00,0.00,0.00
2026-06-23 20:09:22.215,990.00,991.64,164.03,17.05,0.00,0.66,0.39,9.28,-0.00,0.00,0.00
2026-06-23 20:09:22.220,990.00,991.64,164.03,17.05,0.00,0.66,0.39,9.28,-0.00,0.00,0.00
2026-06-23 20:09:22.223,990.00,991.64,164.03,17.05,0.00,0.66,0.39,9.28,0.00,0.00,0.00
2026-06-23 20:09:22.224,990.00,991.64,164.03,17.05,0.00,0.66,0.38,9.30,0.00,0.00,0.00
2026-06-23 20:09:22.225,990.00,991.64,164.03,17.05,0.00,0.66,0.38,9.30,0.00,0.00,0.00
2026-06-23 20:09:22.226,990.00,991.64,164.03,17.05,0.00,0.66,0.38,9.30,0.00,0.00,0.00
2026-06-23 20:09:22.227,990.00,991.64,164.03,17.05,0.00,0.66,0.38,9.30,0.00,0.00,0.00
2026-06-23 20:09:22.229,990.00,991.64,164.03,17.05,0.00,0.66,0.38,9.30,0.00,0.00,0.00
2026-06-23 20:09:22.230,990.00,991.64,164.03,17.05,0.00,0.66,0.38,9.30,0.00,0.00,0.00
2026-06-23 20:09:22.233,990.00,991.64,164.03,17.05,0.00,0.66,0.39,9.32,0.00,0.00,0.00
2026-06-23 20:09:22.234,990.00,991.64,164.03,17.05,0.00,0.66,0.39,9.32,0.00,0.00,0.00
2026-06-23 20:09:22.235,990.00,991.64,164.03,17.05,0.00,0.66,0.39,9.32,0.00,0.00,0.00
2026-06-23 20:09:22.236,990.00,991.64,164.03,17.05,0.00,0.66,0.39,9.32,0.00,0.00,0.00
2026-06-23 20:09:22.242,990.00,991.64,164.03,17.05,0.00,0.66,0.39,9.32,0.00,0.00,0.00
2026-06-23 20:09:22.243,990.00,991.64,164.03,17.05,0.00,0.66,0.37,9.30,0.00,-0.00,-0.00
2026-06-23 20:09:22.244,990.00,991.64,164.03,17.05,0.00,0.66,0.37,9.30,0.00,-0.00,-0.00
2026-06-23 20:09:22.245,990.00,991.64,164.03,17.05,0.00,0.66,0.37,9.30,0.00,-0.00,-0.00
2026-06-23 20:09:22.249,990.00,991.64,164.03,17.05,0.00,0.66,0.37,9.30,0.00,-0.00,-0.00
2026-06-23 20:09:22.252,990.00,991.64,164.03,17.05,0.00,0.66,0.37,9.30,0.00,0.00,0.00
2026-06-23 20:09:22.253,990.00,991.64,164.03,17.05,0.00,0.67,0.38,9.26,0.00,0.00,0.00
2026-06-23 20:09:22.255,990.00,991.64,164.03,17.05,0.00,0.67,0.38,9.26,0.00,0.00,0.00
2026-06-23 20:09:22.256,990.00,991.64,164.03,17.05,0.00,0.67,0.38,9.26,0.00,0.00,0.00
2026-06-23 20:09:22.259,990.00,991.64,164.03,17.05,0.00,0.67,0.38,9.26,0.00,0.00,0.00
2026-06-23 20:09:22.262,990.00,991.64,164.03,17.05,0.00,0.67,0.38,9.26,0.00,-0.00,-0.00
2026-06-23 20:09:22.264,990.00,991.64,164.03,17.05,0.00,0.67,0.37,9.28,0.00,-0.00,-0.00
2026-06-23 20:09:22.265,990.00,991.64,164.03,17.05,0.00,0.67,0.37,9.28,0.00,-0.00,-0.00
2026-06-23 20:09:22.269,990.00,991.64,164.03,17.05,0.00,0.67,0.37,9.28,0.00,-0.00,-0.00
2026-06-23 20:09:22.273,990.00,991.64,164.03,17.05,0.00,0.67,0.37,9.28,-0.00,0.00,-0.00
2026-06-23 20:09:22.274,990.00,991.64,164.03,17.05,0.00,0.65,0.35,9.31,-0.00,0.00,-0.00
2026-06-23 20:09:22.275,990.00,991.64,164.03,17.05,0.00,0.65,0.35,9.31,-0.00,0.00,-0.00
2026-06-23 20:09:22.276,990.00,991.64,164.03,17.05,0.00,0.65,0.35,9.31,-0.00,0.00,-0.00
2026-06-23 20:09:22.277,990.00,991.64,164.03,17.05,0.00,0.65,0.35,9.31,-0.00,0.00,-0.00
2026-06-23 20:09:22.279,990.00,991.64,164.03,17.05,0.00,0.65,0.35,9.31,-0.00,0.00,-0.00
2026-06-23 20:09:22.280,990.00,991.64,164.03,17.05,0.00,0.65,0.35,9.31,-0.00,0.00,-0.00
2026-06-23 20:09:22.282,990.00,991.64,164.03,17.05,0.00,0.65,0.35,9.31,-0.00,-0.00,0.00
2026-06-23 20:09:22.284,990.00,991.64,164.03,17.05,0.00,0.66,0.37,9.32,-0.00,-0.00,0.00
2026-06-23 20:09:22.285,990.00,991.64,164.03,17.05,0.00,0.66,0.37,9.32,-0.00,-0.00,0.00
2026-06-23 20:09:22.286,990.00,991.64,164.03,17.05,0.00,0.66,0.37,9.32,-0.00,-0.00,0.00
2026-06-23 20:09:22.289,990.00,991.64,164.03,17.05,0.00,0.66,0.37,9.32,-0.00,-0.00,0.00
2026-06-23 20:09:22.478,990.00,991.63,162.97,16.99,0.00,0.65,0.38,9.31,0.00,-0.00,0.00
2026-06-23 20:09:22.481,990.00,991.63,162.97,16.99,0.00,0.65,0.38,9.31,0.00,-0.00,0.00
2026-06-23 20:09:22.483,990.00,991.63,162.97,16.99,0.00,0.66,0.36,9.30,0.00,-0.00,0.00
2026-06-23 20:09:22.484,990.00,991.63,162.97,16.99,0.00,0.66,0.36,9.30,0.00,-0.00,0.00
2026-06-23 20:09:22.486,990.00,991.63,162.97,16.99,0.00,0.66,0.36,9.30,0.00,-0.00,0.00
2026-06-23 20:09:22.487,990.00,991.63,162.97,16.99,0.00,0.66,0.36,9.30,0.00,-0.00,0.00
2026-06-23 20:09:22.491,990.00,991.63,162.97,16.99,0.00,0.66,0.36,9.30,0.00,-0.00,0.00
2026-06-23 20:09:22.493,990.00,991.63,162.97,16.99,0.00,0.67,0.39,9.32,0.00,-0.00,0.00
2026-06-23 20:09:22.494,990.00,991.63,162.97,16.99,0.00,0.67,0.39,9.32,0.00,-0.00,0.00
2026-06-23 20:09:22.496,990.00,991.63,162.97,16.99,0.00,0.67,0.39,9.32,0.00,-0.00,0.00
2026-06-23 20:09:22.499,990.00,991.63,162.97,16.99,0.00,0.67,0.39,9.32,0.00,-0.00,0.00
2026-06-23 20:09:22.503,990.00,991.63,162.97,16.99,0.00,0.67,0.39,9.32,-0.00,-0.00,-0.00
2026-06-23 20:09:22.504,990.00,991.63,162.97,16.99,0.00,0.67,0.39,9.28,-0.00,-0.00,-0.00
2026-06-23 20:09:22.505,990.00,991.63,162.97,16.99,0.00,0.67,0.39,9.28,-0.00,-0.00,-0.00
2026-06-23 20:09:22.506,990.00,991.63,162.97,16.99,0.00,0.67,0.39,9.28,-0.00,-0.00,-0.00
2026-06-23 20:09:22.507,990.00,991.63,162.97,16.99,0.00,0.67,0.39,9.28,-0.00,-0.00,-0.00
2026-06-23 20:09:22.510,990.00,991.63,162.97,16.99,0.00,0.67,0.39,9.28,-0.00,-0.00,-0.00
2026-06-23 20:09:22.513,990.00,991.63,162.97,16.99,0.00,0.67,0.39,9.28,-0.00,0.00,0.00
2026-06-23 20:09:22.515,990.00,991.63,162.97,16.99,0.00,0.66,0.39,9.30,-0.00,0.00,0.00
2026-06-23 20:09:22.516,990.00,991.63,162.97,16.99,0.00,0.66,0.39,9.30,-0.00,0.00,0.00
2026-06-23 20:09:22.521,990.00,991.63,162.97,16.99,0.00,0.66,0.39,9.30,-0.00,0.00,0.00
2026-06-23 20:09:22.523,990.00,991.63,162.97,16.99,0.00,0.66,0.39,9.30,-0.00,-0.00,0.00
2026-06-23 20:09:22.524,990.00,991.63,162.97,16.99,0.00,0.66,0.39,9.31,-0.00,-0.00,0.00
2026-06-23 20:09:22.526,990.00,991.63,162.97,16.99,0.00,0.66,0.39,9.31,-0.00,-0.00,0.00
2026-06-23 20:09:22.527,990.00,991.63,162.97,16.99,0.00,0.66,0.39,9.31,-0.00,-0.00,0.00
2026-06-23 20:09:22.528,990.00,991.63,162.97,16.99,0.00,0.66,0.39,9.31,-0.00,-0.00,0.00
2026-06-23 20:09:22.530,990.00,991.63,162.97,16.99,0.00,0.66,0.39,9.31,-0.00,-0.00,0.00
2026-06-23 20:09:22.532,990.00,991.63,162.97,16.99,0.00,0.66,0.39,9.31,-0.00,-0.00,0.00
2026-06-23 20:09:22.534,990.00,991.63,162.97,16.99,0.00,0.65,0.39,9.31,0.00,-0.00,-0.00
2026-06-23 20:09:22.535,990.00,991.63,162.97,16.99,0.00,0.65,0.39,9.31,0.00,-0.00,-0.00
2026-06-23 20:09:22.536,990.00,991.63,162.97,16.99,0.00,0.65,0.39,9.31,0.00,-0.00,-0.00
2026-06-23 20:09:22.538,990.00,991.63,162.97,16.99,0.00,0.65,0.39,9.31,0.00,-0.00,-0.00
2026-06-23 20:09:22.543,990.00,991.63,162.97,16.99,0.00,0.65,0.39,9.31,0.00,-0.00,-0.00
2026-06-23 20:09:22.545,990.00,991.63,162.97,16.99,0.00,0.66,0.39,9.31,0.00,-0.01,0.00
2026-06-23 20:09:22.546,990.00,991.63,162.97,16.99,0.00,0.66,0.39,9.31,0.00,-0.01,0.00
2026-06-23 20:09:22.551,990.00,991.63,162.97,16.99,0.00,0.66,0.39,9.31,0.00,-0.01,0.00
2026-06-23 20:09:22.553,990.00,991.63,162.97,16.99,0.00,0.66,0.39,9.31,0.00,-0.00,0.00
2026-06-23 20:09:22.555,990.00,991.63,162.97,16.99,0.00,0.67,0.40,9.27,0.00,-0.00,0.00
2026-06-23 20:09:22.557,990.00,991.63,162.97,16.99,0.00,0.67,0.40,9.27,0.00,-0.00,0.00
2026-06-23 20:09:22.562,990.00,991.63,162.97,16.99,0.00,0.67,0.40,9.27,0.00,-0.00,0.00
2026-06-23 20:09:22.564,990.00,991.63,162.97,16.99,0.00,0.67,0.37,9.28,0.00,-0.00,0.00
2026-06-23 20:09:22.565,990.00,991.63,162.97,16.99,0.00,0.67,0.37,9.28,0.00,-0.00,0.00
2026-06-23 20:09:22.567,990.00,991.63,162.97,16.99,0.00,0.67,0.37,9.28,0.00,-0.00,0.00
2026-06-23 20:09:22.572,990.00,991.63,162.97,16.99,0.00,0.67,0.37,9.28,0.00,-0.00,0.00
2026-06-23 20:09:22.574,990.00,991.63,162.97,16.99,0.00,0.66,0.37,9.30,0.00,-0.00,0.00
2026-06-23 20:09:22.575,990.00,991.63,162.97,16.99,0.00,0.66,0.37,9.30,0.00,-0.00,0.00
2026-06-23 20:09:22.576,990.00,991.63,162.97,16.99,0.00,0.66,0.37,9.30,0.00,-0.00,0.00
2026-06-23 20:09:22.577,990.00,991.63,162.97,16.99,0.00,0.66,0.37,9.30,0.00,-0.00,0.00
2026-06-23 20:09:22.767,990.00,991.64,164.14,17.05,0.00,0.66,0.38,9.28,-0.00,-0.01,0.00
2026-06-23 20:09:22.772,990.00,991.64,164.14,17.05,0.00,0.66,0.38,9.28,-0.00,-0.01,0.00
2026-06-23 20:09:22.774,990.00,991.64,164.14,17.05,0.00,0.65,0.39,9.31,0.00,0.00,0.00
2026-06-23 20:09:22.775,990.00,991.64,164.14,17.05,0.00,0.65,0.39,9.31,0.00,0.00,0.00
2026-06-23 20:09:22.776,990.00,991.64,164.14,17.05,0.00,0.65,0.39,9.31,0.00,0.00,0.00
2026-06-23 20:09:22.778,990.00,991.64,164.14,17.05,0.00,0.65,0.39,9.31,0.00,0.00,0.00
2026-06-23 20:09:22.779,990.00,991.64,164.14,17.05,0.00,0.65,0.39,9.31,0.00,0.00,0.00
2026-06-23 20:09:22.781,990.00,991.64,164.14,17.05,0.00,0.65,0.39,9.31,0.00,0.00,0.00
2026-06-23 20:09:22.782,990.00,991.64,164.14,17.05,0.00,0.65,0.39,9.31,0.00,0.00,0.00
2026-06-23 20:09:22.784,990.00,991.64,164.14,17.05,0.00,0.65,0.37,9.30,0.00,-0.00,0.00
2026-06-23 20:09:22.785,990.00,991.64,164.14,17.05,0.00,0.65,0.37,9.30,0.00,-0.00,0.00
2026-06-23 20:09:22.786,990.00,991.64,164.14,17.05,0.00,0.65,0.37,9.30,0.00,-0.00,0.00
2026-06-23 20:09:22.787,990.00,991.64,164.14,17.05,0.00,0.65,0.37,9.30,0.00,-0.00,0.00
2026-06-23 20:09:22.792,990.00,991.64,164.14,17.05,0.00,0.65,0.37,9.30,0.00,-0.00,0.00
2026-06-23 20:09:22.794,990.00,991.64,164.14,17.05,0.00,0.66,0.37,9.32,0.00,-0.00,-0.00
2026-06-23 20:09:22.795,990.00,991.64,164.14,17.05,0.00,0.66,0.37,9.32,0.00,-0.00,-0.00
2026-06-23 20:09:22.797,990.00,991.64,164.14,17.05,0.00,0.66,0.37,9.32,0.00,-0.00,-0.00
2026-06-23 20:09:22.801,990.00,991.64,164.14,17.05,0.00,0.66,0.37,9.32,0.00,-0.00,-0.00
2026-06-23 20:09:22.804,990.00,991.64,164.14,17.05,0.00,0.66,0.37,9.32,-0.00,0.00,-0.00
2026-06-23 20:09:22.805,990.00,991.64,164.14,17.05,0.00,0.66,0.39,9.29,-0.00,0.00,-0.00
2026-06-23 20:09:22.806,990.00,991.64,164.14,17.05,0.00,0.66,0.39,9.29,-0.00,0.00,-0.00
2026-06-23 20:09:22.807,990.00,991.64,164.14,17.05,0.00,0.66,0.39,9.29,-0.00,0.00,-0.00
2026-06-23 20:09:22.808,990.00,991.64,164.14,17.05,0.00,0.66,0.39,9.29,-0.00,0.00,-0.00
2026-06-23 20:09:22.813,990.00,991.64,164.14,17.05,0.00,0.66,0.39,9.29,-0.00,0.00,-0.00
2026-06-23 20:09:22.815,990.00,991.64,164.14,17.05,0.00,0.67,0.38,9.28,-0.00,-0.00,0.00
2026-06-23 20:09:22.816,990.00,991.64,164.14,17.05,0.00,0.67,0.38,9.28,-0.00,-0.00,0.00
2026-06-23 20:09:22.817,990.00,991.64,164.14,17.05,0.00,0.67,0.38,9.28,-0.00,-0.00,0.00
2026-06-23 20:09:22.823,990.00,991.64,164.14,17.05,0.00,0.67,0.38,9.28,-0.00,-0.00,0.00
2026-06-23 20:09:22.824,990.00,991.64,164.14,17.05,0.00,0.65,0.38,9.29,-0.00,0.00,0.00
2026-06-23 20:09:22.825,990.00,991.64,164.14,17.05,0.00,0.65,0.38,9.29,-0.00,0.00,0.00
2026-06-23 20:09:22.827,990.00,991.64,164.14,17.05,0.00,0.65,0.38,9.29,-0.00,0.00,0.00
2026-06-23 20:09:22.828,990.00,991.64,164.14,17.05,0.00,0.65,0.38,9.29,-0.00,0.00,0.00
2026-06-23 20:09:22.829,990.00,991.64,164.14,17.05,0.00,0.65,0.38,9.29,-0.00,0.00,0.00
2026-06-23 20:09:22.831,990.00,991.64,164.14,17.05,0.00,0.65,0.38,9.29,-0.00,0.00,0.00
2026-06-23 20:09:22.834,990.00,991.64,164.14,17.05,0.00,0.65,0.38,9.29,-0.00,0.00,0.00
2026-06-23 20:09:22.835,990.00,991.64,164.14,17.05,0.00,0.65,0.37,9.28,-0.00,0.00,0.00
2026-06-23 20:09:22.836,990.00,991.64,164.14,17.05,0.00,0.65,0.37,9.28,-0.00,0.00,0.00
2026-06-23 20:09:22.837,990.00,991.64,164.14,17.05,0.00,0.65,0.37,9.28,-0.00,0.00,0.00
2026-06-23 20:09:22.842,990.00,991.64,164.14,17.05,0.00,0.65,0.37,9.28,-0.00,0.00,0.00
2026-06-23 20:09:22.844,990.00,991.64,164.14,17.05,0.00,0.67,0.37,9.30,-0.00,0.00,0.00
2026-06-23 20:09:22.845,990.00,991.64,164.14,17.05,0.00,0.67,0.37,9.30,-0.00,0.00,0.00
2026-06-23 20:09:22.853,990.00,991.64,164.14,17.05,0.00,0.67,0.37,9.30,-0.00,0.00,0.00
2026-06-23 20:09:22.855,990.00,991.64,164.14,17.05,0.00,0.66,0.38,9.28,0.00,0.00,0.00
2026-06-23 20:09:22.856,990.00,991.64,164.14,17.05,0.00,0.66,0.38,9.28,0.00,0.00,0.00
2026-06-23 20:09:22.857,990.00,991.64,164.14,17.05,0.00,0.66,0.38,9.28,0.00,0.00,0.00
2026-06-23 20:09:22.859,990.00,991.64,164.14,17.05,0.00,0.66,0.38,9.28,0.00,0.00,0.00
2026-06-23 20:09:22.863,990.00,991.64,164.14,17.05,0.00,0.66,0.38,9.28,0.00,0.00,0.00
2026-06-23 20:09:22.865,990.00,991.64,164.14,17.05,0.00,0.66,0.39,9.30,-0.00,0.00,0.00
2026-06-23 20:09:22.866,990.00,991.64,164.14,17.05,0.00,0.66,0.39,9.30,-0.00,0.00,0.00
2026-06-23 20:09:23.055,990.00,991.65,164.77,17.09,0.00,0.67,0.39,9.26,-0.00,-0.00,0.00
2026-06-23 20:09:23.057,990.00,991.65,164.77,17.09,0.00,0.67,0.39,9.26,-0.00,-0.00,0.00
2026-06-23 20:09:23.058,990.00,991.65,164.77,17.09,0.00,0.67,0.39,9.26,-0.00,-0.00,0.00
2026-06-23 20:09:23.061,990.00,991.65,164.77,17.09,0.00,0.67,0.39,9.26,-0.00,-0.00,0.00
2026-06-23 20:09:23.065,990.00,991.65,164.77,17.09,0.00,0.67,0.39,9.26,-0.00,-0.00,0.00
2026-06-23 20:09:23.066,990.00,991.65,164.77,17.09,0.00,0.65,0.37,9.29,-0.00,-0.00,0.00
2026-06-23 20:09:23.067,990.00,991.65,164.77,17.09,0.00,0.65,0.37,9.29,-0.00,-0.00,0.00
2026-06-23 20:09:23.070,990.00,991.65,164.77,17.09,0.00,0.65,0.37,9.29,-0.00,-0.00,0.00
2026-06-23 20:09:23.074,990.00,991.65,164.77,17.09,0.00,0.65,0.37,9.29,-0.00,0.00,-0.00
2026-06-23 20:09:23.075,990.00,991.65,164.77,17.09,0.00,0.65,0.40,9.30,-0.00,0.00,-0.00
2026-06-23 20:09:23.077,990.00,991.65,164.77,17.09,0.00,0.65,0.40,9.30,-0.00,0.00,-0.00
2026-06-23 20:09:23.078,990.00,991.65,164.77,17.09,0.00,0.65,0.40,9.30,-0.00,0.00,-0.00
2026-06-23 20:09:23.079,990.00,991.65,164.77,17.09,0.00,0.65,0.40,9.30,-0.00,0.00,-0.00
2026-06-23 20:09:23.081,990.00,991.65,164.77,17.09,0.00,0.65,0.40,9.30,-0.00,0.00,-0.00
2026-06-23 20:09:23.084,990.00,991.65,164.77,17.09,0.00,0.65,0.40,9.30,-0.00,0.00,-0.00
2026-06-23 20:09:23.085,990.00,991.65,164.77,17.09,0.00,0.66,0.37,9.31,-0.00,0.00,0.00
2026-06-23 20:09:23.086,990.00,991.65,164.77,17.09,0.00,0.66,0.37,9.31,-0.00,0.00,0.00
2026-06-23 20:09:23.087,990.00,991.65,164.77,17.09,0.00,0.66,0.37,9.31,-0.00,0.00,0.00
2026-06-23 20:09:23.089,990.00,991.65,164.77,17.09,0.00,0.66,0.37,9.31,-0.00,0.00,0.00
2026-06-23 20:09:23.094,990.00,991.65,164.77,17.09,0.00,0.66,0.37,9.31,-0.00,0.00,0.00
2026-06-23 20:09:23.095,990.00,991.65,164.77,17.09,0.00,0.67,0.38,9.29,-0.00,0.00,-0.00
2026-06-23 20:09:23.097,990.00,991.65,164.77,17.09,0.00,0.67,0.38,9.29,-0.00,0.00,-0.00
2026-06-23 20:09:23.098,990.00,991.65,164.77,17.09,0.00,0.67,0.38,9.29,-0.00,0.00,-0.00
2026-06-23 20:09:23.104,990.00,991.65,164.77,17.09,0.00,0.67,0.38,9.29,-0.00,0.00,-0.00
2026-06-23 20:09:23.105,990.00,991.65,164.77,17.09,0.00,0.64,0.38,9.27,0.00,0.00,0.00
2026-06-23 20:09:23.106,990.00,991.65,164.77,17.09,0.00,0.64,0.38,9.27,0.00,0.00,0.00
2026-06-23 20:09:23.107,990.00,991.65,164.77,17.09,0.00,0.64,0.38,9.27,0.00,0.00,0.00
2026-06-23 20:09:23.109,990.00,991.65,164.77,17.09,0.00,0.64,0.38,9.27,0.00,0.00,0.00
2026-06-23 20:09:23.111,990.00,991.65,164.77,17.09,0.00,0.64,0.38,9.27,0.00,0.00,0.00
2026-06-23 20:09:23.115,990.00,991.65,164.77,17.09,0.00,0.64,0.38,9.27,-0.00,0.00,-0.00
2026-06-23 20:09:23.116,990.00,991.65,164.77,17.09,0.00,0.67,0.38,9.30,-0.00,0.00,-0.00
2026-06-23 20:09:23.118,990.00,991.65,164.77,17.09,0.00,0.67,0.38,9.30,-0.00,0.00,-0.00
2026-06-23 20:09:23.120,990.00,991.65,164.77,17.09,0.00,0.67,0.38,9.30,-0.00,0.00,-0.00
2026-06-23 20:09:23.124,990.00,991.65,164.77,17.09,0.00,0.67,0.38,9.30,-0.00,0.00,-0.00
2026-06-23 20:09:23.125,990.00,991.65,164.77,17.09,0.00,0.66,0.38,9.30,-0.00,0.00,0.00
2026-06-23 20:09:23.127,990.00,991.65,164.77,17.09,0.00,0.66,0.38,9.30,-0.00,0.00,0.00
2026-06-23 20:09:23.128,990.00,991.65,164.77,17.09,0.00,0.66,0.38,9.30,-0.00,0.00,0.00
2026-06-23 20:09:23.129,990.00,991.65,164.77,17.09,0.00,0.66,0.38,9.30,-0.00,0.00,0.00
2026-06-23 20:09:23.131,990.00,991.65,164.77,17.09,0.00,0.66,0.38,9.30,-0.00,0.00,0.00
2026-06-23 20:09:23.134,990.00,991.65,164.77,17.09,0.00,0.66,0.38,9.30,-0.00,0.00,0.00
2026-06-23 20:09:23.135,990.00,991.65,164.77,17.09,0.00,0.67,0.37,9.30,-0.00,0.00,-0.00
2026-06-23 20:09:23.136,990.00,991.65,164.77,17.09,0.00,0.67,0.37,9.30,-0.00,0.00,-0.00
2026-06-23 20:09:23.137,990.00,991.65,164.77,17.09,0.00,0.67,0.37,9.30,-0.00,0.00,-0.00
2026-06-23 20:09:23.138,990.00,991.65,164.77,17.09,0.00,0.67,0.37,9.30,-0.00,0.00,-0.00
2026-06-23 20:09:23.144,990.00,991.65,164.77,17.09,0.00,0.67,0.37,9.30,-0.00,0.00,-0.00
2026-06-23 20:09:23.145,990.00,991.65,164.77,17.09,0.00,0.65,0.39,9.29,0.00,0.00,-0.00
2026-06-23 20:09:23.147,990.00,991.65,164.77,17.09,0.00,0.65,0.39,9.29,0.00,0.00,-0.00
2026-06-23 20:09:23.148,990.00,991.65,164.77,17.09,0.00,0.65,0.39,9.29,0.00,0.00,-0.00
2026-06-23 20:09:23.154,990.00,991.65,164.77,17.09,0.00,0.65,0.39,9.29,0.00,0.00,-0.00
2026-06-23 20:09:23.345,990.00,991.64,163.63,17.03,0.00,0.66,0.37,9.31,0.00,0.00,-0.00
2026-06-23 20:09:23.347,990.00,991.64,163.63,17.03,0.00,0.67,0.39,9.30,0.00,0.00,-0.00
2026-06-23 20:09:23.348,990.00,991.64,163.63,17.03,0.00,0.67,0.39,9.30,0.00,0.00,-0.00
2026-06-23 20:09:23.353,990.00,991.64,163.63,17.03,0.00,0.67,0.39,9.30,0.00,0.00,-0.00
2026-06-23 20:09:23.355,990.00,991.64,163.63,17.03,0.00,0.67,0.38,9.28,-0.00,-0.00,0.00
2026-06-23 20:09:23.356,990.00,991.64,163.63,17.03,0.00,0.67,0.38,9.28,-0.00,-0.00,0.00
2026-06-23 20:09:23.358,990.00,991.64,163.63,17.03,0.00,0.67,0.38,9.28,-0.00,-0.00,0.00
2026-06-23 20:09:23.359,990.00,991.64,163.63,17.03,0.00,0.67,0.38,9.28,-0.00,-0.00,0.00
2026-06-23 20:09:23.362,990.00,991.64,163.63,17.03,0.00,0.67,0.38,9.28,-0.00,-0.00,0.00
2026-06-23 20:09:23.365,990.00,991.64,163.63,17.03,0.00,0.67,0.38,9.28,0.00,-0.00,0.00
2026-06-23 20:09:23.367,990.00,991.64,163.63,17.03,0.00,0.66,0.38,9.31,0.00,-0.00,0.00
2026-06-23 20:09:23.368,990.00,991.64,163.63,17.03,0.00,0.66,0.38,9.31,0.00,-0.00,0.00
2026-06-23 20:09:23.370,990.00,991.64,163.63,17.03,0.00,0.66,0.38,9.31,0.00,-0.00,0.00
2026-06-23 20:09:23.375,990.00,991.64,163.63,17.03,0.00,0.66,0.38,9.31,0.00,-0.00,0.00
2026-06-23 20:09:23.376,990.00,991.64,163.63,17.03,0.00,0.67,0.37,9.29,0.00,-0.00,-0.00
2026-06-23 20:09:23.377,990.00,991.64,163.63,17.03,0.00,0.67,0.37,9.29,0.00,-0.00,-0.00
2026-06-23 20:09:23.379,990.00,991.64,163.63,17.03,0.00,0.67,0.37,9.29,0.00,-0.00,-0.00
2026-06-23 20:09:23.380,990.00,991.64,163.63,17.03,0.00,0.67,0.37,9.29,0.00,-0.00,-0.00
2026-06-23 20:09:23.381,990.00,991.64,163.63,17.03,0.00,0.67,0.37,9.29,0.00,-0.00,-0.00
2026-06-23 20:09:23.385,990.00,991.64,163.63,17.03,0.00,0.67,0.37,9.29,0.00,-0.00,-0.00
2026-06-23 20:09:23.386,990.00,991.64,163.63,17.03,0.00,0.66,0.40,9.30,0.00,-0.00,0.00
2026-06-23 20:09:23.387,990.00,991.64,163.63,17.03,0.00,0.66,0.40,9.30,0.00,-0.00,0.00
2026-06-23 20:09:23.388,990.00,991.64,163.63,17.03,0.00,0.66,0.40,9.30,0.00,-0.00,0.00
2026-06-23 20:09:23.389,990.00,991.64,163.63,17.03,0.00,0.66,0.40,9.30,0.00,-0.00,0.00
2026-06-23 20:09:23.395,990.00,991.64,163.63,17.03,0.00,0.66,0.40,9.30,0.00,-0.00,0.00
2026-06-23 20:09:23.396,990.00,991.64,163.63,17.03,0.00,0.65,0.39,9.32,0.00,-0.00,0.00
2026-06-23 20:09:23.398,990.00,991.64,163.63,17.03,0.00,0.65,0.39,9.32,0.00,-0.00,0.00
2026-06-23 20:09:23.399,990.00,991.64,163.63,17.03,0.00,0.65,0.39,9.32,0.00,-0.00,0.00
2026-06-23 20:09:23.405,990.00,991.64,163.63,17.03,0.00,0.65,0.39,9.32,0.00,-0.00,0.00
2026-06-23 20:09:23.406,990.00,991.64,163.63,17.03,0.00,0.65,0.39,9.28,0.00,-0.00,0.00
2026-06-23 20:09:23.407,990.00,991.64,163.63,17.03,0.00,0.65,0.39,9.28,0.00,-0.00,0.00
2026-06-23 20:09:23.408,990.00,991.64,163.63,17.03,0.00,0.65,0.39,9.28,0.00,-0.00,0.00
2026-06-23 20:09:23.409,990.00,991.64,163.63,17.03,0.00,0.65,0.39,9.28,0.00,-0.00,0.00
2026-06-23 20:09:23.411,990.00,991.64,163.63,17.03,0.00,0.65,0.39,9.28,0.00,-0.00,0.00
