timestamp,pressure_bag,pressure_bme,diff_pressure,v_wind_est,speed,accel_x,accel_y,accel_z,gyro_x,gyro_y,gyro_z,power
2026-06-26 17:55:20.892,994.17,994.24,6.66,3.42,0.00,1.03,0.29,9.28,0.00,0.00,0.00,0.00
2026-06-26 17:55:20.902,994.17,994.24,6.66,3.42,0.00,0.99,0.28,9.29,0.00,0.00,0.00,0.00
2026-06-26 17:55:20.906,994.17,994.24,6.66,3.42,0.00,1.01,0.31,9.27,-0.00,0.00,0.00,0.00
2026-06-26 17:55:20.911,994.17,994.24,6.66,3.42,0.00,1.01,0.31,9.27,0.00,0.00,0.00,0.00
2026-06-26 17:55:20.914,994.17,994.24,6.66,3.42,0.00,1.02,0.31,9.27,0.00,0.00,0.00,0.00
2026-06-26 17:55:20.916,994.17,994.24,6.66,3.42,0.00,1.02,0.31,9.27,0.00,0.00,0.00,0.00
2026-06-26 17:55:20.921,994.17,994.24,6.66,3.42,0.00,1.02,0.31,9.27,0.00,0.00,0.00,0.00
2026-06-26 17:55:20.923,994.17,994.24,6.66,3.42,0.00,1.02,0.30,9.27,-0.00,0.00,0.00,0.00
2026-06-26 17:55:20.924,994.17,994.24,6.66,3.42,0.00,1.02,0.30,9.27,-0.00,0.00,0.00,0.00
2026-06-26 17:55:20.926,994.17,994.24,6.66,3.42,0.00,1.02,0.30,9.27,-0.00,0.00,0.00,0.00
2026-06-26 17:55:20.928,994.17,994.24,6.66,3.42,0.00,1.02,0.30,9.27,-0.00,0.00,0.00,0.00
2026-06-26 17:55:20.934,994.17,994.24,6.66,3.42,0.00,1.02,0.30,9.27,-0.00,0.00,0.00,0.00
2026-06-26 17:55:20.941,994.17,994.24,6.66,3.42,0.00,1.03,0.28,9.27,-0.00,0.00,0.00,0.00
2026-06-26 17:55:20.943,994.17,994.24,6.66,3.42,0.00,1.01,0.30,9.28,-0.00,-0.00,0.00,0.00
2026-06-26 17:55:20.945,994.17,994.24,6.66,3.42,0.00,1.01,0.30,9.28,-0.00,-0.00,0.00,0.00
2026-06-26 17:55:20.952,994.17,994.24,6.66,3.42,0.00,1.01,0.30,9.28,0.00,-0.00,0.00,0.00
2026-06-26 17:55:21.039,994.18,994.23,5.99,3.24,0.00,1.02,0.31,9.28,-0.00,0.00,-0.00,0.00
2026-06-26 17:55:21.042,994.18,994.23,5.99,3.24,0.00,1.01,0.29,9.29,-0.00,0.00,0.00,0.00
2026-06-26 17:55:21.044,994.18,994.23,5.99,3.24,0.00,1.01,0.29,9.29,-0.00,0.00,0.00,0.00
2026-06-26 17:55:21.046,994.18,994.23,5.99,3.24,0.00,1.01,0.29,9.29,-0.00,0.00,0.00,0.00
2026-06-26 17:55:21.052,994.18,994.23,5.99,3.24,0.00,1.01,0.29,9.29,-0.00,0.00,0.00,0.00
2026-06-26 17:55:21.054,994.18,994.23,5.99,3.24,0.00,1.02,0.29,9.26,-0.00,0.00,-0.00,0.00
2026-06-26 17:55:21.056,994.18,994.23,5.99,3.24,0.00,1.02,0.29,9.26,-0.00,0.00,-0.00,0.00
2026-06-26 17:55:21.060,994.18,994.23,5.99,3.24,0.00,1.02,0.29,9.26,-0.00,0.00,-0.00,0.00
2026-06-26 17:55:21.062,994.18,994.23,5.99,3.24,0.00,1.02,0.29,9.26,-0.00,-0.00,0.00,0.00
2026-06-26 17:55:21.064,994.18,994.23,5.99,3.24,0.00,1.01,0.31,9.29,-0.00,-0.00,0.00,0.00
2026-06-26 17:55:21.065,994.18,994.23,5.99,3.24,0.00,1.01,0.31,9.29,-0.00,-0.00,0.00,0.00
2026-06-26 17:55:21.066,994.18,994.23,5.99,3.24,0.00,1.01,0.31,9.29,-0.00,-0.00,0.00,0.00
2026-06-26 17:55:21.070,994.18,994.23,5.99,3.24,0.00,1.01,0.31,9.29,-0.00,-0.00,0.00,0.00
2026-06-26 17:55:21.073,994.18,994.23,5.99,3.24,0.00,1.01,0.31,9.29,-0.00,0.00,0.00,0.00
2026-06-26 17:55:21.075,994.18,994.23,5.99,3.24,0.00,1.02,0.31,9.30,-0.00,0.00,0.00,0.00
2026-06-26 17:55:21.076,994.18,994.23,5.99,3.24,0.00,1.02,0.31,9.30,-0.00,0.00,0.00,0.00
2026-06-26 17:55:21.078,994.18,994.23,5.99,3.24,0.00,1.02,0.31,9.30,-0.00,0.00,0.00,0.00
2026-06-26 17:55:21.081,994.18,994.23,5.99,3.24,0.00,1.02,0.31,9.30,-0.00,0.00,0.00,0.00
2026-06-26 17:55:21.083,994.18,994.23,5.99,3.24,0.00,1.02,0.30,9.30,0.00,-0.00,-0.00,0.00
2026-06-26 17:55:21.085,994.18,994.23,5.99,3.24,0.00,1.02,0.30,9.30,0.00,-0.00,-0.00,0.00
2026-06-26 17:55:21.086,994.18,994.23,5.99,3.24,0.00,1.02,0.30,9.30,0.00,-0.00,-0.00,0.00
2026-06-26 17:55:21.092,994.18,994.23,5.99,3.24,0.00,1.02,0.30,9.30,0.00,-0.00,-0.00,0.00
2026-06-26 17:55:21.093,994.18,994.23,5.99,3.24,0.00,1.01,0.29,9.27,-0.00,-0.00,0.00,0.00
2026-06-26 17:55:21.096,994.18,994.23,5.99,3.24,0.00,1.01,0.29,9.27,-0.00,-0.00,0.00,0.00
2026-06-26 17:55:21.182,994.18,994.23,5.72,3.17,0.00,1.01,0.29,9.25,-0.00,0.00,0.00,0.00
2026-06-26 17:55:21.184,994.18,994.23,5.72,3.17,0.00,1.00,0.29,9.27,-0.00,0.00,0.00,0.00
2026-06-26 17:55:21.185,994.18,994.23,5.72,3.17,0.00,1.00,0.29,9.27,-0.00,0.00,0.00,0.00
2026-06-26 17:55:21.187,994.18,994.23,5.72,3.17,0.00,1.00,0.29,9.27,-0.00,0.00,0.00,0.00
2026-06-26 17:55:21.192,994.18,994.23,5.72,3.17,0.00,1.00,0.29,9.27,-0.00,0.00,0.00,0.00
2026-06-26 17:55:21.194,994.18,994.23,5.72,3.17,0.00,1.00,0.28,9.26,-0.00,0.00,0.00,0.00
2026-06-26 17:55:21.200,994.18,994.23,5.72,3.17,0.00,1.00,0.28,9.26,-0.00,0.00,0.00,0.00
2026-06-26 17:55:21.202,994.18,994.23,5.72,3.17,0.00,1.00,0.28,9.26,-0.00,0.00,-0.00,0.00
2026-06-26 17:55:21.204,994.18,994.23,5.72,3.17,0.00,1.02,0.30,9.27,-0.00,0.00,-0.00,0.00
2026-06-26 17:55:21.205,994.18,994.23,5.72,3.17,0.00,1.02,0.30,9.27,-0.00,0.00,-0.00,0.00
2026-06-26 17:55:21.206,994.18,994.23,5.72,3.17,0.00,1.02,0.30,9.27,-0.00,0.00,-0.00,0.00
2026-06-26 17:55:21.212,994.18,994.23,5.72,3.17,0.00,1.02,0.30,9.27,0.00,0.00,0.00,0.00
2026-06-26 17:55:21.215,994.18,994.23,5.72,3.17,0.00,1.02,0.28,9.24,0.00,0.00,0.00,0.00
2026-06-26 17:55:21.219,994.18,994.23,5.72,3.17,0.00,1.02,0.28,9.24,0.00,0.00,0.00,0.00
2026-06-26 17:55:21.223,994.18,994.23,5.72,3.17,0.00,1.02,0.28,9.24,0.00,0.00,-0.00,0.00
2026-06-26 17:55:21.225,994.18,994.23,5.72,3.17,0.00,1.01,0.27,9.26,0.00,0.00,-0.00,0.00
2026-06-26 17:55:21.226,994.18,994.23,5.72,3.17,0.00,1.01,0.27,9.26,0.00,0.00,-0.00,0.00
2026-06-26 17:55:21.227,994.18,994.23,5.72,3.17,0.00,1.01,0.27,9.26,0.00,0.00,-0.00,0.00
2026-06-26 17:55:21.232,994.18,994.23,5.72,3.17,0.00,1.01,0.27,9.26,0.00,0.00,-0.00,0.00
2026-06-26 17:55:21.233,994.18,994.23,5.72,3.17,0.00,1.01,0.29,9.27,0.00,0.00,0.00,0.00
2026-06-26 17:55:21.235,994.18,994.23,5.72,3.17,0.00,1.01,0.29,9.27,0.00,0.00,0.00,0.00
2026-06-26 17:55:21.239,994.18,994.23,5.72,3.17,0.00,1.01,0.29,9.27,0.00,0.00,0.00,0.00
2026-06-26 17:55:21.323,994.18,994.23,4.48,2.80,0.00,1.01,0.30,9.32,0.00,0.00,-0.00,0.00
2026-06-26 17:55:21.324,994.18,994.23,4.48,2.80,0.00,1.01,0.30,9.32,0.00,0.00,-0.00,0.00
2026-06-26 17:55:21.325,994.18,994.23,4.48,2.80,0.00,1.01,0.30,9.32,0.00,0.00,-0.00,0.00
2026-06-26 17:55:21.327,994.18,994.23,4.48,2.80,0.00,1.01,0.30,9.32,0.00,0.00,-0.00,0.00
2026-06-26 17:55:21.328,994.18,994.23,4.48,2.80,0.00,1.01,0.30,9.32,0.00,0.00,-0.00,0.00
2026-06-26 17:55:21.329,994.18,994.23,4.48,2.80,0.00,1.01,0.30,9.32,0.00,0.00,-0.00,0.00
2026-06-26 17:55:21.330,994.18,994.23,4.48,2.80,0.00,1.01,0.30,9.32,0.00,0.00,-0.00,0.00
2026-06-26 17:55:21.333,994.18,994.23,4.48,2.80,0.00,1.01,0.30,9.32,-0.00,0.00,0.00,0.00
2026-06-26 17:55:21.334,994.18,994.23,4.48,2.80,0.00,1.02,0.28,9.28,-0.00,0.00,0.00,0.00
2026-06-26 17:55:21.335,994.18,994.23,4.48,2.80,0.00,1.02,0.28,9.28,-0.00,0.00,0.00,0.00
2026-06-26 17:55:21.337,994.18,994.23,4.48,2.80,0.00,1.02,0.28,9.28,-0.00,0.00,0.00,0.00
2026-06-26 17:55:21.342,994.18,994.23,4.48,2.80,0.00,1.02,0.28,9.28,-0.00,0.00,0.00,0.00
2026-06-26 17:55:21.343,994.18,994.23,4.48,2.80,0.00,1.03,0.30,9.28,-0.00,-0.00,0.00,0.00
2026-06-26 17:55:21.344,994.18,994.23,4.48,2.80,0.00,1.03,0.30,9.28,-0.00,-0.00,0.00,0.00
2026-06-26 17:55:21.346,994.18,994.23,4.48,2.80,0.00,1.03,0.30,9.28,-0.00,-0.00,0.00,0.00
2026-06-26 17:55:21.347,994.18,994.23,4.48,2.80,0.00,1.03,0.30,9.28,-0.00,-0.00,0.00,0.00
2026-06-26 17:55:21.351,994.18,994.23,4.48,2.80,0.00,1.03,0.30,9.28,-0.00,-0.00,0.00,0.00
2026-06-26 17:55:21.353,994.18,994.23,4.48,2.80,0.00,1.02,0.30,9.24,0.00,0.00,-0.00,0.00
2026-06-26 17:55:21.355,994.18,994.23,4.48,2.80,0.00,1.02,0.30,9.24,0.00,0.00,-0.00,0.00
2026-06-26 17:55:21.357,994.18,994.23,4.48,2.80,0.00,1.02,0.30,9.24,0.00,0.00,-0.00,0.00
2026-06-26 17:55:21.360,994.18,994.23,4.48,2.80,0.00,1.02,0.30,9.24,0.00,0.00,-0.00,0.00
2026-06-26 17:55:21.363,994.18,994.23,4.48,2.80,0.00,1.02,0.30,9.24,-0.00,0.00,0.00,0.00
2026-06-26 17:55:21.364,994.18,994.23,4.48,2.80,0.00,1.01,0.29,9.29,-0.00,0.00,0.00,0.00
2026-06-26 17:55:21.366,994.18,994.23,4.48,2.80,0.00,1.01,0.29,9.29,-0.00,0.00,0.00,0.00
2026-06-26 17:55:21.367,994.18,994.23,4.48,2.80,0.00,1.01,0.29,9.29,-0.00,0.00,0.00,0.00
2026-06-26 17:55:21.372,994.18,994.23,4.48,2.80,0.00,1.01,0.29,9.29,-0.00,0.00,0.00,0.00
2026-06-26 17:55:21.374,994.18,994.23,4.48,2.80,0.00,1.01,0.29,9.27,-0.00,0.00,0.00,0.00
2026-06-26 17:55:21.377,994.18,994.23,4.48,2.80,0.00,1.01,0.29,9.27,-0.00,0.00,0.00,0.00
2026-06-26 17:55:21.378,994.18,994.23,4.48,2.80,0.00,1.01,0.29,9.27,-0.00,0.00,0.00,0.00
2026-06-26 17:55:21.380,994.18,994.23,4.48,2.80,0.00,1.01,0.29,9.27,-0.00,0.00,0.00,0.00
2026-06-26 17:55:21.383,994.18,994.23,4.48,2.80,0.00,1.01,0.29,9.27,-0.00,0.00,0.00,0.00
2026-06-26 17:55:21.465,994.18,994.23,4.56,2.83,0.00,1.01,0.28,9.27,0.00,0.00,0.00,0.00
2026-06-26 17:55:21.467,994.18,994.23,4.56,2.83,0.00,1.01,0.28,9.27,0.00,0.00,0.00,0.00
2026-06-26 17:55:21.472,994.18,994.23,4.56,2.83,0.00,1.01,0.28,9.27,0.00,0.00,0.00,0.00
2026-06-26 17:55:21.474,994.18,994.23,4.56,2.83,0.00,1.04,0.30,9.27,-0.00,-0.00,0.00,0.00
2026-06-26 17:55:21.475,994.18,994.23,4.56,2.83,0.00,1.04,0.30,9.27,-0.00,-0.00,0.00,0.00
2026-06-26 17:55:21.476,994.18,994.23,4.56,2.83,0.00,1.04,0.30,9.27,-0.00,-0.00,0.00,0.00
2026-06-26 17:55:21.478,994.18,994.23,4.56,2.83,0.00,1.04,0.30,9.27,-0.00,-0.00,0.00,0.00
2026-06-26 17:55:21.479,994.18,994.23,4.56,2.83,0.00,1.04,0.30,9.27,-0.00,-0.00,0.00,0.00
2026-06-26 17:55:21.480,994.18,994.23,4.56,2.83,0.00,1.04,0.30,9.27,-0.00,-0.00,0.00,0.00
2026-06-26 17:55:21.483,994.18,994.23,4.56,2.83,0.00,1.04,0.30,9.27,0.00,0.00,-0.00,0.00
2026-06-26 17:55:21.485,994.18,994.23,4.56,2.83,0.00,1.02,0.29,9.30,0.00,0.00,-0.00,0.00
2026-06-26 17:55:21.486,994.18,994.23,4.56,2.83,0.00,1.02,0.29,9.30,0.00,0.00,-0.00,0.00
2026-06-26 17:55:21.490,994.18,994.23,4.56,2.83,0.00,1.02,0.29,9.30,0.00,0.00,-0.00,0.00
2026-06-26 17:55:21.493,994.18,994.23,4.56,2.83,0.00,1.02,0.29,9.30,0.00,0.00,0.00,0.00
2026-06-26 17:55:21.494,994.18,994.23,4.56,2.83,0.00,1.02,0.28,9.29,0.00,0.00,0.00,0.00
2026-06-26 17:55:21.495,994.18,994.23,4.56,2.83,0.00,1.02,0.28,9.29,0.00,0.00,0.00,0.00
2026-06-26 17:55:21.497,994.18,994.23,4.56,2.83,0.00,1.02,0.28,9.29,0.00,0.00,0.00,0.00
2026-06-26 17:55:21.503,994.18,994.23,4.56,2.83,0.00,1.02,0.28,9.29,0.00,0.00,0.00,0.00
2026-06-26 17:55:21.506,994.18,994.23,4.56,2.83,0.00,1.01,0.29,9.24,-0.00,0.00,-0.00,0.00
2026-06-26 17:55:21.512,994.18,994.23,4.56,2.83,0.00,1.01,0.29,9.24,-0.00,0.00,-0.00,0.00
2026-06-26 17:55:21.514,994.18,994.23,4.56,2.83,0.00,1.03,0.30,9.29,-0.00,0.00,0.00,0.00
2026-06-26 17:55:21.515,994.18,994.23,4.56,2.83,0.00,1.03,0.30,9.29,-0.00,0.00,0.00,0.00
2026-06-26 17:55:21.517,994.18,994.23,4.56,2.83,0.00,1.03,0.30,9.29,-0.00,0.00,0.00,0.00
2026-06-26 17:55:21.523,994.18,994.23,4.56,2.83,0.00,1.03,0.30,9.29,-0.00,0.00,0.00,0.00
2026-06-26 17:55:21.524,994.18,994.23,4.56,2.83,0.00,1.01,0.29,9.28,-0.00,0.00,0.00,0.00
2026-06-26 17:55:21.564,994.18,994.23,4.55,2.83,0.00,1.01,0.30,9.26,-0.00,0.00,0.00,0.00
2026-06-26 17:55:21.566,994.18,994.23,4.55,2.83,0.00,1.01,0.30,9.26,-0.00,0.00,0.00,0.00
2026-06-26 17:55:21.610,994.19,994.23,4.13,2.69,0.00,1.03,0.29,9.28,-0.00,0.00,0.00,0.00
2026-06-26 17:55:21.613,994.19,994.23,4.13,2.69,0.00,1.03,0.29,9.28,0.00,-0.00,0.00,0.00
2026-06-26 17:55:21.615,994.19,994.23,4.13,2.69,0.00,1.01,0.30,9.27,0.00,-0.00,0.00,0.00
2026-06-26 17:55:21.617,994.19,994.23,4.13,2.69,0.00,1.01,0.30,9.27,0.00,-0.00,0.00,0.00
2026-06-26 17:55:21.623,994.19,994.23,4.13,2.69,0.00,1.01,0.30,9.27,0.00,-0.00,0.00,0.00
2026-06-26 17:55:21.626,994.19,994.23,4.13,2.69,0.00,1.01,0.30,9.28,0.00,-0.00,0.00,0.00
2026-06-26 17:55:21.628,994.19,994.23,4.13,2.69,0.00,1.01,0.30,9.28,0.00,-0.00,0.00,0.00
2026-06-26 17:55:21.630,994.19,994.23,4.13,2.69,0.00,1.01,0.30,9.28,0.00,-0.00,0.00,0.00
2026-06-26 17:55:21.633,994.19,994.23,4.13,2.69,0.00,1.01,0.30,9.28,0.00,0.00,-0.00,0.00
2026-06-26 17:55:21.635,994.19,994.23,4.13,2.69,0.00,1.01,0.30,9.26,0.00,0.00,-0.00,0.00
2026-06-26 17:55:21.636,994.19,994.23,4.13,2.69,0.00,1.01,0.30,9.26,0.00,0.00,-0.00,0.00
2026-06-26 17:55:21.639,994.19,994.23,4.13,2.69,0.00,1.01,0.30,9.26,0.00,0.00,-0.00,0.00
2026-06-26 17:55:21.643,994.19,994.23,4.13,2.69,0.00,1.01,0.30,9.26,0.00,-0.00,0.00,0.00
2026-06-26 17:55:21.645,994.19,994.23,4.13,2.69,0.00,1.01,0.29,9.27,0.00,-0.00,0.00,0.00
2026-06-26 17:55:21.646,994.19,994.23,4.13,2.69,0.00,1.01,0.29,9.27,0.00,-0.00,0.00,0.00
2026-06-26 17:55:21.648,994.19,994.23,4.13,2.69,0.00,1.01,0.29,9.27,0.00,-0.00,0.00,0.00
2026-06-26 17:55:21.653,994.19,994.23,4.13,2.69,0.00,1.01,0.29,9.27,0.00,-0.00,0.00,0.00
2026-06-26 17:55:21.654,994.19,994.23,4.13,2.69,0.00,1.02,0.29,9.24,0.00,0.00,0.00,0.00
2026-06-26 17:55:21.655,994.19,994.23,4.13,2.69,0.00,1.02,0.29,9.24,0.00,0.00,0.00,0.00
2026-06-26 17:55:21.656,994.19,994.23,4.13,2.69,0.00,1.02,0.29,9.24,0.00,0.00,0.00,0.00
2026-06-26 17:55:21.658,994.19,994.23,4.13,2.69,0.00,1.02,0.29,9.24,0.00,0.00,0.00,0.00
2026-06-26 17:55:21.659,994.19,994.23,4.13,2.69,0.00,1.02,0.29,9.24,0.00,0.00,0.00,0.00
2026-06-26 17:55:21.663,994.19,994.23,4.13,2.69,0.00,1.02,0.29,9.24,0.00,-0.00,0.00,0.00
2026-06-26 17:55:21.704,994.19,994.23,4.02,2.66,0.00,1.01,0.30,9.31,-0.00,0.00,0.00,0.00
2026-06-26 17:55:21.705,994.19,994.23,4.02,2.66,0.00,1.01,0.31,9.27,-0.00,0.00,0.00,0.00
2026-06-26 17:55:21.706,994.19,994.23,4.02,2.66,0.00,1.01,0.31,9.27,-0.00,0.00,0.00,0.00
2026-06-26 17:55:21.753,994.19,994.23,3.63,2.52,0.00,1.01,0.29,9.25,0.00,0.00,0.00,0.00
2026-06-26 17:55:21.755,994.19,994.23,3.63,2.52,0.00,1.02,0.30,9.27,0.00,0.00,0.00,0.00
2026-06-26 17:55:21.756,994.19,994.23,3.63,2.52,0.00,1.02,0.30,9.27,0.00,0.00,0.00,0.00
2026-06-26 17:55:21.757,994.19,994.23,3.63,2.52,0.00,1.02,0.30,9.27,0.00,0.00,0.00,0.00
2026-06-26 17:55:21.759,994.19,994.23,3.63,2.52,0.00,1.02,0.30,9.27,0.00,0.00,0.00,0.00
2026-06-26 17:55:21.763,994.19,994.23,3.63,2.52,0.00,1.02,0.30,9.27,0.00,-0.00,0.00,0.00
2026-06-26 17:55:21.765,994.19,994.23,3.63,2.52,0.00,1.02,0.29,9.27,0.00,-0.00,0.00,0.00
2026-06-26 17:55:21.767,994.19,994.23,3.63,2.52,0.00,1.02,0.29,9.27,0.00,-0.00,0.00,0.00
2026-06-26 17:55:21.773,994.19,994.23,3.63,2.52,0.00,1.02,0.29,9.27,0.00,-0.00,0.00,0.00
2026-06-26 17:55:21.775,994.19,994.23,3.63,2.52,0.00,1.04,0.29,9.27,0.00,-0.00,-0.00,0.00
2026-06-26 17:55:21.777,994.19,994.23,3.63,2.52,0.00,1.04,0.29,9.27,0.00,-0.00,-0.00,0.00
2026-06-26 17:55:21.779,994.19,994.23,3.63,2.52,0.00,1.04,0.29,9.27,0.00,-0.00,-0.00,0.00
2026-06-26 17:55:21.781,994.19,994.23,3.63,2.52,0.00,1.04,0.29,9.27,0.00,-0.00,-0.00,0.00
2026-06-26 17:55:21.784,994.19,994.23,3.63,2.52,0.00,1.04,0.29,9.27,0.00,-0.00,0.00,0.00
2026-06-26 17:55:21.785,994.19,994.23,3.63,2.52,0.00,1.01,0.30,9.28,0.00,-0.00,0.00,0.00
2026-06-26 17:55:21.786,994.19,994.23,3.63,2.52,0.00,1.01,0.30,9.28,0.00,-0.00,0.00,0.00
2026-06-26 17:55:21.788,994.19,994.23,3.63,2.52,0.00,1.01,0.30,9.28,0.00,-0.00,0.00,0.00
2026-06-26 17:55:21.793,994.19,994.23,3.63,2.52,0.00,1.01,0.30,9.28,0.00,-0.00,0.00,0.00
2026-06-26 17:55:21.794,994.19,994.23,3.63,2.52,0.00,1.00,0.30,9.28,0.00,-0.00,0.00,0.00
2026-06-26 17:55:21.796,994.19,994.23,3.63,2.52,0.00,1.00,0.30,9.28,0.00,-0.00,0.00,0.00
2026-06-26 17:55:21.797,994.19,994.23,3.63,2.52,0.00,1.00,0.30,9.28,0.00,-0.00,0.00,0.00
2026-06-26 17:55:21.799,994.19,994.23,3.63,2.52,0.00,1.00,0.30,9.28,0.00,-0.00,0.00,0.00
2026-06-26 17:55:21.803,994.19,994.23,3.63,2.52,0.00,1.00,0.30,9.28,0.00,0.00,-0.00,0.00
2026-06-26 17:55:21.843,994.19,994.22,3.20,2.37,0.00,1.03,0.30,9.27,-0.00,0.00,0.00,0.00
2026-06-26 17:55:21.845,994.19,994.22,3.20,2.37,0.00,1.01,0.28,9.29,-0.00,0.00,0.00,0.00
2026-06-26 17:55:21.846,994.19,994.22,3.20,2.37,0.00,1.01,0.28,9.29,-0.00,0.00,0.00,0.00
2026-06-26 17:55:21.893,994.19,994.22,2.98,2.29,0.00,1.01,0.28,9.27,0.00,0.00,0.00,0.00
2026-06-26 17:55:21.895,994.19,994.22,2.98,2.29,0.00,1.01,0.29,9.27,0.00,0.00,-0.00,0.00
2026-06-26 17:55:21.896,994.19,994.22,2.98,2.29,0.00,1.01,0.29,9.27,0.00,0.00,-0.00,0.00
2026-06-26 17:55:21.897,994.19,994.22,2.98,2.29,0.00,1.01,0.29,9.27,0.00,0.00,-0.00,0.00
2026-06-26 17:55:21.900,994.19,994.22,2.98,2.29,0.00,1.01,0.29,9.27,0.00,0.00,-0.00,0.00
2026-06-26 17:55:21.904,994.19,994.22,2.98,2.29,0.00,1.01,0.29,9.27,0.00,0.00,0.00,0.00
2026-06-26 17:55:21.905,994.19,994.22,2.98,2.29,0.00,1.01,0.30,9.25,0.00,0.00,0.00,0.00
2026-06-26 17:55:21.906,994.19,994.22,2.98,2.29,0.00,1.01,0.30,9.25,0.00,0.00,0.00,0.00
2026-06-26 17:55:21.908,994.19,994.22,2.98,2.29,0.00,1.01,0.30,9.25,0.00,0.00,0.00,0.00
2026-06-26 17:55:21.914,994.19,994.22,2.98,2.29,0.00,1.01,0.30,9.25,0.00,0.00,0.00,0.00
2026-06-26 17:55:21.917,994.19,994.22,2.98,2.29,0.00,1.01,0.30,9.27,0.00,0.00,0.00,0.00
2026-06-26 17:55:21.923,994.19,994.22,2.98,2.29,0.00,1.01,0.30,9.27,0.00,0.00,0.00,0.00
2026-06-26 17:55:21.925,994.19,994.22,2.98,2.29,0.00,1.02,0.28,9.30,-0.00,0.00,0.00,0.00
2026-06-26 17:55:21.926,994.19,994.22,2.98,2.29,0.00,1.02,0.28,9.30,-0.00,0.00,0.00,0.00
2026-06-26 17:55:21.928,994.19,994.22,2.98,2.29,0.00,1.02,0.28,9.30,-0.00,0.00,0.00,0.00
2026-06-26 17:55:21.929,994.19,994.22,2.98,2.29,0.00,1.02,0.28,9.30,-0.00,0.00,0.00,0.00
2026-06-26 17:55:21.930,994.19,994.22,2.98,2.29,0.00,1.02,0.28,9.30,-0.00,0.00,0.00,0.00
2026-06-26 17:55:21.933,994.19,994.22,2.98,2.29,0.00,1.02,0.28,9.30,-0.00,0.00,0.00,0.00
2026-06-26 17:55:21.934,994.19,994.22,2.98,2.29,0.00,1.01,0.28,9.29,0.00,-0.00,0.00,0.00
2026-06-26 17:55:21.936,994.19,994.22,2.98,2.29,0.00,1.01,0.28,9.29,0.00,-0.00,0.00,0.00
2026-06-26 17:55:21.937,994.19,994.22,2.98,2.29,0.00,1.01,0.28,9.29,0.00,-0.00,0.00,0.00
2026-06-26 17:55:21.943,994.19,994.22,2.98,2.29,0.00,1.01,0.28,9.29,0.00,-0.00,0.00,0.00
2026-06-26 17:55:21.986,994.19,994.22,2.76,2.20,0.00,1.01,0.30,9.28,0.00,0.00,-0.00,0.00
2026-06-26 17:55:21.987,994.19,994.22,2.76,2.20,0.00,1.01,0.30,9.28,0.00,0.00,-0.00,0.00
2026-06-26 17:55:21.993,994.19,994.22,2.76,2.20,0.00,1.01,0.30,9.28,0.00,0.00,-0.00,0.00
2026-06-26 17:55:22.035,994.19,994.22,2.64,2.15,0.00,1.02,0.30,9.28,-0.00,0.00,0.00,0.00
2026-06-26 17:55:22.036,994.19,994.22,2.64,2.15,0.00,1.02,0.30,9.28,-0.00,0.00,0.00,0.00
2026-06-26 17:55:22.037,994.19,994.22,2.64,2.15,0.00,1.02,0.30,9.28,-0.00,0.00,0.00,0.00
2026-06-26 17:55:22.040,994.19,994.22,2.64,2.15,0.00,1.02,0.30,9.28,-0.00,0.00,0.00,0.00
2026-06-26 17:55:22.044,994.19,994.22,2.64,2.15,0.00,1.02,0.30,9.28,0.00,0.00,0.00,0.00
2026-06-26 17:55:22.046,994.19,994.22,2.64,2.15,0.00,1.02,0.29,9.27,0.00,0.00,0.00,0.00
2026-06-26 17:55:22.047,994.19,994.22,2.64,2.15,0.00,1.02,0.29,9.27,0.00,0.00,0.00,0.00
2026-06-26 17:55:22.051,994.19,994.22,2.64,2.15,0.00,1.02,0.29,9.27,0.00,0.00,0.00,0.00
2026-06-26 17:55:22.054,994.19,994.22,2.64,2.15,0.00,1.02,0.29,9.27,0.00,-0.00,-0.00,0.00
2026-06-26 17:55:22.055,994.19,994.22,2.64,2.15,0.00,1.01,0.31,9.28,0.00,-0.00,-0.00,0.00
2026-06-26 17:55:22.057,994.19,994.22,2.64,2.15,0.00,1.01,0.31,9.28,0.00,-0.00,-0.00,0.00
2026-06-26 17:55:22.058,994.19,994.22,2.64,2.15,0.00,1.01,0.31,9.28,0.00,-0.00,-0.00,0.00
2026-06-26 17:55:22.062,994.19,994.22,2.64,2.15,0.00,1.01,0.31,9.28,0.00,-0.00,-0.00,0.00
2026-06-26 17:55:22.064,994.19,994.22,2.64,2.15,0.00,1.02,0.30,9.30,-0.00,-0.00,0.00,0.00
2026-06-26 17:55:22.066,994.19,994.22,2.64,2.15,0.00,1.02,0.30,9.30,-0.00,-0.00,0.00,0.00
2026-06-26 17:55:22.068,994.19,994.22,2.64,2.15,0.00,1.02,0.30,9.30,-0.00,-0.00,0.00,0.00
2026-06-26 17:55:22.074,994.19,994.22,2.64,2.15,0.00,1.02,0.30,9.30,-0.00,-0.00,0.00,0.00
2026-06-26 17:55:22.077,994.19,994.22,2.64,2.15,0.00,0.99,0.31,9.25,0.00,-0.00,0.00,0.00
2026-06-26 17:55:22.078,994.19,994.22,2.64,2.15,0.00,0.99,0.31,9.25,0.00,-0.00,0.00,0.00
2026-06-26 17:55:22.080,994.19,994.22,2.64,2.15,0.00,0.99,0.31,9.25,0.00,-0.00,0.00,0.00
2026-06-26 17:55:22.083,994.19,994.22,2.64,2.15,0.00,0.99,0.31,9.25,0.00,-0.00,0.00,0.00
2026-06-26 17:55:22.085,994.19,994.22,2.64,2.15,0.00,1.01,0.28,9.28,0.00,0.00,-0.00,0.00
2026-06-26 17:55:22.127,994.19,994.22,2.47,2.08,0.00,1.01,0.30,9.26,-0.00,-0.00,0.00,0.00
2026-06-26 17:55:22.129,994.19,994.22,2.47,2.08,0.00,1.01,0.30,9.26,-0.00,-0.00,0.00,0.00
2026-06-26 17:55:22.130,994.19,994.22,2.47,2.08,0.00,1.01,0.30,9.26,-0.00,-0.00,0.00,0.00
2026-06-26 17:55:22.134,994.19,994.22,2.47,2.08,0.00,1.01,0.30,9.26,0.00,-0.00,-0.00,0.00
2026-06-26 17:55:22.176,994.19,994.22,2.55,2.12,0.00,1.01,0.30,9.29,-0.00,0.00,0.00,0.00
2026-06-26 17:55:22.178,994.19,994.22,2.55,2.12,0.00,1.01,0.30,9.29,-0.00,0.00,0.00,0.00
2026-06-26 17:55:22.179,994.19,994.22,2.55,2.12,0.00,1.01,0.30,9.29,-0.00,0.00,0.00,0.00
2026-06-26 17:55:22.180,994.19,994.22,2.55,2.12,0.00,1.01,0.30,9.29,-0.00,0.00,0.00,0.00
2026-06-26 17:55:22.181,994.19,994.22,2.55,2.12,0.00,1.01,0.30,9.29,-0.00,0.00,0.00,0.00
2026-06-26 17:55:22.184,994.19,994.22,2.55,2.12,0.00,1.01,0.30,9.29,0.00,0.00,0.00,0.00
2026-06-26 17:55:22.186,994.19,994.22,2.55,2.12,0.00,1.01,0.29,9.27,0.00,0.00,0.00,0.00
2026-06-26 17:55:22.187,994.19,994.22,2.55,2.12,0.00,1.01,0.29,9.27,0.00,0.00,0.00,0.00
2026-06-26 17:55:22.194,994.19,994.22,2.55,2.12,0.00,1.01,0.29,9.27,0.00,0.00,0.00,0.00
2026-06-26 17:55:22.196,994.19,994.22,2.55,2.12,0.00,1.02,0.29,9.27,-0.00,0.00,0.00,0.00
2026-06-26 17:55:22.198,994.19,994.22,2.55,2.12,0.00,1.02,0.29,9.27,-0.00,0.00,0.00,0.00
2026-06-26 17:55:22.204,994.19,994.22,2.55,2.12,0.00,1.02,0.29,9.27,-0.00,0.00,0.00,0.00
2026-06-26 17:55:22.205,994.19,994.22,2.55,2.12,0.00,1.00,0.30,9.26,-0.00,-0.00,-0.00,0.00
2026-06-26 17:55:22.207,994.19,994.22,2.55,2.12,0.00,1.00,0.30,9.26,-0.00,-0.00,-0.00,0.00
2026-06-26 17:55:22.208,994.19,994.22,2.55,2.12,0.00,1.00,0.30,9.26,-0.00,-0.00,-0.00,0.00
2026-06-26 17:55:22.214,994.19,994.22,2.55,2.12,0.00,1.00,0.30,9.26,-0.00,-0.00,-0.00,0.00
2026-06-26 17:55:22.215,994.19,994.22,2.55,2.12,0.00,1.01,0.31,9.29,0.00,0.00,-0.00,0.00
2026-06-26 17:55:22.216,994.19,994.22,2.55,2.12,0.00,1.01,0.31,9.29,0.00,0.00,-0.00,0.00
2026-06-26 17:55:22.221,994.19,994.22,2.55,2.12,0.00,1.01,0.31,9.29,0.00,0.00,-0.00,0.00
2026-06-26 17:55:22.225,994.19,994.22,2.55,2.12,0.00,1.00,0.29,9.27,0.00,0.00,-0.00,0.00
2026-06-26 17:55:22.226,994.19,994.22,2.55,2.12,0.00,1.00,0.29,9.27,0.00,0.00,-0.00,0.00
2026-06-26 17:55:22.274,994.19,994.22,2.44,2.07,0.00,1.04,0.30,9.29,0.00,-0.00,0.00,0.00
2026-06-26 17:55:22.276,994.19,994.22,2.44,2.07,0.00,1.02,0.29,9.27,0.00,-0.00,0.00,0.00
2026-06-26 17:55:22.318,994.19,994.22,2.45,2.08,0.00,1.05,0.30,9.29,0.00,-0.00,0.00,0.00
2026-06-26 17:55:22.324,994.19,994.22,2.45,2.08,0.00,1.05,0.30,9.29,0.00,-0.00,0.00,0.00
2026-06-26 17:55:22.326,994.19,994.22,2.45,2.08,0.00,1.01,0.28,9.27,0.00,-0.00,0.00,0.00
2026-06-26 17:55:22.327,994.19,994.22,2.45,2.08,0.00,1.01,0.28,9.27,0.00,-0.00,0.00,0.00
2026-06-26 17:55:22.328,994.19,994.22,2.45,2.08,0.00,1.01,0.28,9.27,0.00,-0.00,0.00,0.00
2026-06-26 17:55:22.329,994.19,994.22,2.45,2.08,0.00,1.01,0.28,9.27,0.00,-0.00,0.00,0.00
2026-06-26 17:55:22.331,994.19,994.22,2.45,2.08,0.00,1.01,0.28,9.27,0.00,-0.00,0.00,0.00
2026-06-26 17:55:22.334,994.19,994.22,2.45,2.08,0.00,1.01,0.28,9.27,0.00,-0.00,0.00,0.00
2026-06-26 17:55:22.336,994.19,994.22,2.45,2.08,0.00,1.01,0.31,9.30,0.00,-0.00,0.00,0.00
2026-06-26 17:55:22.338,994.19,994.22,2.45,2.08,0.00,1.01,0.31,9.30,0.00,-0.00,0.00,0.00
2026-06-26 17:55:22.342,994.19,994.22,2.45,2.08,0.00,1.01,0.31,9.30,0.00,-0.00,0.00,0.00
2026-06-26 17:55:22.345,994.19,994.22,2.45,2.08,0.00,1.02,0.31,9.27,0.00,0.00,-0.00,0.00
2026-06-26 17:55:22.346,994.19,994.22,2.45,2.08,0.00,1.02,0.31,9.27,0.00,0.00,-0.00,0.00
2026-06-26 17:55:22.348,994.19,994.22,2.45,2.08,0.00,1.02,0.31,9.27,0.00,0.00,-0.00,0.00
2026-06-26 17:55:22.350,994.19,994.22,2.45,2.08,0.00,1.02,0.31,9.27,0.00,0.00,-0.00,0.00
2026-06-26 17:55:22.354,994.19,994.22,2.45,2.08,0.00,1.02,0.31,9.27,0.00,0.00,0.00,0.00
2026-06-26 17:55:22.356,994.19,994.22,2.45,2.08,0.00,1.01,0.29,9.26,0.00,0.00,0.00,0.00
2026-06-26 17:55:22.358,994.19,994.22,2.45,2.08,0.00,1.01,0.29,9.26,0.00,0.00,0.00,0.00
2026-06-26 17:55:22.361,994.19,994.22,2.45,2.08,0.00,1.01,0.29,9.26,0.00,0.00,0.00,0.00
2026-06-26 17:55:22.365,994.19,994.22,2.45,2.08,0.00,1.01,0.29,9.26,0.00,0.00,0.00,0.00
2026-06-26 17:55:22.366,994.19,994.22,2.45,2.08,0.00,1.03,0.29,9.28,0.00,0.00,0.00,0.00
2026-06-26 17:55:22.367,994.19,994.22,2.45,2.08,0.00,1.03,0.29,9.28,0.00,0.00,0.00,0.00
2026-06-26 17:55:22.413,994.19,994.21,2.07,1.91,0.00,1.00,0.28,9.29,-0.00,0.00,0.00,0.00
2026-06-26 17:55:22.415,994.19,994.21,2.07,1.91,0.00,1.02,0.29,9.27,-0.00,-0.00,-0.00,0.00
2026-06-26 17:55:22.416,994.19,994.21,2.07,1.91,0.00,1.02,0.29,9.27,-0.00,-0.00,-0.00,0.00
2026-06-26 17:55:22.418,994.19,994.21,2.07,1.91,0.00,1.02,0.29,9.27,-0.00,-0.00,-0.00,0.00
2026-06-26 17:55:22.458,994.19,994.21,2.16,1.95,0.00,1.01,0.28,9.26,-0.00,0.00,0.00,0.00
2026-06-26 17:55:22.459,994.19,994.21,2.16,1.95,0.00,1.01,0.28,9.26,-0.00,0.00,0.00,0.00
2026-06-26 17:55:22.464,994.19,994.21,2.16,1.95,0.00,1.01,0.28,9.26,-0.00,0.00,0.00,0.00
2026-06-26 17:55:22.465,994.19,994.21,2.16,1.95,0.00,1.03,0.32,9.27,-0.00,0.00,-0.00,0.00
2026-06-26 17:55:22.467,994.19,994.21,2.16,1.95,0.00,1.03,0.32,9.27,-0.00,0.00,-0.00,0.00
2026-06-26 17:55:22.468,994.19,994.21,2.16,1.95,0.00,1.03,0.32,9.27,-0.00,0.00,-0.00,0.00
2026-06-26 17:55:22.469,994.19,994.21,2.16,1.95,0.00,1.03,0.32,9.27,-0.00,0.00,-0.00,0.00
2026-06-26 17:55:22.474,994.19,994.21,2.16,1.95,0.00,1.03,0.32,9.27,-0.00,0.00,-0.00,0.00
2026-06-26 17:55:22.476,994.19,994.21,2.16,1.95,0.00,1.01,0.28,9.28,0.00,0.00,-0.00,0.00
2026-06-26 17:55:22.477,994.19,994.21,2.16,1.95,0.00,1.01,0.28,9.28,0.00,0.00,-0.00,0.00
2026-06-26 17:55:22.478,994.19,994.21,2.16,1.95,0.00,1.01,0.28,9.28,0.00,0.00,-0.00,0.00
2026-06-26 17:55:22.480,994.19,994.21,2.16,1.95,0.00,1.01,0.28,9.28,0.00,0.00,-0.00,0.00
2026-06-26 17:55:22.482,994.19,994.21,2.16,1.95,0.00,1.01,0.28,9.28,0.00,0.00,-0.00,0.00
2026-06-26 17:55:22.485,994.19,994.21,2.16,1.95,0.00,1.01,0.28,9.28,0.00,-0.00,-0.00,0.00
2026-06-26 17:55:22.487,994.19,994.21,2.16,1.95,0.00,1.04,0.29,9.26,0.00,-0.00,-0.00,0.00
2026-06-26 17:55:22.488,994.19,994.21,2.16,1.95,0.00,1.04,0.29,9.26,0.00,-0.00,-0.00,0.00
2026-06-26 17:55:22.493,994.19,994.21,2.16,1.95,0.00,1.04,0.29,9.26,0.00,-0.00,-0.00,0.00
2026-06-26 17:55:22.495,994.19,994.21,2.16,1.95,0.00,1.02,0.30,9.25,0.00,-0.00,0.00,0.00
2026-06-26 17:55:22.497,994.19,994.21,2.16,1.95,0.00,1.02,0.30,9.25,0.00,-0.00,0.00,0.00
2026-06-26 17:55:22.498,994.19,994.21,2.16,1.95,0.00,1.02,0.30,9.25,0.00,-0.00,0.00,0.00
2026-06-26 17:55:22.500,994.19,994.21,2.16,1.95,0.00,1.02,0.30,9.25,0.00,-0.00,0.00,0.00
2026-06-26 17:55:22.506,994.19,994.21,2.16,1.95,0.00,1.02,0.30,9.25,0.00,0.00,-0.00,0.00
2026-06-26 17:55:22.508,994.19,994.21,2.16,1.95,0.00,1.02,0.29,9.27,0.00,0.00,-0.00,0.00
2026-06-26 17:55:22.554,994.19,994.21,2.27,2.00,0.00,1.02,0.30,9.28,0.00,0.00,0.00,0.00
2026-06-26 17:55:22.556,994.19,994.21,2.27,2.00,0.00,1.02,0.31,9.27,0.00,0.00,-0.00,0.00
2026-06-26 17:55:22.557,994.19,994.21,2.27,2.00,0.00,1.02,0.31,9.27,0.00,0.00,-0.00,0.00
2026-06-26 17:55:22.598,994.19,994.21,2.52,2.11,0.00,1.02,0.30,9.28,0.00,-0.00,0.00,0.00
2026-06-26 17:55:22.604,994.19,994.21,2.52,2.11,0.00,1.02,0.30,9.28,0.00,-0.00,0.00,0.00
2026-06-26 17:55:22.606,994.19,994.21,2.52,2.11,0.00,1.02,0.28,9.27,0.00,0.00,0.00,0.00
2026-06-26 17:55:22.607,994.19,994.21,2.52,2.11,0.00,1.02,0.28,9.27,0.00,0.00,0.00,0.00
2026-06-26 17:55:22.611,994.19,994.21,2.52,2.11,0.00,1.02,0.28,9.27,0.00,0.00,0.00,0.00
2026-06-26 17:55:22.615,994.19,994.21,2.52,2.11,0.00,1.02,0.28,9.27,0.00,0.00,0.00,0.00
2026-06-26 17:55:22.616,994.19,994.21,2.52,2.11,0.00,1.01,0.29,9.26,0.00,0.00,0.00,0.00
2026-06-26 17:55:22.617,994.19,994.21,2.52,2.11,0.00,1.01,0.29,9.26,0.00,0.00,0.00,0.00
2026-06-26 17:55:22.619,994.19,994.21,2.52,2.11,0.00,1.01,0.29,9.26,0.00,0.00,0.00,0.00
2026-06-26 17:55:22.623,994.19,994.21,2.52,2.11,0.00,1.01,0.29,9.26,0.00,0.00,0.00,0.00
2026-06-26 17:55:22.626,994.19,994.21,2.52,2.11,0.00,1.01,0.29,9.26,0.00,0.00,0.00,0.00
2026-06-26 17:55:22.627,994.19,994.21,2.52,2.11,0.00,1.02,0.28,9.26,0.00,0.00,0.00,0.00
2026-06-26 17:55:22.629,994.19,994.21,2.52,2.11,0.00,1.02,0.28,9.26,0.00,0.00,0.00,0.00
2026-06-26 17:55:22.630,994.19,994.21,2.52,2.11,0.00,1.02,0.28,9.26,0.00,0.00,0.00,0.00
2026-06-26 17:55:22.633,994.19,994.21,2.52,2.11,0.00,1.02,0.28,9.26,0.00,0.00,0.00,0.00
2026-06-26 17:55:22.635,994.19,994.21,2.52,2.11,0.00,1.02,0.28,9.26,-0.00,0.00,-0.00,0.00
2026-06-26 17:55:22.637,994.19,994.21,2.52,2.11,0.00,1.03,0.30,9.26,-0.00,0.00,-0.00,0.00
2026-06-26 17:55:22.638,994.19,994.21,2.52,2.11,0.00,1.03,0.30,9.26,-0.00,0.00,-0.00,0.00
2026-06-26 17:55:22.640,994.19,994.21,2.52,2.11,0.00,1.03,0.30,9.26,-0.00,0.00,-0.00,0.00
2026-06-26 17:55:22.645,994.19,994.21,2.52,2.11,0.00,1.03,0.30,9.26,-0.00,0.00,-0.00,0.00
2026-06-26 17:55:22.646,994.19,994.21,2.52,2.11,0.00,1.02,0.31,9.27,0.00,-0.00,0.00,0.00
2026-06-26 17:55:22.648,994.19,994.21,2.52,2.11,0.00,1.02,0.31,9.27,0.00,-0.00,0.00,0.00
2026-06-26 17:55:22.695,994.19,994.22,2.67,2.16,0.00,1.02,0.28,9.30,-0.00,0.00,0.00,0.00
2026-06-26 17:55:22.696,994.19,994.22,2.67,2.16,0.00,1.02,0.31,9.27,0.00,0.00,0.00,0.00
2026-06-26 17:55:22.698,994.19,994.22,2.67,2.16,0.00,1.02,0.31,9.27,0.00,0.00,0.00,0.00
2026-06-26 17:55:22.744,994.19,994.22,2.81,2.22,0.00,1.01,0.30,9.27,0.00,0.00,0.00,0.00
2026-06-26 17:55:22.746,994.19,994.22,2.81,2.22,0.00,1.00,0.30,9.28,0.00,0.00,0.00,0.00
2026-06-26 17:55:22.747,994.19,994.22,2.81,2.22,0.00,1.00,0.30,9.28,0.00,0.00,0.00,0.00
2026-06-26 17:55:22.748,994.19,994.22,2.81,2.22,0.00,1.00,0.30,9.28,0.00,0.00,0.00,0.00
2026-06-26 17:55:22.749,994.19,994.22,2.81,2.22,0.00,1.00,0.30,9.28,0.00,0.00,0.00,0.00
2026-06-26 17:55:22.755,994.19,994.22,2.81,2.22,0.00,1.00,0.30,9.28,0.00,0.00,0.00,0.00
2026-06-26 17:55:22.756,994.19,994.22,2.81,2.22,0.00,1.01,0.31,9.27,0.00,0.00,0.00,0.00
2026-06-26 17:55:22.757,994.19,994.22,2.81,2.22,0.00,1.01,0.31,9.27,0.00,0.00,0.00,0.00
2026-06-26 17:55:22.758,994.19,994.22,2.81,2.22,0.00,1.01,0.31,9.27,0.00,0.00,0.00,0.00
2026-06-26 17:55:22.760,994.19,994.22,2.81,2.22,0.00,1.01,0.31,9.27,0.00,0.00,0.00,0.00
2026-06-26 17:55:22.765,994.19,994.22,2.81,2.22,0.00,1.01,0.31,9.27,-0.00,-0.00,0.00,0.00
2026-06-26 17:55:22.767,994.19,994.22,2.81,2.22,0.00,1.00,0.29,9.23,-0.00,-0.00,0.00,0.00
2026-06-26 17:55:22.768,994.19,994.22,2.81,2.22,0.00,1.00,0.29,9.23,-0.00,-0.00,0.00,0.00
2026-06-26 17:55:22.769,994.19,994.22,2.81,2.22,0.00,1.00,0.29,9.23,-0.00,-0.00,0.00,0.00
2026-06-26 17:55:22.775,994.19,994.22,2.81,2.22,0.00,1.00,0.29,9.23,-0.00,-0.00,0.00,0.00
2026-06-26 17:55:22.776,994.19,994.22,2.81,2.22,0.00,0.99,0.30,9.26,0.00,-0.00,0.00,0.00
2026-06-26 17:55:22.778,994.19,994.22,2.81,2.22,0.00,0.99,0.30,9.26,0.00,-0.00,0.00,0.00
2026-06-26 17:55:22.779,994.19,994.22,2.81,2.22,0.00,0.99,0.30,9.26,0.00,-0.00,0.00,0.00
2026-06-26 17:55:22.780,994.19,994.22,2.81,2.22,0.00,0.99,0.30,9.26,0.00,-0.00,0.00,0.00
2026-06-26 17:55:22.782,994.19,994.22,2.81,2.22,0.00,0.99,0.30,9.26,0.00,-0.00,0.00,0.00
2026-06-26 17:55:22.785,994.19,994.22,2.81,2.22,0.00,0.99,0.30,9.26,0.00,-0.00,0.00,0.00
2026-06-26 17:55:22.786,994.19,994.22,2.81,2.22,0.00,1.01,0.29,9.30,0.00,-0.00,0.00,0.00
2026-06-26 17:55:22.789,994.19,994.22,2.81,2.22,0.00,1.01,0.29,9.30,0.00,-0.00,0.00,0.00
2026-06-26 17:55:22.795,994.19,994.22,2.81,2.22,0.00,1.01,0.29,9.30,0.00,-0.00,0.00,0.00
2026-06-26 17:55:22.837,994.19,994.22,2.72,2.18,0.00,1.01,0.28,9.29,-0.00,0.00,0.00,0.00
2026-06-26 17:55:22.839,994.19,994.22,2.72,2.18,0.00,1.01,0.28,9.29,-0.00,0.00,0.00,0.00
2026-06-26 17:55:22.880,994.19,994.22,2.90,2.26,0.00,1.03,0.28,9.24,0.00,0.00,-0.00,0.00
2026-06-26 17:55:22.882,994.19,994.22,2.90,2.26,0.00,1.03,0.28,9.24,0.00,0.00,-0.00,0.00
2026-06-26 17:55:22.885,994.19,994.22,2.90,2.26,0.00,1.03,0.28,9.24,0.00,0.00,-0.00,0.00
2026-06-26 17:55:22.887,994.19,994.22,2.90,2.26,0.00,1.00,0.29,9.27,0.00,0.00,-0.00,0.00
2026-06-26 17:55:22.889,994.19,994.22,2.90,2.26,0.00,1.00,0.29,9.27,0.00,0.00,-0.00,0.00
2026-06-26 17:55:22.895,994.19,994.22,2.90,2.26,0.00,1.00,0.29,9.27,0.00,0.00,-0.00,0.00
2026-06-26 17:55:22.898,994.19,994.22,2.90,2.26,0.00,1.04,0.28,9.28,0.00,0.00,0.00,0.00
2026-06-26 17:55:22.915,994.19,994.22,2.90,2.26,0.00,1.02,0.27,9.25,0.00,0.00,-0.00,0.00
2026-06-26 17:55:22.916,994.19,994.22,2.90,2.26,0.00,1.00,0.29,9.27,0.00,-0.00,0.00,0.00
2026-06-26 17:55:22.917,994.19,994.22,2.90,2.26,0.00,1.00,0.29,9.27,0.00,-0.00,0.00,0.00
2026-06-26 17:55:22.918,994.19,994.22,2.90,2.26,0.00,1.00,0.29,9.27,0.00,-0.00,0.00,0.00
2026-06-26 17:55:22.920,994.19,994.22,2.90,2.26,0.00,1.00,0.29,9.27,0.00,-0.00,0.00,0.00
2026-06-26 17:55:22.925,994.19,994.22,2.90,2.26,0.00,1.00,0.29,9.27,0.00,-0.00,0.00,0.00
2026-06-26 17:55:22.928,994.19,994.22,2.90,2.26,0.00,1.02,0.30,9.27,-0.00,0.00,0.00,0.00
2026-06-26 17:55:22.930,994.19,994.22,2.90,2.26,0.00,1.02,0.30,9.27,-0.00,0.00,0.00,0.00
2026-06-26 17:55:22.931,994.19,994.22,2.90,2.26,0.00,1.02,0.30,9.27,-0.00,0.00,0.00,0.00
2026-06-26 17:55:22.932,994.19,994.22,2.90,2.26,0.00,1.02,0.30,9.27,-0.00,0.00,0.00,0.00
2026-06-26 17:55:22.936,994.19,994.22,2.90,2.26,0.00,1.02,0.30,9.27,-0.00,0.00,0.00,0.00
2026-06-26 17:55:22.978,994.19,994.21,2.46,2.08,0.00,1.01,0.30,9.28,0.00,0.00,0.00,0.00
2026-06-26 17:55:22.979,994.19,994.21,2.46,2.08,0.00,1.01,0.30,9.28,0.00,0.00,0.00,0.00
2026-06-26 17:55:23.025,994.19,994.21,2.13,1.93,0.00,1.04,0.28,9.27,0.00,0.00,0.00,0.00
2026-06-26 17:55:23.026,994.19,994.21,2.13,1.93,0.00,1.00,0.29,9.26,-0.00,0.00,0.00,0.00
2026-06-26 17:55:23.028,994.19,994.21,2.13,1.93,0.00,1.00,0.29,9.26,-0.00,0.00,0.00,0.00
2026-06-26 17:55:23.030,994.19,994.21,2.13,1.93,0.00,1.00,0.29,9.26,-0.00,0.00,0.00,0.00
2026-06-26 17:55:23.032,994.19,994.21,2.13,1.93,0.00,1.00,0.29,9.26,-0.00,0.00,0.00,0.00
2026-06-26 17:55:23.034,994.19,994.21,2.13,1.93,0.00,1.00,0.29,9.26,-0.00,0.00,0.00,0.00
2026-06-26 17:55:23.036,994.19,994.21,2.13,1.93,0.00,1.01,0.29,9.31,0.00,-0.00,0.00,0.00
2026-06-26 17:55:23.037,994.19,994.21,2.13,1.93,0.00,1.01,0.29,9.31,0.00,-0.00,0.00,0.00
2026-06-26 17:55:23.038,994.19,994.21,2.13,1.93,0.00,1.01,0.29,9.31,0.00,-0.00,0.00,0.00
2026-06-26 17:55:23.040,994.19,994.21,2.13,1.93,0.00,1.01,0.29,9.31,0.00,-0.00,0.00,0.00
2026-06-26 17:55:23.045,994.19,994.21,2.13,1.93,0.00,1.01,0.29,9.31,0.00,-0.00,0.00,0.00
2026-06-26 17:55:23.050,994.19,994.21,2.13,1.93,0.00,1.01,0.28,9.31,-0.00,-0.00,0.00,0.00
2026-06-26 17:55:23.055,994.19,994.21,2.13,1.93,0.00,1.01,0.28,9.31,-0.00,-0.00,0.00,0.00
2026-06-26 17:55:23.057,994.19,994.21,2.13,1.93,0.00,1.02,0.31,9.27,0.00,0.00,0.00,0.00
2026-06-26 17:55:23.058,994.19,994.21,2.13,1.93,0.00,1.02,0.31,9.27,0.00,0.00,0.00,0.00
2026-06-26 17:55:23.060,994.19,994.21,2.13,1.93,0.00,1.02,0.31,9.27,0.00,0.00,0.00,0.00
2026-06-26 17:55:23.061,994.19,994.21,2.13,1.93,0.00,1.02,0.31,9.27,0.00,0.00,0.00,0.00
2026-06-26 17:55:23.066,994.19,994.21,2.13,1.93,0.00,1.02,0.31,9.27,0.00,-0.00,0.00,0.00
2026-06-26 17:55:23.068,994.19,994.21,2.13,1.93,0.00,1.01,0.30,9.27,0.00,-0.00,0.00,0.00
2026-06-26 17:55:23.069,994.19,994.21,2.13,1.93,0.00,1.01,0.30,9.27,0.00,-0.00,0.00,0.00
2026-06-26 17:55:23.073,994.19,994.21,2.13,1.93,0.00,1.01,0.30,9.27,0.00,-0.00,0.00,0.00
2026-06-26 17:55:23.076,994.19,994.21,2.13,1.93,0.00,1.01,0.30,9.27,0.00,-0.00,-0.00,0.00
2026-06-26 17:55:23.078,994.19,994.21,2.13,1.93,0.00,1.01,0.30,9.29,0.00,-0.00,-0.00,0.00
2026-06-26 17:55:23.122,994.19,994.21,2.03,1.89,0.00,1.03,0.30,9.29,0.00,0.00,0.00,0.00
2026-06-26 17:55:23.166,994.19,994.21,1.83,1.79,0.00,1.02,0.29,9.28,0.00,0.00,0.00,0.00
2026-06-26 17:55:23.168,994.19,994.21,1.83,1.79,0.00,1.01,0.28,9.29,0.00,0.00,0.00,0.00
2026-06-26 17:55:23.169,994.19,994.21,1.83,1.79,0.00,1.01,0.28,9.29,0.00,0.00,0.00,0.00
2026-06-26 17:55:23.170,994.19,994.21,1.83,1.79,0.00,1.01,0.28,9.29,0.00,0.00,0.00,0.00
2026-06-26 17:55:23.175,994.19,994.21,1.83,1.79,0.00,1.01,0.28,9.29,0.00,0.00,0.00,0.00
2026-06-26 17:55:23.177,994.19,994.21,1.83,1.79,0.00,1.04,0.29,9.28,0.00,-0.00,0.00,0.00
2026-06-26 17:55:23.178,994.19,994.21,1.83,1.79,0.00,1.04,0.29,9.28,0.00,-0.00,0.00,0.00
2026-06-26 17:55:23.179,994.19,994.21,1.83,1.79,0.00,1.04,0.29,9.28,0.00,-0.00,0.00,0.00
2026-06-26 17:55:23.180,994.19,994.21,1.83,1.79,0.00,1.04,0.29,9.28,0.00,-0.00,0.00,0.00
2026-06-26 17:55:23.182,994.19,994.21,1.83,1.79,0.00,1.04,0.29,9.28,0.00,-0.00,0.00,0.00
2026-06-26 17:55:23.183,994.19,994.21,1.83,1.79,0.00,1.04,0.29,9.28,0.00,-0.00,0.00,0.00
2026-06-26 17:55:23.186,994.19,994.21,1.83,1.79,0.00,1.04,0.29,9.28,-0.00,-0.00,0.00,0.00
2026-06-26 17:55:23.187,994.19,994.21,1.83,1.79,0.00,1.01,0.29,9.27,-0.00,-0.00,0.00,0.00
2026-06-26 17:55:23.189,994.19,994.21,1.83,1.79,0.00,1.01,0.29,9.27,-0.00,-0.00,0.00,0.00
2026-06-26 17:55:23.190,994.19,994.21,1.83,1.79,0.00,1.01,0.29,9.27,-0.00,-0.00,0.00,0.00
2026-06-26 17:55:23.195,994.19,994.21,1.83,1.79,0.00,1.01,0.29,9.27,-0.00,-0.00,0.00,0.00
2026-06-26 17:55:23.197,994.19,994.21,1.83,1.79,0.00,1.01,0.29,9.27,-0.00,-0.00,-0.00,0.00
2026-06-26 17:55:23.198,994.19,994.21,1.83,1.79,0.00,1.01,0.29,9.27,-0.00,-0.00,-0.00,0.00
2026-06-26 17:55:23.201,994.19,994.21,1.83,1.79,0.00,1.01,0.29,9.27,-0.00,-0.00,-0.00,0.00
2026-06-26 17:55:23.206,994.19,994.21,1.83,1.79,0.00,1.01,0.29,9.27,-0.00,0.00,-0.00,0.00
2026-06-26 17:55:23.208,994.19,994.21,1.83,1.79,0.00,1.03,0.31,9.26,-0.00,0.00,-0.00,0.00
2026-06-26 17:55:23.212,994.19,994.21,1.83,1.79,0.00,1.03,0.31,9.26,-0.00,0.00,-0.00,0.00
2026-06-26 17:55:23.216,994.19,994.21,1.83,1.79,0.00,1.03,0.31,9.26,0.00,-0.00,-0.00,0.00
2026-06-26 17:55:23.218,994.19,994.21,1.83,1.79,0.00,1.01,0.30,9.27,0.00,-0.00,-0.00,0.00
2026-06-26 17:55:23.219,994.19,994.21,1.83,1.79,0.00,1.01,0.30,9.27,0.00,-0.00,-0.00,0.00
2026-06-26 17:55:23.259,994.19,994.21,1.96,1.86,0.00,1.02,0.29,9.26,0.00,-0.00,-0.00,0.00
2026-06-26 17:55:23.260,994.19,994.21,1.96,1.86,0.00,1.02,0.29,9.26,0.00,-0.00,-0.00,0.00
2026-06-26 17:55:23.264,994.19,994.21,1.96,1.86,0.00,1.02,0.29,9.26,0.00,-0.00,-0.00,0.00
2026-06-26 17:55:23.307,994.19,994.21,2.15,1.94,0.00,1.00,0.30,9.26,0.00,-0.00,0.00,0.00
2026-06-26 17:55:23.309,994.19,994.21,2.15,1.94,0.00,1.00,0.30,9.26,0.00,-0.00,0.00,0.00
2026-06-26 17:55:23.310,994.19,994.21,2.15,1.94,0.00,1.00,0.30,9.26,0.00,-0.00,0.00,0.00
2026-06-26 17:55:23.316,994.19,994.21,2.15,1.94,0.00,1.00,0.30,9.26,0.00,-0.00,0.00,0.00
2026-06-26 17:55:23.317,994.19,994.21,2.15,1.94,0.00,1.02,0.30,9.27,0.00,0.00,0.00,0.00
2026-06-26 17:55:23.319,994.19,994.21,2.15,1.94,0.00,1.02,0.30,9.27,0.00,0.00,0.00,0.00
2026-06-26 17:55:23.322,994.19,994.21,2.15,1.94,0.00,1.02,0.30,9.27,0.00,0.00,0.00,0.00
2026-06-26 17:55:23.326,994.19,994.21,2.15,1.94,0.00,1.02,0.30,9.27,-0.00,-0.00,0.00,0.00
2026-06-26 17:55:23.328,994.19,994.21,2.15,1.94,0.00,1.01,0.28,9.28,-0.00,-0.00,0.00,0.00
2026-06-26 17:55:23.330,994.19,994.21,2.15,1.94,0.00,1.01,0.28,9.28,-0.00,-0.00,0.00,0.00
2026-06-26 17:55:23.331,994.19,994.21,2.15,1.94,0.00,1.01,0.28,9.28,-0.00,-0.00,0.00,0.00
2026-06-26 17:55:23.333,994.19,994.21,2.15,1.94,0.00,1.01,0.28,9.28,-0.00,-0.00,0.00,0.00
2026-06-26 17:55:23.337,994.19,994.21,2.15,1.94,0.00,1.01,0.28,9.28,0.00,0.00,-0.00,0.00
2026-06-26 17:55:23.339,994.19,994.21,2.15,1.94,0.00,1.00,0.28,9.29,0.00,0.00,-0.00,0.00
2026-06-26 17:55:23.345,994.19,994.21,2.15,1.94,0.00,1.00,0.28,9.29,0.00,0.00,-0.00,0.00
2026-06-26 17:55:23.352,994.19,994.21,2.15,1.94,0.00,1.02,0.29,9.30,0.00,-0.00,0.00,0.00
2026-06-26 17:55:23.358,994.19,994.21,2.15,1.94,0.00,1.02,0.29,9.30,0.00,-0.00,0.00,0.00
2026-06-26 17:55:23.406,994.19,994.21,2.10,1.92,0.00,0.99,0.28,9.25,0.00,0.00,-0.00,0.00
2026-06-26 17:55:23.447,994.19,994.21,1.87,1.81,0.00,1.01,0.26,9.28,-0.00,-0.00,0.00,0.00
2026-06-26 17:55:23.449,994.19,994.21,1.87,1.81,0.00,1.02,0.32,9.28,-0.00,-0.00,0.00,0.00
2026-06-26 17:55:23.456,994.19,994.21,1.87,1.81,0.00,1.02,0.32,9.28,-0.00,-0.00,0.00,0.00
2026-06-26 17:55:23.459,994.19,994.21,1.87,1.81,0.00,1.00,0.29,9.25,0.00,0.00,-0.00,0.00
2026-06-26 17:55:23.464,994.19,994.21,1.87,1.81,0.00,1.00,0.29,9.25,0.00,0.00,-0.00,0.00
2026-06-26 17:55:23.467,994.19,994.21,1.87,1.81,0.00,1.02,0.28,9.29,0.00,0.00,-0.00,0.00
2026-06-26 17:55:23.468,994.19,994.21,1.87,1.81,0.00,1.02,0.28,9.29,0.00,0.00,-0.00,0.00
2026-06-26 17:55:23.470,994.19,994.21,1.87,1.81,0.00,1.02,0.28,9.29,0.00,0.00,-0.00,0.00
2026-06-26 17:55:23.475,994.19,994.21,1.87,1.81,0.00,1.02,0.28,9.29,0.00,0.00,-0.00,0.00
2026-06-26 17:55:23.477,994.19,994.21,1.87,1.81,0.00,1.01,0.28,9.28,0.00,-0.00,0.00,0.00
2026-06-26 17:55:23.479,994.19,994.21,1.87,1.81,0.00,1.01,0.28,9.28,0.00,-0.00,0.00,0.00
2026-06-26 17:55:23.480,994.19,994.21,1.87,1.81,0.00,1.01,0.28,9.28,0.00,-0.00,0.00,0.00
2026-06-26 17:55:23.482,994.19,994.21,1.87,1.81,0.00,1.01,0.28,9.28,0.00,-0.00,0.00,0.00
2026-06-26 17:55:23.484,994.19,994.21,1.87,1.81,0.00,1.01,0.28,9.28,0.00,-0.00,0.00,0.00
2026-06-26 17:55:23.487,994.19,994.21,1.87,1.81,0.00,1.01,0.28,9.28,0.00,-0.00,0.00,0.00
2026-06-26 17:55:23.488,994.19,994.21,1.87,1.81,0.00,1.01,0.29,9.27,0.00,-0.00,0.00,0.00
2026-06-26 17:55:23.490,994.19,994.21,1.87,1.81,0.00,1.01,0.29,9.27,0.00,-0.00,0.00,0.00
2026-06-26 17:55:23.496,994.19,994.21,1.87,1.81,0.00,1.01,0.29,9.27,0.00,-0.00,0.00,0.00
2026-06-26 17:55:23.502,994.19,994.21,1.87,1.81,0.00,1.01,0.30,9.30,-0.00,0.00,0.00,0.00
2026-06-26 17:55:23.547,994.19,994.21,1.92,1.84,0.00,1.00,0.29,9.27,0.00,-0.00,0.00,0.00
2026-06-26 17:55:23.596,994.20,994.21,1.48,1.61,0.00,1.01,0.29,9.26,0.00,0.00,-0.00,0.00
2026-06-26 17:55:23.598,994.20,994.21,1.48,1.61,0.00,1.03,0.30,9.29,-0.00,-0.00,0.00,0.00
2026-06-26 17:55:23.599,994.20,994.21,1.48,1.61,0.00,1.03,0.30,9.29,-0.00,-0.00,0.00,0.00
2026-06-26 17:55:23.603,994.20,994.21,1.48,1.61,0.00,1.03,0.30,9.29,-0.00,-0.00,0.00,0.00
2026-06-26 17:55:23.607,994.20,994.21,1.48,1.61,0.00,1.03,0.30,9.29,0.00,0.00,-0.00,0.00
2026-06-26 17:55:23.609,994.20,994.21,1.48,1.61,0.00,1.03,0.29,9.26,0.00,0.00,-0.00,0.00
2026-06-26 17:55:23.611,994.20,994.21,1.48,1.61,0.00,1.03,0.29,9.26,0.00,0.00,-0.00,0.00
2026-06-26 17:55:23.616,994.20,994.21,1.48,1.61,0.00,1.03,0.29,9.26,0.00,0.00,-0.00,0.00
2026-06-26 17:55:23.618,994.20,994.21,1.48,1.61,0.00,1.03,0.30,9.27,-0.00,0.00,0.00,0.00
2026-06-26 17:55:23.621,994.20,994.21,1.48,1.61,0.00,1.03,0.30,9.27,-0.00,0.00,0.00,0.00
2026-06-26 17:55:23.627,994.20,994.21,1.48,1.61,0.00,1.03,0.30,9.27,-0.00,0.00,0.00,0.00
2026-06-26 17:55:23.631,994.20,994.21,1.48,1.61,0.00,1.02,0.29,9.27,0.00,0.00,-0.00,0.00
2026-06-26 17:55:23.633,994.20,994.21,1.48,1.61,0.00,1.02,0.29,9.27,0.00,0.00,-0.00,0.00
2026-06-26 17:55:23.637,994.20,994.21,1.48,1.61,0.00,1.02,0.29,9.27,0.00,0.00,0.00,0.00
2026-06-26 17:55:23.639,994.20,994.21,1.48,1.61,0.00,1.00,0.28,9.28,0.00,0.00,0.00,0.00
2026-06-26 17:55:23.643,994.20,994.21,1.48,1.61,0.00,1.00,0.28,9.28,0.00,0.00,0.00,0.00
2026-06-26 17:55:23.648,994.20,994.21,1.48,1.61,0.00,1.00,0.28,9.28,0.00,-0.00,-0.00,0.00
2026-06-26 17:55:23.687,994.20,994.21,1.23,1.47,0.00,1.03,0.29,9.29,-0.00,0.00,0.00,0.00
2026-06-26 17:55:23.690,994.20,994.21,1.23,1.47,0.00,1.01,0.28,9.29,-0.00,0.00,0.00,0.00
2026-06-26 17:55:23.735,994.20,994.21,1.27,1.49,0.00,1.01,0.26,9.28,-0.00,0.00,0.00,0.00
2026-06-26 17:55:23.737,994.20,994.21,1.27,1.49,0.00,1.01,0.26,9.28,0.00,0.00,0.00,0.00
2026-06-26 17:55:23.739,994.20,994.21,1.27,1.49,0.00,1.01,0.31,9.29,0.00,0.00,0.00,0.00
2026-06-26 17:55:23.740,994.20,994.21,1.27,1.49,0.00,1.01,0.31,9.29,0.00,0.00,0.00,0.00
2026-06-26 17:55:23.747,994.20,994.21,1.27,1.49,0.00,1.01,0.31,9.29,0.00,0.00,0.00,0.00
2026-06-26 17:55:23.748,994.20,994.21,1.27,1.49,0.00,1.01,0.30,9.28,0.00,0.00,-0.00,0.00
2026-06-26 17:55:23.750,994.20,994.21,1.27,1.49,0.00,1.01,0.30,9.28,0.00,0.00,-0.00,0.00
2026-06-26 17:55:23.754,994.20,994.21,1.27,1.49,0.00,1.01,0.30,9.28,0.00,0.00,-0.00,0.00
2026-06-26 17:55:23.757,994.20,994.21,1.27,1.49,0.00,1.01,0.30,9.28,0.00,0.00,-0.00,0.00
2026-06-26 17:55:23.759,994.20,994.21,1.27,1.49,0.00,1.02,0.29,9.27,0.00,0.00,-0.00,0.00
2026-06-26 17:55:23.761,994.20,994.21,1.27,1.49,0.00,1.02,0.29,9.27,0.00,0.00,-0.00,0.00
2026-06-26 17:55:23.766,994.20,994.21,1.27,1.49,0.00,1.02,0.29,9.27,0.00,0.00,-0.00,0.00
2026-06-26 17:55:23.768,994.20,994.21,1.27,1.49,0.00,1.01,0.29,9.27,0.00,0.00,-0.00,0.00
2026-06-26 17:55:23.774,994.20,994.21,1.27,1.49,0.00,1.01,0.29,9.27,0.00,0.00,-0.00,0.00
2026-06-26 17:55:23.778,994.20,994.21,1.27,1.49,0.00,1.03,0.29,9.25,0.00,0.00,0.00,0.00
2026-06-26 17:55:23.781,994.20,994.21,1.27,1.49,0.00,1.03,0.29,9.25,0.00,0.00,0.00,0.00
2026-06-26 17:55:23.783,994.20,994.21,1.27,1.49,0.00,1.03,0.29,9.25,0.00,0.00,0.00,0.00
2026-06-26 17:55:23.790,994.20,994.21,1.27,1.49,0.00,1.03,0.29,9.25,0.00,0.00,0.00,0.00
2026-06-26 17:55:23.878,994.19,994.21,1.54,1.65,0.00,1.02,0.28,9.29,0.00,0.00,0.00,0.00
2026-06-26 17:55:23.879,994.19,994.21,1.54,1.65,0.00,0.99,0.28,9.27,0.00,0.00,0.00,0.00
2026-06-26 17:55:23.881,994.19,994.21,1.54,1.65,0.00,0.99,0.28,9.27,0.00,0.00,0.00,0.00
2026-06-26 17:55:23.882,994.19,994.21,1.54,1.65,0.00,0.99,0.28,9.27,0.00,0.00,0.00,0.00
2026-06-26 17:55:23.884,994.19,994.21,1.54,1.65,0.00,0.99,0.28,9.27,0.00,0.00,0.00,0.00
2026-06-26 17:55:23.888,994.19,994.21,1.54,1.65,0.00,0.99,0.28,9.27,0.00,0.00,0.00,0.00
2026-06-26 17:55:23.893,994.19,994.21,1.54,1.65,0.00,1.03,0.31,9.29,0.00,0.00,0.00,0.00
2026-06-26 17:55:23.898,994.19,994.21,1.54,1.65,0.00,1.03,0.31,9.29,-0.00,0.00,0.00,0.00
2026-06-26 17:55:23.900,994.19,994.21,1.54,1.65,0.00,1.01,0.29,9.26,-0.00,0.00,0.00,0.00
2026-06-26 17:55:23.901,994.19,994.21,1.54,1.65,0.00,1.01,0.29,9.26,-0.00,0.00,0.00,0.00
2026-06-26 17:55:23.907,994.19,994.21,1.54,1.65,0.00,1.01,0.29,9.26,-0.00,0.00,0.00,0.00
2026-06-26 17:55:23.909,994.19,994.21,1.54,1.65,0.00,1.02,0.29,9.25,0.00,0.00,0.00,0.00
2026-06-26 17:55:23.911,994.19,994.21,1.54,1.65,0.00,1.02,0.29,9.25,0.00,0.00,0.00,0.00
2026-06-26 17:55:23.917,994.19,994.21,1.54,1.65,0.00,1.02,0.29,9.25,0.00,0.00,0.00,0.00
2026-06-26 17:55:23.918,994.19,994.21,1.54,1.65,0.00,1.02,0.31,9.29,0.00,0.00,0.00,0.00
2026-06-26 17:55:23.920,994.19,994.21,1.54,1.65,0.00,1.02,0.31,9.29,0.00,0.00,0.00,0.00
2026-06-26 17:55:23.926,994.19,994.21,1.54,1.65,0.00,1.02,0.31,9.29,0.00,0.00,0.00,0.00
2026-06-26 17:55:23.929,994.19,994.21,1.54,1.65,0.00,1.02,0.29,9.28,-0.00,-0.00,0.00,0.00
2026-06-26 17:55:23.931,994.19,994.21,1.54,1.65,0.00,1.02,0.29,9.28,-0.00,-0.00,0.00,0.00
2026-06-26 17:55:23.933,994.19,994.21,1.54,1.65,0.00,1.02,0.29,9.28,-0.00,-0.00,0.00,0.00
2026-06-26 17:55:23.937,994.19,994.21,1.54,1.65,0.00,1.02,0.29,9.28,-0.00,-0.00,0.00,0.00
2026-06-26 17:55:24.025,994.20,994.21,0.98,1.31,0.00,1.01,0.31,9.29,-0.00,0.00,0.00,0.00
2026-06-26 17:55:24.028,994.20,994.21,0.98,1.31,0.00,1.01,0.31,9.29,0.00,0.00,-0.00,0.00
2026-06-26 17:55:24.030,994.20,994.21,0.98,1.31,0.00,1.00,0.32,9.28,0.00,0.00,-0.00,0.00
2026-06-26 17:55:24.031,994.20,994.21,0.98,1.31,0.00,1.00,0.32,9.28,0.00,0.00,-0.00,0.00
2026-06-26 17:55:24.033,994.20,994.21,0.98,1.31,0.00,1.00,0.32,9.28,0.00,0.00,-0.00,0.00
2026-06-26 17:55:24.035,994.20,994.21,0.98,1.31,0.00,1.00,0.32,9.28,0.00,0.00,-0.00,0.00
2026-06-26 17:55:24.038,994.20,994.21,0.98,1.31,0.00,1.00,0.32,9.28,0.00,0.00,0.00,0.00
2026-06-26 17:55:24.040,994.20,994.21,0.98,1.31,0.00,1.02,0.27,9.30,0.00,0.00,0.00,0.00
2026-06-26 17:55:24.044,994.20,994.21,0.98,1.31,0.00,1.02,0.27,9.30,0.00,0.00,0.00,0.00
2026-06-26 17:55:24.048,994.20,994.21,0.98,1.31,0.00,1.02,0.27,9.30,-0.00,-0.00,0.00,0.00
2026-06-26 17:55:24.049,994.20,994.21,0.98,1.31,0.00,1.00,0.30,9.27,-0.00,-0.00,0.00,0.00
2026-06-26 17:55:24.051,994.20,994.21,0.98,1.31,0.00,1.00,0.30,9.27,-0.00,-0.00,0.00,0.00
2026-06-26 17:55:24.057,994.20,994.21,0.98,1.31,0.00,1.00,0.30,9.27,-0.00,-0.00,0.00,0.00
2026-06-26 17:55:24.058,994.20,994.21,0.98,1.31,0.00,1.01,0.30,9.27,-0.00,0.00,-0.00,0.00
2026-06-26 17:55:24.060,994.20,994.21,0.98,1.31,0.00,1.01,0.30,9.27,-0.00,0.00,-0.00,0.00
2026-06-26 17:55:24.065,994.20,994.21,0.98,1.31,0.00,1.01,0.30,9.27,-0.00,0.00,-0.00,0.00
2026-06-26 17:55:24.068,994.20,994.21,0.98,1.31,0.00,1.02,0.29,9.28,-0.00,0.00,0.00,0.00
2026-06-26 17:55:24.070,994.20,994.21,0.98,1.31,0.00,1.02,0.29,9.28,-0.00,0.00,0.00,0.00
2026-06-26 17:55:24.072,994.20,994.21,0.98,1.31,0.00,1.02,0.29,9.28,-0.00,0.00,0.00,0.00
2026-06-26 17:55:24.078,994.20,994.21,0.98,1.31,0.00,1.02,0.29,9.28,-0.00,0.00,0.00,0.00
2026-06-26 17:55:24.083,994.20,994.21,0.98,1.31,0.00,1.02,0.29,9.29,-0.00,-0.00,0.00,0.00
2026-06-26 17:55:24.121,994.20,994.21,1.08,1.38,0.00,0.98,0.28,9.27,-0.00,-0.00,-0.00,0.00
2026-06-26 17:55:24.167,994.20,994.21,1.26,1.49,0.00,1.01,0.29,9.23,0.00,0.00,0.00,0.00
2026-06-26 17:55:24.169,994.20,994.21,1.26,1.49,0.00,1.02,0.30,9.26,0.00,-0.00,0.00,0.00
2026-06-26 17:55:24.171,994.20,994.21,1.26,1.49,0.00,1.02,0.30,9.26,0.00,-0.00,0.00,0.00
2026-06-26 17:55:24.176,994.20,994.21,1.26,1.49,0.00,1.02,0.30,9.26,0.00,-0.00,0.00,0.00
2026-06-26 17:55:24.179,994.20,994.21,1.26,1.49,0.00,1.01,0.30,9.25,-0.00,-0.00,0.00,0.00
2026-06-26 17:55:24.181,994.20,994.21,1.26,1.49,0.00,1.01,0.30,9.25,-0.00,-0.00,0.00,0.00
2026-06-26 17:55:24.182,994.20,994.21,1.26,1.49,0.00,1.01,0.30,9.25,-0.00,-0.00,0.00,0.00
2026-06-26 17:55:24.184,994.20,994.21,1.26,1.49,0.00,1.01,0.30,9.25,-0.00,-0.00,0.00,0.00
2026-06-26 17:55:24.185,994.20,994.21,1.26,1.49,0.00,1.01,0.30,9.25,-0.00,-0.00,0.00,0.00
2026-06-26 17:55:24.188,994.20,994.21,1.26,1.49,0.00,1.01,0.30,9.25,0.00,-0.00,-0.00,0.00
2026-06-26 17:55:24.190,994.20,994.21,1.26,1.49,0.00,1.01,0.28,9.28,0.00,-0.00,-0.00,0.00
2026-06-26 17:55:24.194,994.20,994.21,1.26,1.49,0.00,1.01,0.28,9.28,0.00,-0.00,-0.00,0.00
2026-06-26 17:55:24.198,994.20,994.21,1.26,1.49,0.00,1.01,0.28,9.28,0.00,0.00,0.00,0.00
2026-06-26 17:55:24.200,994.20,994.21,1.26,1.49,0.00,1.01,0.30,9.27,0.00,0.00,0.00,0.00
2026-06-26 17:55:24.205,994.20,994.21,1.26,1.49,0.00,1.01,0.30,9.27,0.00,0.00,0.00,0.00
2026-06-26 17:55:24.208,994.20,994.21,1.26,1.49,0.00,1.01,0.30,9.27,-0.00,0.00,-0.00,0.00
2026-06-26 17:55:24.210,994.20,994.21,1.26,1.49,0.00,1.04,0.29,9.26,-0.00,0.00,-0.00,0.00
2026-06-26 17:55:24.215,994.20,994.21,1.26,1.49,0.00,1.04,0.29,9.26,-0.00,0.00,-0.00,0.00
2026-06-26 17:55:24.218,994.20,994.21,1.26,1.49,0.00,1.04,0.29,9.26,0.00,0.00,0.00,0.00
2026-06-26 17:55:24.222,994.20,994.21,1.26,1.49,0.00,1.03,0.29,9.26,0.00,0.00,0.00,0.00
2026-06-26 17:55:24.308,994.20,994.21,1.05,1.36,0.00,1.01,0.30,9.30,0.00,0.00,0.00,0.00
2026-06-26 17:55:24.309,994.20,994.21,1.05,1.36,0.00,1.02,0.30,9.28,-0.00,-0.00,0.00,0.00
2026-06-26 17:55:24.311,994.20,994.21,1.05,1.36,0.00,1.02,0.30,9.28,-0.00,-0.00,0.00,0.00
2026-06-26 17:55:24.317,994.20,994.21,1.05,1.36,0.00,1.02,0.30,9.28,-0.00,-0.00,0.00,0.00
2026-06-26 17:55:24.319,994.20,994.21,1.05,1.36,0.00,1.01,0.28,9.28,-0.00,0.00,0.00,0.00
2026-06-26 17:55:24.321,994.20,994.21,1.05,1.36,0.00,1.01,0.28,9.28,-0.00,0.00,0.00,0.00
2026-06-26 17:55:24.323,994.20,994.21,1.05,1.36,0.00,1.01,0.28,9.28,-0.00,0.00,0.00,0.00
2026-06-26 17:55:24.328,994.20,994.21,1.05,1.36,0.00,1.01,0.28,9.28,-0.00,0.00,0.00,0.00
2026-06-26 17:55:24.330,994.20,994.21,1.05,1.36,0.00,1.02,0.30,9.27,-0.00,-0.00,0.00,0.00
2026-06-26 17:55:24.332,994.20,994.21,1.05,1.36,0.00,1.02,0.30,9.27,-0.00,-0.00,0.00,0.00
2026-06-26 17:55:24.334,994.20,994.21,1.05,1.36,0.00,1.02,0.30,9.27,-0.00,-0.00,0.00,0.00
2026-06-26 17:55:24.337,994.20,994.21,1.05,1.36,0.00,1.02,0.30,9.27,-0.00,-0.00,0.00,0.00
2026-06-26 17:55:24.341,994.20,994.21,1.05,1.36,0.00,1.02,0.30,9.28,0.00,0.00,-0.00,0.00
2026-06-26 17:55:24.345,994.20,994.21,1.05,1.36,0.00,1.02,0.30,9.28,0.00,0.00,-0.00,0.00
2026-06-26 17:55:24.348,994.20,994.21,1.05,1.36,0.00,1.02,0.30,9.28,0.00,0.00,0.00,0.00
2026-06-26 17:55:24.350,994.20,994.21,1.05,1.36,0.00,1.00,0.29,9.27,0.00,0.00,0.00,0.00
2026-06-26 17:55:24.352,994.20,994.21,1.05,1.36,0.00,1.00,0.29,9.27,0.00,0.00,0.00,0.00
2026-06-26 17:55:24.358,994.20,994.21,1.05,1.36,0.00,1.00,0.29,9.27,0.00,0.00,0.00,0.00
2026-06-26 17:55:24.360,994.20,994.21,1.05,1.36,0.00,1.02,0.30,9.27,-0.00,0.00,-0.00,0.00
2026-06-26 17:55:24.362,994.20,994.21,1.05,1.36,0.00,1.02,0.30,9.27,-0.00,0.00,-0.00,0.00
2026-06-26 17:55:24.363,994.20,994.21,1.05,1.36,0.00,1.02,0.30,9.27,-0.00,0.00,-0.00,0.00
2026-06-26 17:55:24.368,994.20,994.21,1.05,1.36,0.00,1.02,0.30,9.27,-0.00,0.00,-0.00,0.00
2026-06-26 17:55:24.449,994.20,994.20,0.90,1.26,0.00,1.01,0.31,9.27,-0.00,0.00,-0.00,0.00
2026-06-26 17:55:24.450,994.20,994.20,0.90,1.26,0.00,1.00,0.30,9.29,-0.00,0.00,-0.00,0.00
2026-06-26 17:55:24.452,994.20,994.20,0.90,1.26,0.00,1.00,0.30,9.29,-0.00,0.00,-0.00,0.00
2026-06-26 17:55:24.458,994.20,994.20,0.90,1.26,0.00,1.00,0.30,9.29,-0.00,0.00,-0.00,0.00
2026-06-26 17:55:24.460,994.20,994.20,0.90,1.26,0.00,1.02,0.30,9.30,-0.00,0.00,0.00,0.00
2026-06-26 17:55:24.461,994.20,994.20,0.90,1.26,0.00,1.02,0.30,9.30,-0.00,0.00,0.00,0.00
2026-06-26 17:55:24.463,994.20,994.20,0.90,1.26,0.00,1.02,0.30,9.30,-0.00,0.00,0.00,0.00
2026-06-26 17:55:24.466,994.20,994.20,0.90,1.26,0.00,1.02,0.30,9.30,-0.00,0.00,0.00,0.00
2026-06-26 17:55:24.469,994.20,994.20,0.90,1.26,0.00,1.02,0.30,9.30,0.00,-0.00,-0.00,0.00
2026-06-26 17:55:24.470,994.20,994.20,0.90,1.26,0.00,1.02,0.32,9.27,0.00,-0.00,-0.00,0.00
2026-06-26 17:55:24.472,994.20,994.20,0.90,1.26,0.00,1.02,0.32,9.27,0.00,-0.00,-0.00,0.00
2026-06-26 17:55:24.478,994.20,994.20,0.90,1.26,0.00,1.02,0.32,9.27,0.00,-0.00,-0.00,0.00
2026-06-26 17:55:24.480,994.20,994.20,0.90,1.26,0.00,1.01,0.30,9.28,-0.00,-0.00,0.00,0.00
2026-06-26 17:55:24.482,994.20,994.20,0.90,1.26,0.00,1.01,0.30,9.28,-0.00,-0.00,0.00,0.00
2026-06-26 17:55:24.483,994.20,994.20,0.90,1.26,0.00,1.01,0.30,9.28,-0.00,-0.00,0.00,0.00
2026-06-26 17:55:24.485,994.20,994.20,0.90,1.26,0.00,1.01,0.30,9.28,-0.00,-0.00,0.00,0.00
2026-06-26 17:55:24.488,994.20,994.20,0.90,1.26,0.00,1.01,0.30,9.28,-0.00,-0.00,0.00,0.00
2026-06-26 17:55:24.490,994.20,994.20,0.90,1.26,0.00,1.02,0.28,9.30,-0.00,0.00,-0.00,0.00
2026-06-26 17:55:24.491,994.20,994.20,0.90,1.26,0.00,1.02,0.28,9.30,-0.00,0.00,-0.00,0.00
2026-06-26 17:55:24.497,994.20,994.20,0.90,1.26,0.00,1.02,0.28,9.30,-0.00,0.00,-0.00,0.00
2026-06-26 17:55:24.501,994.20,994.20,0.90,1.26,0.00,1.01,0.28,9.27,0.00,0.00,0.00,0.00
2026-06-26 17:55:24.504,994.20,994.20,0.90,1.26,0.00,1.01,0.28,9.27,0.00,0.00,0.00,0.00
2026-06-26 17:55:24.548,994.20,994.21,1.44,1.59,0.00,1.03,0.28,9.30,0.00,-0.00,0.00,0.00
2026-06-26 17:55:24.591,994.19,994.21,1.72,1.74,0.00,1.04,0.28,9.28,0.00,-0.00,0.00,0.00
2026-06-26 17:55:24.596,994.19,994.21,1.72,1.74,0.00,1.04,0.28,9.28,0.00,-0.00,0.00,0.00
2026-06-26 17:55:24.600,994.19,994.21,1.72,1.74,0.00,1.04,0.28,9.28,-0.00,-0.00,0.00,0.00
2026-06-26 17:55:24.601,994.19,994.21,1.72,1.74,0.00,1.00,0.28,9.28,-0.00,-0.00,0.00,0.00
2026-06-26 17:55:24.604,994.19,994.21,1.72,1.74,0.00,1.00,0.28,9.28,-0.00,-0.00,0.00,0.00
2026-06-26 17:55:24.609,994.19,994.21,1.72,1.74,0.00,1.00,0.28,9.28,0.00,-0.00,0.00,0.00
2026-06-26 17:55:24.610,994.19,994.21,1.72,1.74,0.00,1.00,0.27,9.27,0.00,-0.00,0.00,0.00
2026-06-26 17:55:24.612,994.19,994.21,1.72,1.74,0.00,1.00,0.27,9.27,0.00,-0.00,0.00,0.00
2026-06-26 17:55:24.618,994.19,994.21,1.72,1.74,0.00,1.00,0.27,9.27,0.00,-0.00,0.00,0.00
2026-06-26 17:55:24.620,994.19,994.21,1.72,1.74,0.00,1.03,0.29,9.26,0.00,0.00,0.00,0.00
2026-06-26 17:55:24.622,994.19,994.21,1.72,1.74,0.00,1.03,0.29,9.26,0.00,0.00,0.00,0.00
2026-06-26 17:55:24.624,994.19,994.21,1.72,1.74,0.00,1.03,0.29,9.26,0.00,0.00,0.00,0.00
2026-06-26 17:55:24.629,994.19,994.21,1.72,1.74,0.00,1.03,0.29,9.26,0.00,-0.00,-0.00,0.00
2026-06-26 17:55:24.631,994.19,994.21,1.72,1.74,0.00,1.03,0.29,9.27,0.00,-0.00,-0.00,0.00
2026-06-26 17:55:24.636,994.19,994.21,1.72,1.74,0.00,1.03,0.29,9.27,0.00,-0.00,-0.00,0.00
2026-06-26 17:55:24.639,994.19,994.21,1.72,1.74,0.00,1.03,0.29,9.27,0.00,0.00,0.00,0.00
2026-06-26 17:55:24.641,994.19,994.21,1.72,1.74,0.00,1.01,0.28,9.30,0.00,0.00,0.00,0.00
2026-06-26 17:55:24.685,994.19,994.21,1.37,1.55,0.00,1.01,0.31,9.29,0.00,0.00,0.00,0.00
2026-06-26 17:55:24.689,994.19,994.21,1.37,1.55,0.00,1.01,0.31,9.29,0.00,0.00,0.00,0.00
2026-06-26 17:55:24.690,994.19,994.21,1.37,1.55,0.00,1.02,0.30,9.28,0.00,0.00,0.00,0.00
2026-06-26 17:55:24.733,994.19,994.21,1.44,1.59,0.00,1.02,0.30,9.29,-0.00,-0.00,0.00,0.00
2026-06-26 17:55:24.734,994.19,994.21,1.44,1.59,0.00,1.02,0.30,9.29,-0.00,-0.00,0.00,0.00
2026-06-26 17:55:24.737,994.19,994.21,1.44,1.59,0.00,1.02,0.30,9.29,-0.00,-0.00,0.00,0.00
2026-06-26 17:55:24.739,994.19,994.21,1.44,1.59,0.00,1.01,0.28,9.27,-0.00,0.00,0.00,0.00
2026-06-26 17:55:24.741,994.19,994.21,1.44,1.59,0.00,1.01,0.28,9.27,-0.00,0.00,0.00,0.00
2026-06-26 17:55:24.742,994.19,994.21,1.44,1.59,0.00,1.01,0.28,9.27,-0.00,0.00,0.00,0.00
2026-06-26 17:55:24.748,994.19,994.21,1.44,1.59,0.00,1.01,0.28,9.27,-0.00,0.00,0.00,0.00
2026-06-26 17:55:24.750,994.19,994.21,1.44,1.59,0.00,1.01,0.31,9.28,0.00,0.00,-0.00,0.00
2026-06-26 17:55:24.752,994.19,994.21,1.44,1.59,0.00,1.01,0.31,9.28,0.00,0.00,-0.00,0.00
2026-06-26 17:55:24.754,994.19,994.21,1.44,1.59,0.00,1.01,0.31,9.28,0.00,0.00,-0.00,0.00
2026-06-26 17:55:24.759,994.19,994.21,1.44,1.59,0.00,1.01,0.31,9.28,0.00,0.00,0.00,0.00
2026-06-26 17:55:24.761,994.19,994.21,1.44,1.59,0.00,1.03,0.29,9.26,0.00,0.00,0.00,0.00
2026-06-26 17:55:24.762,994.19,994.21,1.44,1.59,0.00,1.03,0.29,9.26,0.00,0.00,0.00,0.00
2026-06-26 17:55:24.764,994.19,994.21,1.44,1.59,0.00,1.03,0.29,9.26,0.00,0.00,0.00,0.00
2026-06-26 17:55:24.769,994.19,994.21,1.44,1.59,0.00,1.03,0.29,9.26,0.00,0.00,0.00,0.00
2026-06-26 17:55:24.771,994.19,994.21,1.44,1.59,0.00,1.01,0.30,9.28,0.00,0.00,-0.00,0.00
2026-06-26 17:55:24.773,994.19,994.21,1.44,1.59,0.00,1.01,0.30,9.28,0.00,0.00,-0.00,0.00
2026-06-26 17:55:24.779,994.19,994.21,1.44,1.59,0.00,1.01,0.30,9.28,0.00,0.00,-0.00,0.00
2026-06-26 17:55:24.781,994.19,994.21,1.44,1.59,0.00,1.03,0.30,9.29,0.00,-0.00,0.00,0.00
2026-06-26 17:55:24.783,994.19,994.21,1.44,1.59,0.00,1.03,0.30,9.29,0.00,-0.00,0.00,0.00
2026-06-26 17:55:24.830,994.19,994.20,1.22,1.46,0.00,1.01,0.29,9.29,0.00,0.00,0.00,0.00
2026-06-26 17:55:24.832,994.19,994.20,1.22,1.46,0.00,1.01,0.31,9.26,0.00,0.00,0.00,0.00
2026-06-26 17:55:24.879,994.19,994.20,1.05,1.36,0.00,1.01,0.30,9.26,-0.00,0.00,-0.00,0.00
2026-06-26 17:55:24.881,994.19,994.20,1.05,1.36,0.00,1.03,0.31,9.27,0.00,-0.00,0.00,0.00
2026-06-26 17:55:24.882,994.19,994.20,1.05,1.36,0.00,1.03,0.31,9.27,0.00,-0.00,0.00,0.00
2026-06-26 17:55:24.884,994.19,994.20,1.05,1.36,0.00,1.03,0.31,9.27,0.00,-0.00,0.00,0.00
2026-06-26 17:55:24.885,994.19,994.20,1.05,1.36,0.00,1.03,0.31,9.27,0.00,-0.00,0.00,0.00
2026-06-26 17:55:24.889,994.19,994.20,1.05,1.36,0.00,1.03,0.31,9.27,0.00,-0.00,0.00,0.00
2026-06-26 17:55:24.891,994.19,994.20,1.05,1.36,0.00,1.03,0.29,9.30,0.00,0.00,-0.00,0.00
2026-06-26 17:55:24.893,994.19,994.20,1.05,1.36,0.00,1.03,0.29,9.30,0.00,0.00,-0.00,0.00
2026-06-26 17:55:24.900,994.19,994.20,1.05,1.36,0.00,1.03,0.29,9.30,0.00,0.00,-0.00,0.00
2026-06-26 17:55:24.902,994.19,994.20,1.05,1.36,0.00,1.02,0.29,9.27,0.00,0.00,0.00,0.00
2026-06-26 17:55:24.908,994.19,994.20,1.05,1.36,0.00,1.02,0.29,9.27,0.00,0.00,0.00,0.00
2026-06-26 17:55:24.910,994.19,994.20,1.05,1.36,0.00,1.02,0.30,9.30,0.00,0.00,0.00,0.00
2026-06-26 17:55:24.912,994.19,994.20,1.05,1.36,0.00,1.02,0.30,9.30,0.00,0.00,0.00,0.00
2026-06-26 17:55:24.914,994.19,994.20,1.05,1.36,0.00,1.02,0.30,9.30,0.00,0.00,0.00,0.00
2026-06-26 17:55:24.919,994.19,994.20,1.05,1.36,0.00,1.02,0.30,9.30,0.00,0.00,0.00,0.00
2026-06-26 17:55:24.923,994.19,994.20,1.05,1.36,0.00,1.01,0.29,9.26,0.00,0.00,-0.00,0.00
2026-06-26 17:55:24.929,994.19,994.20,1.05,1.36,0.00,1.01,0.29,9.26,0.00,0.00,-0.00,0.00
2026-06-26 17:55:24.974,994.19,994.21,1.61,1.68,0.00,1.01,0.30,9.27,0.00,0.00,0.00,0.00
2026-06-26 17:55:25.019,994.19,994.21,1.78,1.77,0.00,1.03,0.30,9.26,0.00,0.00,0.00,0.00
2026-06-26 17:55:25.021,994.19,994.21,1.78,1.77,0.00,0.99,0.29,9.29,0.00,0.00,0.00,0.00
2026-06-26 17:55:25.023,994.19,994.21,1.78,1.77,0.00,0.99,0.29,9.29,0.00,0.00,0.00,0.00
2026-06-26 17:55:25.029,994.19,994.21,1.78,1.77,0.00,0.99,0.29,9.29,0.00,0.00,0.00,0.00
2026-06-26 17:55:25.031,994.19,994.21,1.78,1.77,0.00,1.02,0.29,9.28,-0.00,0.00,0.00,0.00
2026-06-26 17:55:25.033,994.19,994.21,1.78,1.77,0.00,1.02,0.29,9.28,-0.00,0.00,0.00,0.00
2026-06-26 17:55:25.035,994.19,994.21,1.78,1.77,0.00,1.02,0.29,9.28,-0.00,0.00,0.00,0.00
2026-06-26 17:55:25.037,994.19,994.21,1.78,1.77,0.00,1.02,0.29,9.28,-0.00,0.00,0.00,0.00
2026-06-26 17:55:25.041,994.19,994.21,1.78,1.77,0.00,1.03,0.29,9.28,0.00,0.00,0.00,0.00
2026-06-26 17:55:25.042,994.19,994.21,1.78,1.77,0.00,1.03,0.29,9.28,0.00,0.00,0.00,0.00
2026-06-26 17:55:25.047,994.19,994.21,1.78,1.77,0.00,1.03,0.29,9.28,0.00,0.00,0.00,0.00
2026-06-26 17:55:25.050,994.19,994.21,1.78,1.77,0.00,1.03,0.29,9.28,0.00,0.00,-0.00,0.00
2026-06-26 17:55:25.052,994.19,994.21,1.78,1.77,0.00,1.03,0.30,9.29,0.00,0.00,-0.00,0.00
2026-06-26 17:55:25.053,994.19,994.21,1.78,1.77,0.00,1.03,0.30,9.29,0.00,0.00,-0.00,0.00
2026-06-26 17:55:25.060,994.19,994.21,1.78,1.77,0.00,1.03,0.30,9.29,0.00,0.00,-0.00,0.00
2026-06-26 17:55:25.062,994.19,994.21,1.78,1.77,0.00,1.01,0.31,9.27,0.00,0.00,-0.00,0.00
2026-06-26 17:55:25.064,994.19,994.21,1.78,1.77,0.00,1.01,0.31,9.27,0.00,0.00,-0.00,0.00
2026-06-26 17:55:25.069,994.19,994.21,1.78,1.77,0.00,1.01,0.31,9.27,0.00,0.00,-0.00,0.00
2026-06-26 17:55:25.071,994.19,994.21,1.78,1.77,0.00,1.01,0.32,9.27,0.00,-0.00,0.00,0.00
2026-06-26 17:55:25.119,994.19,994.21,2.29,2.01,0.00,1.01,0.29,9.25,0.00,-0.00,0.00,0.00
2026-06-26 17:55:25.160,994.19,994.21,2.22,1.98,0.00,1.03,0.30,9.28,0.00,0.00,0.00,0.00
2026-06-26 17:55:25.161,994.19,994.21,2.22,1.98,0.00,1.04,0.29,9.26,0.00,0.00,0.00,0.00
2026-06-26 17:55:25.163,994.19,994.21,2.22,1.98,0.00,1.04,0.29,9.26,0.00,0.00,0.00,0.00
2026-06-26 17:55:25.164,994.19,994.21,2.22,1.98,0.00,1.04,0.29,9.26,0.00,0.00,0.00,0.00
2026-06-26 17:55:25.169,994.19,994.21,2.22,1.98,0.00,1.04,0.29,9.26,0.00,0.00,0.00,0.00
2026-06-26 17:55:25.171,994.19,994.21,2.22,1.98,0.00,1.01,0.31,9.27,0.00,0.00,0.00,0.00
2026-06-26 17:55:25.172,994.19,994.21,2.22,1.98,0.00,1.01,0.31,9.27,0.00,0.00,0.00,0.00
2026-06-26 17:55:25.174,994.19,994.21,2.22,1.98,0.00,1.01,0.31,9.27,0.00,0.00,0.00,0.00
2026-06-26 17:55:25.180,994.19,994.21,2.22,1.98,0.00,1.01,0.31,9.27,0.00,0.00,0.00,0.00
2026-06-26 17:55:25.182,994.19,994.21,2.22,1.98,0.00,1.02,0.30,9.29,-0.00,0.00,0.00,0.00
2026-06-26 17:55:25.183,994.19,994.21,2.22,1.98,0.00,1.02,0.30,9.29,-0.00,0.00,0.00,0.00
2026-06-26 17:55:25.185,994.19,994.21,2.22,1.98,0.00,1.02,0.30,9.29,-0.00,0.00,0.00,0.00
2026-06-26 17:55:25.186,994.19,994.21,2.22,1.98,0.00,1.02,0.30,9.29,-0.00,0.00,0.00,0.00
2026-06-26 17:55:25.188,994.19,994.21,2.22,1.98,0.00,1.02,0.30,9.29,-0.00,0.00,0.00,0.00
2026-06-26 17:55:25.192,994.19,994.21,2.22,1.98,0.00,0.99,0.31,9.27,0.00,-0.00,0.00,0.00
2026-06-26 17:55:25.199,994.19,994.21,2.22,1.98,0.00,0.99,0.31,9.27,0.00,-0.00,0.00,0.00
2026-06-26 17:55:25.202,994.19,994.21,2.22,1.98,0.00,1.02,0.32,9.29,0.00,0.00,-0.00,0.00
2026-06-26 17:55:25.204,994.19,994.21,2.22,1.98,0.00,1.02,0.32,9.29,0.00,0.00,-0.00,0.00
2026-06-26 17:55:25.210,994.19,994.21,2.22,1.98,0.00,1.02,0.32,9.29,0.00,0.00,-0.00,0.00
2026-06-26 17:55:25.213,994.19,994.21,2.22,1.98,0.00,1.02,0.28,9.26,0.00,-0.00,0.00,0.00
2026-06-26 17:55:25.301,994.19,994.22,2.15,1.94,0.00,1.00,0.29,9.29,-0.00,-0.00,0.00,0.00
2026-06-26 17:55:25.302,994.19,994.22,2.15,1.94,0.00,1.00,0.29,9.29,-0.00,-0.00,0.00,0.00
2026-06-26 17:55:25.304,994.19,994.22,2.15,1.94,0.00,1.00,0.29,9.29,-0.00,-0.00,0.00,0.00
2026-06-26 17:55:25.310,994.19,994.22,2.15,1.94,0.00,1.00,0.29,9.29,-0.00,0.00,-0.00,0.00
2026-06-26 17:55:25.312,994.19,994.22,2.15,1.94,0.00,1.02,0.29,9.26,-0.00,0.00,-0.00,0.00
2026-06-26 17:55:25.314,994.19,994.22,2.15,1.94,0.00,1.02,0.29,9.26,-0.00,0.00,-0.00,0.00
2026-06-26 17:55:25.320,994.19,994.22,2.15,1.94,0.00,1.02,0.29,9.26,-0.00,0.00,-0.00,0.00
2026-06-26 17:55:25.322,994.19,994.22,2.15,1.94,0.00,1.01,0.31,9.24,0.00,0.00,0.00,0.00
2026-06-26 17:55:25.323,994.19,994.22,2.15,1.94,0.00,1.01,0.31,9.24,0.00,0.00,0.00,0.00
2026-06-26 17:55:25.329,994.19,994.22,2.15,1.94,0.00,1.01,0.31,9.24,0.00,0.00,0.00,0.00
2026-06-26 17:55:25.331,994.19,994.22,2.15,1.94,0.00,1.02,0.29,9.29,0.00,0.00,0.00,0.00
2026-06-26 17:55:25.333,994.19,994.22,2.15,1.94,0.00,1.02,0.29,9.29,0.00,0.00,0.00,0.00
2026-06-26 17:55:25.334,994.19,994.22,2.15,1.94,0.00,1.02,0.29,9.29,0.00,0.00,0.00,0.00
2026-06-26 17:55:25.336,994.19,994.22,2.15,1.94,0.00,1.02,0.29,9.29,0.00,0.00,0.00,0.00
2026-06-26 17:55:25.337,994.19,994.22,2.15,1.94,0.00,1.02,0.29,9.29,0.00,0.00,0.00,0.00
2026-06-26 17:55:25.341,994.19,994.22,2.15,1.94,0.00,1.02,0.29,9.29,-0.00,0.00,-0.00,0.00
2026-06-26 17:55:25.343,994.19,994.22,2.15,1.94,0.00,1.01,0.29,9.27,-0.00,0.00,-0.00,0.00
2026-06-26 17:55:25.350,994.19,994.22,2.15,1.94,0.00,1.01,0.29,9.27,-0.00,0.00,-0.00,0.00
2026-06-26 17:55:25.352,994.19,994.22,2.15,1.94,0.00,1.01,0.31,9.26,0.00,-0.00,0.00,0.00
2026-06-26 17:55:25.354,994.19,994.22,2.15,1.94,0.00,1.01,0.31,9.26,0.00,-0.00,0.00,0.00
2026-06-26 17:55:25.360,994.19,994.22,2.15,1.94,0.00,1.01,0.31,9.26,0.00,-0.00,0.00,0.00
2026-06-26 17:55:25.444,994.20,994.22,2.07,1.91,0.00,1.01,0.29,9.29,0.00,0.00,0.00,0.00
2026-06-26 17:55:25.450,994.20,994.22,2.07,1.91,0.00,1.01,0.29,9.29,0.00,0.00,0.00,0.00
2026-06-26 17:55:25.451,994.20,994.22,2.07,1.91,0.00,1.01,0.30,9.26,-0.00,0.00,0.00,0.00
2026-06-26 17:55:25.453,994.20,994.22,2.07,1.91,0.00,1.01,0.30,9.26,-0.00,0.00,0.00,0.00
2026-06-26 17:55:25.454,994.20,994.22,2.07,1.91,0.00,1.01,0.30,9.26,-0.00,0.00,0.00,0.00
2026-06-26 17:55:25.460,994.20,994.22,2.07,1.91,0.00,1.01,0.30,9.26,-0.00,0.00,0.00,0.00
2026-06-26 17:55:25.462,994.20,994.22,2.07,1.91,0.00,1.01,0.29,9.24,-0.00,-0.00,0.00,0.00
2026-06-26 17:55:25.463,994.20,994.22,2.07,1.91,0.00,1.01,0.29,9.24,-0.00,-0.00,0.00,0.00
2026-06-26 17:55:25.465,994.20,994.22,2.07,1.91,0.00,1.01,0.29,9.24,-0.00,-0.00,0.00,0.00
2026-06-26 17:55:25.470,994.20,994.22,2.07,1.91,0.00,1.01,0.29,9.24,-0.00,-0.00,0.00,0.00
2026-06-26 17:55:25.472,994.20,994.22,2.07,1.91,0.00,1.02,0.29,9.29,-0.00,0.00,-0.00,0.00
2026-06-26 17:55:25.473,994.20,994.22,2.07,1.91,0.00,1.02,0.29,9.29,-0.00,0.00,-0.00,0.00
2026-06-26 17:55:25.476,994.20,994.22,2.07,1.91,0.00,1.02,0.29,9.29,-0.00,0.00,-0.00,0.00
2026-06-26 17:55:25.481,994.20,994.22,2.07,1.91,0.00,1.02,0.29,9.29,0.00,0.00,0.00,0.00
2026-06-26 17:55:25.483,994.20,994.22,2.07,1.91,0.00,1.02,0.27,9.28,0.00,0.00,0.00,0.00
2026-06-26 17:55:25.484,994.20,994.22,2.07,1.91,0.00,1.02,0.27,9.28,0.00,0.00,0.00,0.00
2026-06-26 17:55:25.486,994.20,994.22,2.07,1.91,0.00,1.02,0.27,9.28,0.00,0.00,0.00,0.00
2026-06-26 17:55:25.489,994.20,994.22,2.07,1.91,0.00,1.02,0.27,9.28,0.00,0.00,0.00,0.00
2026-06-26 17:55:25.491,994.20,994.22,2.07,1.91,0.00,1.01,0.29,9.30,0.00,0.00,0.00,0.00
2026-06-26 17:55:25.493,994.20,994.22,2.07,1.91,0.00,1.01,0.29,9.30,0.00,0.00,0.00,0.00
2026-06-26 17:55:25.494,994.20,994.22,2.07,1.91,0.00,1.01,0.29,9.30,0.00,0.00,0.00,0.00
2026-06-26 17:55:25.500,994.20,994.22,2.07,1.91,0.00,1.01,0.29,9.30,0.00,0.00,0.00,0.00
2026-06-26 17:55:25.502,994.20,994.22,2.07,1.91,0.00,1.02,0.31,9.31,-0.00,0.00,-0.00,0.00
2026-06-26 17:55:25.586,994.20,994.22,1.86,1.81,0.00,1.01,0.29,9.28,0.00,0.00,0.00,0.00
2026-06-26 17:55:25.590,994.20,994.22,1.86,1.81,0.00,1.01,0.29,9.28,0.00,-0.00,-0.00,0.00
2026-06-26 17:55:25.592,994.20,994.22,1.86,1.81,0.00,0.99,0.30,9.28,0.00,-0.00,-0.00,0.00
2026-06-26 17:55:25.594,994.20,994.22,1.86,1.81,0.00,0.99,0.30,9.28,0.00,-0.00,-0.00,0.00
2026-06-26 17:55:25.600,994.20,994.22,1.86,1.81,0.00,0.99,0.30,9.28,0.00,-0.00,-0.00,0.00
2026-06-26 17:55:25.602,994.20,994.22,1.86,1.81,0.00,0.99,0.30,9.27,0.00,0.00,0.00,0.00
2026-06-26 17:55:25.604,994.20,994.22,1.86,1.81,0.00,0.99,0.30,9.27,0.00,0.00,0.00,0.00
2026-06-26 17:55:25.610,994.20,994.22,1.86,1.81,0.00,0.99,0.30,9.27,0.00,0.00,0.00,0.00
2026-06-26 17:55:25.612,994.20,994.22,1.86,1.81,0.00,1.02,0.30,9.26,0.00,0.00,-0.00,0.00
2026-06-26 17:55:25.614,994.20,994.22,1.86,1.81,0.00,1.02,0.30,9.26,0.00,0.00,-0.00,0.00
2026-06-26 17:55:25.620,994.20,994.22,1.86,1.81,0.00,1.02,0.30,9.26,0.00,0.00,-0.00,0.00
2026-06-26 17:55:25.624,994.20,994.22,1.86,1.81,0.00,1.01,0.29,9.27,0.00,-0.00,0.00,0.00
2026-06-26 17:55:25.630,994.20,994.22,1.86,1.81,0.00,1.01,0.29,9.27,0.00,-0.00,0.00,0.00
2026-06-26 17:55:25.633,994.20,994.22,1.86,1.81,0.00,1.01,0.27,9.28,0.00,0.00,0.00,0.00
2026-06-26 17:55:25.634,994.20,994.22,1.86,1.81,0.00,1.01,0.27,9.28,0.00,0.00,0.00,0.00
2026-06-26 17:55:25.637,994.20,994.22,1.86,1.81,0.00,1.01,0.27,9.28,0.00,0.00,0.00,0.00
2026-06-26 17:55:25.642,994.20,994.22,1.86,1.81,0.00,1.01,0.27,9.28,0.00,-0.00,0.00,0.00
2026-06-26 17:55:25.644,994.20,994.22,1.86,1.81,0.00,1.01,0.29,9.27,0.00,-0.00,0.00,0.00
2026-06-26 17:55:25.731,994.20,994.22,2.03,1.89,0.00,1.01,0.29,9.27,0.00,-0.00,0.00,0.00
2026-06-26 17:55:25.733,994.20,994.22,2.03,1.89,0.00,1.03,0.30,9.28,0.00,-0.00,0.00,0.00
2026-06-26 17:55:25.734,994.20,994.22,2.03,1.89,0.00,1.03,0.30,9.28,0.00,-0.00,0.00,0.00
2026-06-26 17:55:25.736,994.20,994.22,2.03,1.89,0.00,1.03,0.30,9.28,0.00,-0.00,0.00,0.00
2026-06-26 17:55:25.737,994.20,994.22,2.03,1.89,0.00,1.03,0.30,9.28,0.00,-0.00,0.00,0.00
2026-06-26 17:55:25.741,994.20,994.22,2.03,1.89,0.00,1.03,0.30,9.28,0.00,-0.00,0.00,0.00
2026-06-26 17:55:25.742,994.20,994.22,2.03,1.89,0.00,1.01,0.29,9.29,0.00,0.00,0.00,0.00
2026-06-26 17:55:25.744,994.20,994.22,2.03,1.89,0.00,1.01,0.29,9.29,0.00,0.00,0.00,0.00
2026-06-26 17:55:25.750,994.20,994.22,2.03,1.89,0.00,1.01,0.29,9.29,0.00,0.00,0.00,0.00
2026-06-26 17:55:25.752,994.20,994.22,2.03,1.89,0.00,1.01,0.28,9.29,0.00,0.00,-0.00,0.00
2026-06-26 17:55:25.754,994.20,994.22,2.03,1.89,0.00,1.01,0.28,9.29,0.00,0.00,-0.00,0.00
2026-06-26 17:55:25.757,994.20,994.22,2.03,1.89,0.00,1.01,0.28,9.29,0.00,0.00,-0.00,0.00
2026-06-26 17:55:25.761,994.20,994.22,2.03,1.89,0.00,1.01,0.28,9.29,-0.00,0.00,0.00,0.00
2026-06-26 17:55:25.763,994.20,994.22,2.03,1.89,0.00,1.03,0.30,9.27,-0.00,0.00,0.00,0.00
2026-06-26 17:55:25.765,994.20,994.22,2.03,1.89,0.00,1.03,0.30,9.27,-0.00,0.00,0.00,0.00
2026-06-26 17:55:25.769,994.20,994.22,2.03,1.89,0.00,1.03,0.30,9.27,-0.00,0.00,0.00,0.00
2026-06-26 17:55:25.772,994.20,994.22,2.03,1.89,0.00,1.01,0.29,9.27,-0.00,-0.00,0.00,0.00
2026-06-26 17:55:25.773,994.20,994.22,2.03,1.89,0.00,1.01,0.29,9.27,-0.00,-0.00,0.00,0.00
2026-06-26 17:55:25.775,994.20,994.22,2.03,1.89,0.00,1.01,0.29,9.27,-0.00,-0.00,0.00,0.00
2026-06-26 17:55:25.781,994.20,994.22,2.03,1.89,0.00,1.01,0.29,9.27,-0.00,-0.00,0.00,0.00
2026-06-26 17:55:25.783,994.20,994.22,2.03,1.89,0.00,1.02,0.30,9.28,-0.00,0.00,0.00,0.00
2026-06-26 17:55:25.785,994.20,994.22,2.03,1.89,0.00,1.02,0.30,9.28,-0.00,0.00,0.00,0.00
2026-06-26 17:55:25.873,994.20,994.21,1.54,1.64,0.00,1.01,0.29,9.27,-0.00,-0.00,0.00,0.00
2026-06-26 17:55:25.875,994.20,994.21,1.54,1.64,0.00,1.01,0.29,9.27,-0.00,-0.00,0.00,0.00
2026-06-26 17:55:25.881,994.20,994.21,1.54,1.64,0.00,1.01,0.29,9.27,-0.00,-0.00,0.00,0.00
2026-06-26 17:55:25.883,994.20,994.21,1.54,1.64,0.00,1.02,0.28,9.29,0.00,0.00,0.00,0.00
2026-06-26 17:55:25.885,994.20,994.21,1.54,1.64,0.00,1.02,0.28,9.29,0.00,0.00,0.00,0.00
2026-06-26 17:55:25.888,994.20,994.21,1.54,1.64,0.00,1.02,0.28,9.29,0.00,0.00,0.00,0.00
2026-06-26 17:55:25.892,994.20,994.21,1.54,1.64,0.00,1.02,0.28,9.29,0.00,-0.00,0.00,0.00
2026-06-26 17:55:25.894,994.20,994.21,1.54,1.64,0.00,1.01,0.31,9.28,0.00,-0.00,0.00,0.00
2026-06-26 17:55:25.901,994.20,994.21,1.54,1.64,0.00,1.01,0.31,9.28,0.00,-0.00,0.00,0.00
2026-06-26 17:55:25.903,994.20,994.21,1.54,1.64,0.00,1.03,0.30,9.27,-0.00,0.00,-0.00,0.00
2026-06-26 17:55:25.906,994.20,994.21,1.54,1.64,0.00,1.03,0.30,9.27,-0.00,0.00,-0.00,0.00
2026-06-26 17:55:25.911,994.20,994.21,1.54,1.64,0.00,1.03,0.30,9.27,-0.00,0.00,-0.00,0.00
2026-06-26 17:55:25.913,994.20,994.21,1.54,1.64,0.00,1.03,0.29,9.27,-0.00,0.00,-0.00,0.00
2026-06-26 17:55:25.920,994.20,994.21,1.54,1.64,0.00,1.03,0.29,9.27,-0.00,0.00,-0.00,0.00
2026-06-26 17:55:25.922,994.20,994.21,1.54,1.64,0.00,1.04,0.29,9.27,-0.00,0.00,0.00,0.00
2026-06-26 17:55:25.925,994.20,994.21,1.54,1.64,0.00,1.04,0.29,9.27,-0.00,0.00,0.00,0.00
2026-06-26 17:55:25.931,994.20,994.21,1.54,1.64,0.00,1.04,0.29,9.27,-0.00,0.00,0.00,0.00
2026-06-26 17:55:26.014,994.20,994.21,1.64,1.69,0.00,1.01,0.30,9.27,-0.00,0.00,0.00,0.00
2026-06-26 17:55:26.020,994.20,994.21,1.64,1.69,0.00,1.01,0.30,9.27,-0.00,0.00,0.00,0.00
2026-06-26 17:55:26.022,994.20,994.21,1.64,1.69,0.00,1.01,0.31,9.29,0.00,0.00,0.00,0.00
2026-06-26 17:55:26.028,994.20,994.21,1.64,1.69,0.00,1.01,0.31,9.29,0.00,0.00,0.00,0.00
2026-06-26 17:55:26.032,994.20,994.21,1.64,1.69,0.00,1.01,0.31,9.29,-0.00,0.00,0.00,0.00
2026-06-26 17:55:26.033,994.20,994.21,1.64,1.69,0.00,1.01,0.28,9.28,-0.00,0.00,0.00,0.00
2026-06-26 17:55:26.035,994.20,994.21,1.64,1.69,0.00,1.01,0.28,9.28,-0.00,0.00,0.00,0.00
2026-06-26 17:55:26.037,994.20,994.21,1.64,1.69,0.00,1.01,0.28,9.28,-0.00,0.00,0.00,0.00
2026-06-26 17:55:26.039,994.20,994.21,1.64,1.69,0.00,1.01,0.28,9.28,-0.00,0.00,0.00,0.00
2026-06-26 17:55:26.043,994.20,994.21,1.64,1.69,0.00,1.01,0.29,9.27,0.00,0.00,-0.00,0.00
2026-06-26 17:55:26.045,994.20,994.21,1.64,1.69,0.00,1.01,0.29,9.27,0.00,0.00,-0.00,0.00
2026-06-26 17:55:26.051,994.20,994.21,1.64,1.69,0.00,1.01,0.29,9.27,0.00,0.00,-0.00,0.00
2026-06-26 17:55:26.053,994.20,994.21,1.64,1.69,0.00,1.00,0.32,9.26,-0.00,-0.00,-0.00,0.00
2026-06-26 17:55:26.054,994.20,994.21,1.64,1.69,0.00,1.00,0.32,9.26,-0.00,-0.00,-0.00,0.00
2026-06-26 17:55:26.058,994.20,994.21,1.64,1.69,0.00,1.00,0.32,9.26,-0.00,-0.00,-0.00,0.00
2026-06-26 17:55:26.062,994.20,994.21,1.64,1.69,0.00,1.00,0.32,9.26,0.00,0.01,-0.00,0.00
2026-06-26 17:55:26.065,994.20,994.21,1.64,1.69,0.00,1.01,0.31,9.24,0.00,0.01,-0.00,0.00
2026-06-26 17:55:26.071,994.20,994.21,1.64,1.69,0.00,1.01,0.31,9.24,0.00,0.01,-0.00,0.00
2026-06-26 17:55:26.073,994.20,994.21,1.64,1.69,0.00,1.01,0.32,9.30,0.00,0.00,0.00,0.00
2026-06-26 17:55:26.161,994.20,994.22,1.80,1.78,0.00,1.04,0.28,9.24,0.00,0.00,-0.00,0.00
2026-06-26 17:55:26.163,994.20,994.22,1.80,1.78,0.00,1.04,0.28,9.27,-0.00,0.00,0.00,0.00
2026-06-26 17:55:26.165,994.20,994.22,1.80,1.78,0.00,1.04,0.28,9.27,-0.00,0.00,0.00,0.00
2026-06-26 17:55:26.166,994.20,994.22,1.80,1.78,0.00,1.04,0.28,9.27,-0.00,0.00,0.00,0.00
2026-06-26 17:55:26.171,994.20,994.22,1.80,1.78,0.00,1.04,0.28,9.27,-0.00,0.00,0.00,0.00
2026-06-26 17:55:26.173,994.20,994.22,1.80,1.78,0.00,1.01,0.29,9.25,0.00,0.00,0.00,0.00
2026-06-26 17:55:26.174,994.20,994.22,1.80,1.78,0.00,1.01,0.29,9.25,0.00,0.00,0.00,0.00
2026-06-26 17:55:26.177,994.20,994.22,1.80,1.78,0.00,1.01,0.29,9.25,0.00,0.00,0.00,0.00
2026-06-26 17:55:26.182,994.20,994.22,1.80,1.78,0.00,1.01,0.29,9.25,0.00,-0.00,0.00,0.00
2026-06-26 17:55:26.184,994.20,994.22,1.80,1.78,0.00,1.01,0.30,9.27,0.00,-0.00,0.00,0.00
2026-06-26 17:55:26.186,994.20,994.22,1.80,1.78,0.00,1.01,0.30,9.27,0.00,-0.00,0.00,0.00
2026-06-26 17:55:26.187,994.20,994.22,1.80,1.78,0.00,1.01,0.30,9.27,0.00,-0.00,0.00,0.00
2026-06-26 17:55:26.189,994.20,994.22,1.80,1.78,0.00,1.01,0.30,9.27,0.00,-0.00,0.00,0.00
2026-06-26 17:55:26.192,994.20,994.22,1.80,1.78,0.00,1.01,0.30,9.27,0.00,-0.00,0.00,0.00
2026-06-26 17:55:26.194,994.20,994.22,1.80,1.78,0.00,1.03,0.29,9.27,0.00,-0.00,0.00,0.00
2026-06-26 17:55:26.195,994.20,994.22,1.80,1.78,0.00,1.03,0.29,9.27,0.00,-0.00,0.00,0.00
2026-06-26 17:55:26.201,994.20,994.22,1.80,1.78,0.00,1.03,0.29,9.27,0.00,-0.00,0.00,0.00
2026-06-26 17:55:26.205,994.20,994.22,1.80,1.78,0.00,1.01,0.29,9.28,0.00,0.00,0.00,0.00
2026-06-26 17:55:26.211,994.20,994.22,1.80,1.78,0.00,1.01,0.29,9.28,0.00,0.00,0.00,0.00
2026-06-26 17:55:26.215,994.20,994.22,1.80,1.78,0.00,1.02,0.30,9.28,0.00,0.00,0.00,0.00
2026-06-26 17:55:26.302,994.20,994.21,1.07,1.37,0.00,1.02,0.29,9.27,0.00,-0.00,0.00,0.00
2026-06-26 17:55:26.304,994.20,994.21,1.07,1.37,0.00,1.02,0.29,9.27,0.00,-0.00,0.00,0.00
2026-06-26 17:55:26.306,994.20,994.21,1.07,1.37,0.00,1.02,0.29,9.27,0.00,-0.00,0.00,0.00
2026-06-26 17:55:26.311,994.20,994.21,1.07,1.37,0.00,1.02,0.29,9.27,0.00,-0.00,0.00,0.00
2026-06-26 17:55:26.313,994.20,994.21,1.07,1.37,0.00,1.02,0.28,9.26,0.00,0.00,0.00,0.00
2026-06-26 17:55:26.315,994.20,994.21,1.07,1.37,0.00,1.02,0.28,9.26,0.00,0.00,0.00,0.00
2026-06-26 17:55:26.318,994.20,994.21,1.07,1.37,0.00,1.02,0.28,9.26,0.00,0.00,0.00,0.00
2026-06-26 17:55:26.322,994.20,994.21,1.07,1.37,0.00,1.02,0.28,9.26,0.00,-0.00,0.00,0.00
2026-06-26 17:55:26.324,994.20,994.21,1.07,1.37,0.00,1.01,0.28,9.28,0.00,-0.00,0.00,0.00
2026-06-26 17:55:26.328,994.20,994.21,1.07,1.37,0.00,1.01,0.28,9.28,0.00,-0.00,0.00,0.00
2026-06-26 17:55:26.332,994.20,994.21,1.07,1.37,0.00,1.01,0.28,9.28,0.00,-0.00,0.00,0.00
2026-06-26 17:55:26.334,994.20,994.21,1.07,1.37,0.00,1.00,0.29,9.27,0.00,-0.00,0.00,0.00
2026-06-26 17:55:26.335,994.20,994.21,1.07,1.37,0.00,1.00,0.29,9.27,0.00,-0.00,0.00,0.00
2026-06-26 17:55:26.337,994.20,994.21,1.07,1.37,0.00,1.00,0.29,9.27,0.00,-0.00,0.00,0.00
2026-06-26 17:55:26.338,994.20,994.21,1.07,1.37,0.00,1.00,0.29,9.27,0.00,-0.00,0.00,0.00
2026-06-26 17:55:26.341,994.20,994.21,1.07,1.37,0.00,1.00,0.29,9.27,0.00,-0.00,0.00,0.00
2026-06-26 17:55:26.343,994.20,994.21,1.07,1.37,0.00,1.01,0.30,9.27,-0.00,0.00,0.00,0.00
2026-06-26 17:55:26.345,994.20,994.21,1.07,1.37,0.00,1.01,0.30,9.27,-0.00,0.00,0.00,0.00
2026-06-26 17:55:26.351,994.20,994.21,1.07,1.37,0.00,1.01,0.30,9.27,-0.00,0.00,0.00,0.00
2026-06-26 17:55:26.353,994.20,994.21,1.07,1.37,0.00,1.02,0.29,9.27,-0.00,0.00,0.00,0.00
2026-06-26 17:55:26.354,994.20,994.21,1.07,1.37,0.00,1.02,0.29,9.27,-0.00,0.00,0.00,0.00
2026-06-26 17:55:26.358,994.20,994.21,1.07,1.37,0.00,1.02,0.29,9.27,-0.00,0.00,0.00,0.00
2026-06-26 17:55:26.362,994.20,994.21,1.07,1.37,0.00,1.02,0.29,9.27,0.00,-0.00,-0.00,0.00
2026-06-26 17:55:26.444,994.20,994.21,1.04,1.35,0.00,1.02,0.29,9.29,0.00,0.00,0.00,0.00
2026-06-26 17:55:26.446,994.20,994.21,1.04,1.35,0.00,1.02,0.29,9.29,0.00,0.00,0.00,0.00
2026-06-26 17:55:26.452,994.20,994.21,1.04,1.35,0.00,1.02,0.29,9.29,0.00,0.00,0.00,0.00
2026-06-26 17:55:26.453,994.20,994.21,1.04,1.35,0.00,1.01,0.31,9.30,0.00,0.00,0.00,0.00
2026-06-26 17:55:26.455,994.20,994.21,1.04,1.35,0.00,1.01,0.31,9.30,0.00,0.00,0.00,0.00
2026-06-26 17:55:26.461,994.20,994.21,1.04,1.35,0.00,1.01,0.31,9.30,0.00,0.00,0.00,0.00
2026-06-26 17:55:26.463,994.20,994.21,1.04,1.35,0.00,1.00,0.30,9.25,0.00,-0.00,0.00,0.00
2026-06-26 17:55:26.465,994.20,994.21,1.04,1.35,0.00,1.00,0.30,9.25,0.00,-0.00,0.00,0.00
2026-06-26 17:55:26.467,994.20,994.21,1.04,1.35,0.00,1.00,0.30,9.25,0.00,-0.00,0.00,0.00
2026-06-26 17:55:26.472,994.20,994.21,1.04,1.35,0.00,1.00,0.30,9.25,0.00,-0.00,0.00,0.00
2026-06-26 17:55:26.474,994.20,994.21,1.04,1.35,0.00,1.02,0.29,9.29,0.00,0.00,0.00,0.00
2026-06-26 17:55:26.476,994.20,994.21,1.04,1.35,0.00,1.02,0.29,9.29,0.00,0.00,0.00,0.00
2026-06-26 17:55:26.482,994.20,994.21,1.04,1.35,0.00,1.02,0.29,9.29,0.00,0.00,0.00,0.00
2026-06-26 17:55:26.486,994.20,994.21,1.04,1.35,0.00,1.03,0.30,9.26,0.00,0.00,0.00,0.00
2026-06-26 17:55:26.488,994.20,994.21,1.04,1.35,0.00,1.03,0.30,9.26,0.00,0.00,0.00,0.00
2026-06-26 17:55:26.492,994.20,994.21,1.04,1.35,0.00,1.03,0.30,9.26,0.00,0.00,0.00,0.00
2026-06-26 17:55:26.494,994.20,994.21,1.04,1.35,0.00,1.02,0.31,9.27,0.00,-0.00,0.00,0.00
2026-06-26 17:55:26.496,994.20,994.21,1.04,1.35,0.00,1.02,0.31,9.27,0.00,-0.00,0.00,0.00
2026-06-26 17:55:26.502,994.20,994.21,1.04,1.35,0.00,1.02,0.31,9.27,0.00,-0.00,0.00,0.00
2026-06-26 17:55:26.504,994.20,994.21,1.04,1.35,0.00,1.02,0.29,9.30,-0.00,-0.00,0.00,0.00
2026-06-26 17:55:26.543,994.20,994.21,0.69,1.10,0.00,1.02,0.27,9.25,0.00,0.00,0.00,0.00
2026-06-26 17:55:26.585,994.20,994.21,0.62,1.05,0.00,1.01,0.31,9.27,-0.00,0.00,0.00,0.00
2026-06-26 17:55:26.587,994.20,994.21,0.62,1.05,0.00,1.01,0.31,9.27,-0.00,0.00,0.00,0.00
2026-06-26 17:55:26.588,994.20,994.21,0.62,1.05,0.00,1.01,0.31,9.27,-0.00,0.00,0.00,0.00
2026-06-26 17:55:26.592,994.20,994.21,0.62,1.05,0.00,1.01,0.31,9.27,-0.00,0.00,0.00,0.00
2026-06-26 17:55:26.594,994.20,994.21,0.62,1.05,0.00,1.01,0.29,9.29,0.00,0.00,0.00,0.00
2026-06-26 17:55:26.596,994.20,994.21,0.62,1.05,0.00,1.01,0.29,9.29,0.00,0.00,0.00,0.00
2026-06-26 17:55:26.602,994.20,994.21,0.62,1.05,0.00,1.01,0.29,9.29,0.00,0.00,0.00,0.00
2026-06-26 17:55:26.604,994.20,994.21,0.62,1.05,0.00,1.02,0.30,9.27,0.00,0.00,0.00,0.00
2026-06-26 17:55:26.606,994.20,994.21,0.62,1.05,0.00,1.02,0.30,9.27,0.00,0.00,0.00,0.00
2026-06-26 17:55:26.612,994.20,994.21,0.62,1.05,0.00,1.02,0.30,9.27,0.00,0.00,0.00,0.00
2026-06-26 17:55:26.614,994.20,994.21,0.62,1.05,0.00,1.02,0.30,9.27,0.00,0.00,0.00,0.00
2026-06-26 17:55:26.616,994.20,994.21,0.62,1.05,0.00,1.02,0.30,9.27,0.00,0.00,0.00,0.00
2026-06-26 17:55:26.622,994.20,994.21,0.62,1.05,0.00,1.02,0.30,9.27,0.00,0.00,0.00,0.00
2026-06-26 17:55:26.624,994.20,994.21,0.62,1.05,0.00,1.02,0.28,9.27,-0.00,0.00,-0.00,0.00
2026-06-26 17:55:26.626,994.20,994.21,0.62,1.05,0.00,1.02,0.28,9.27,-0.00,0.00,-0.00,0.00
2026-06-26 17:55:26.633,994.20,994.21,0.62,1.05,0.00,1.02,0.28,9.27,-0.00,0.00,-0.00,0.00
2026-06-26 17:55:26.635,994.20,994.21,0.62,1.05,0.00,1.01,0.28,9.27,0.00,0.00,-0.00,0.00
2026-06-26 17:55:26.638,994.20,994.21,0.62,1.05,0.00,1.01,0.28,9.27,0.00,0.00,-0.00,0.00
2026-06-26 17:55:26.642,994.20,994.21,0.62,1.05,0.00,1.01,0.28,9.27,0.00,0.00,-0.00,0.00
2026-06-26 17:55:26.685,994.20,994.21,0.62,1.05,0.00,1.01,0.27,9.28,0.00,-0.00,0.00,0.00
2026-06-26 17:55:26.732,994.20,994.21,0.76,1.16,0.00,1.03,0.27,9.27,0.00,0.00,0.00,0.00
2026-06-26 17:55:26.735,994.20,994.21,0.76,1.16,0.00,1.01,0.30,9.28,0.00,0.00,0.00,0.00
2026-06-26 17:55:26.737,994.20,994.21,0.76,1.16,0.00,1.01,0.30,9.28,0.00,0.00,0.00,0.00
2026-06-26 17:55:26.739,994.20,994.21,0.76,1.16,0.00,1.01,0.30,9.28,0.00,0.00,0.00,0.00
2026-06-26 17:55:26.743,994.20,994.21,0.76,1.16,0.00,1.01,0.30,9.28,0.00,-0.00,0.00,0.00
2026-06-26 17:55:26.745,994.20,994.21,0.76,1.16,0.00,1.02,0.30,9.27,0.00,-0.00,0.00,0.00
2026-06-26 17:55:26.749,994.20,994.21,0.76,1.16,0.00,1.02,0.30,9.27,0.00,-0.00,0.00,0.00
2026-06-26 17:55:26.753,994.20,994.21,0.76,1.16,0.00,1.02,0.30,9.27,-0.00,0.00,0.00,0.00
2026-06-26 17:55:26.755,994.20,994.21,0.76,1.16,0.00,1.03,0.29,9.26,-0.00,0.00,0.00,0.00
2026-06-26 17:55:26.757,994.20,994.21,0.76,1.16,0.00,1.03,0.29,9.26,-0.00,0.00,0.00,0.00
2026-06-26 17:55:26.762,994.20,994.21,0.76,1.16,0.00,1.03,0.29,9.26,-0.00,0.00,0.00,0.00
2026-06-26 17:55:26.764,994.20,994.21,0.76,1.16,0.00,1.01,0.29,9.24,0.00,0.00,-0.00,0.00
2026-06-26 17:55:26.766,994.20,994.21,0.76,1.16,0.00,1.01,0.29,9.24,0.00,0.00,-0.00,0.00
2026-06-26 17:55:26.770,994.20,994.21,0.76,1.16,0.00,1.01,0.29,9.24,0.00,0.00,-0.00,0.00
2026-06-26 17:55:26.773,994.20,994.21,0.76,1.16,0.00,1.02,0.30,9.28,0.00,0.00,0.00,0.00
2026-06-26 17:55:26.776,994.20,994.21,0.76,1.16,0.00,1.02,0.30,9.28,0.00,0.00,0.00,0.00
2026-06-26 17:55:26.780,994.20,994.21,0.76,1.16,0.00,1.02,0.30,9.28,0.00,0.00,0.00,0.00
2026-06-26 17:55:26.784,994.20,994.21,0.76,1.16,0.00,1.02,0.30,9.28,0.00,0.00,0.00,0.00
2026-06-26 17:55:26.823,994.20,994.21,1.03,1.35,0.00,1.02,0.31,9.27,0.00,-0.00,0.00,0.00
2026-06-26 17:55:26.825,994.20,994.21,1.03,1.35,0.00,1.00,0.30,9.29,0.00,-0.00,0.00,0.00
2026-06-26 17:55:26.827,994.20,994.21,1.03,1.35,0.00,1.00,0.30,9.29,0.00,-0.00,0.00,0.00
2026-06-26 17:55:26.867,994.20,994.21,1.38,1.55,0.00,1.03,0.30,9.28,0.00,-0.00,-0.00,0.00
2026-06-26 17:55:26.873,994.20,994.21,1.38,1.55,0.00,1.03,0.30,9.28,0.00,-0.00,-0.00,0.00
2026-06-26 17:55:26.874,994.20,994.21,1.38,1.55,0.00,0.99,0.29,9.29,0.00,-0.00,0.00,0.00
2026-06-26 17:55:26.876,994.20,994.21,1.38,1.55,0.00,0.99,0.29,9.29,0.00,-0.00,0.00,0.00
2026-06-26 17:55:26.883,994.20,994.21,1.38,1.55,0.00,0.99,0.29,9.29,0.00,-0.00,0.00,0.00
2026-06-26 17:55:26.885,994.20,994.21,1.38,1.55,0.00,1.01,0.29,9.26,0.00,-0.00,0.00,0.00
2026-06-26 17:55:26.887,994.20,994.21,1.38,1.55,0.00,1.01,0.29,9.26,0.00,-0.00,0.00,0.00
2026-06-26 17:55:26.889,994.20,994.21,1.38,1.55,0.00,1.01,0.29,9.26,0.00,-0.00,0.00,0.00
2026-06-26 17:55:26.893,994.20,994.21,1.38,1.55,0.00,1.01,0.29,9.26,0.00,-0.00,-0.00,0.00
2026-06-26 17:55:26.895,994.20,994.21,1.38,1.55,0.00,1.04,0.30,9.28,0.00,-0.00,-0.00,0.00
2026-06-26 17:55:26.898,994.20,994.21,1.38,1.55,0.00,1.04,0.30,9.28,0.00,-0.00,-0.00,0.00
2026-06-26 17:55:26.903,994.20,994.21,1.38,1.55,0.00,1.04,0.30,9.28,0.00,-0.00,0.00,0.00
2026-06-26 17:55:26.905,994.20,994.21,1.38,1.55,0.00,1.04,0.31,9.23,0.00,-0.00,0.00,0.00
2026-06-26 17:55:26.907,994.20,994.21,1.38,1.55,0.00,1.04,0.31,9.23,0.00,-0.00,0.00,0.00
2026-06-26 17:55:26.915,994.20,994.21,1.38,1.55,0.00,1.04,0.31,9.23,0.00,-0.00,-0.00,0.00
2026-06-26 17:55:26.916,994.20,994.21,1.38,1.55,0.00,1.01,0.30,9.24,0.00,-0.00,-0.00,0.00
2026-06-26 17:55:26.923,994.20,994.21,1.38,1.55,0.00,1.01,0.30,9.24,0.00,-0.00,-0.00,0.00
2026-06-26 17:55:26.963,994.20,994.21,1.09,1.38,0.00,1.01,0.30,9.25,0.00,-0.00,0.00,0.00
2026-06-26 17:55:27.009,994.20,994.21,0.92,1.27,0.00,1.01,0.30,9.29,0.00,0.00,0.00,0.00
2026-06-26 17:55:27.013,994.20,994.21,0.92,1.27,0.00,1.01,0.30,9.29,-0.00,0.00,0.00,0.00
2026-06-26 17:55:27.015,994.20,994.21,0.92,1.27,0.00,1.03,0.29,9.25,-0.00,0.00,0.00,0.00
2026-06-26 17:55:27.017,994.20,994.21,0.92,1.27,0.00,1.03,0.29,9.25,-0.00,0.00,0.00,0.00
2026-06-26 17:55:27.023,994.20,994.21,0.92,1.27,0.00,1.03,0.29,9.25,0.00,-0.00,0.00,0.00
2026-06-26 17:55:27.025,994.20,994.21,0.92,1.27,0.00,1.01,0.29,9.27,0.00,-0.00,0.00,0.00
2026-06-26 17:55:27.030,994.20,994.21,0.92,1.27,0.00,1.01,0.29,9.27,0.00,-0.00,0.00,0.00
2026-06-26 17:55:27.034,994.20,994.21,0.92,1.27,0.00,1.01,0.29,9.27,0.00,0.00,0.00,0.00
2026-06-26 17:55:27.035,994.20,994.21,0.92,1.27,0.00,1.01,0.30,9.27,0.00,0.00,0.00,0.00
2026-06-26 17:55:27.037,994.20,994.21,0.92,1.27,0.00,1.01,0.30,9.27,0.00,0.00,0.00,0.00
2026-06-26 17:55:27.039,994.20,994.21,0.92,1.27,0.00,1.01,0.30,9.27,0.00,0.00,0.00,0.00
2026-06-26 17:55:27.041,994.20,994.21,0.92,1.27,0.00,1.01,0.30,9.27,0.00,0.00,0.00,0.00
2026-06-26 17:55:27.044,994.20,994.21,0.92,1.27,0.00,1.02,0.31,9.29,0.00,0.00,-0.00,0.00
2026-06-26 17:55:27.046,994.20,994.21,0.92,1.27,0.00,1.02,0.31,9.29,0.00,0.00,-0.00,0.00
2026-06-26 17:55:27.050,994.20,994.21,0.92,1.27,0.00,1.02,0.31,9.29,0.00,0.00,-0.00,0.00
2026-06-26 17:55:27.054,994.20,994.21,0.92,1.27,0.00,1.02,0.31,9.29,0.00,0.00,0.00,0.00
2026-06-26 17:55:27.056,994.20,994.21,0.92,1.27,0.00,1.02,0.31,9.29,0.00,0.00,0.00,0.00
2026-06-26 17:55:27.059,994.20,994.21,0.92,1.27,0.00,1.02,0.31,9.29,0.00,0.00,0.00,0.00
2026-06-26 17:55:27.103,994.20,994.21,0.92,1.27,0.00,1.00,0.30,9.26,0.00,0.00,-0.00,0.00
2026-06-26 17:55:27.105,994.20,994.21,0.92,1.27,0.00,1.02,0.29,9.27,0.00,-0.00,0.00,0.00
2026-06-26 17:55:27.149,994.20,994.21,1.09,1.38,0.00,1.03,0.31,9.29,-0.00,0.00,0.00,0.00
2026-06-26 17:55:27.153,994.20,994.21,1.09,1.38,0.00,1.03,0.31,9.29,-0.00,0.00,0.00,0.00
2026-06-26 17:55:27.155,994.20,994.21,1.09,1.38,0.00,1.00,0.29,9.29,-0.00,0.00,0.00,0.00
2026-06-26 17:55:27.156,994.20,994.21,1.09,1.38,0.00,1.00,0.29,9.29,-0.00,0.00,0.00,0.00
2026-06-26 17:55:27.160,994.20,994.21,1.09,1.38,0.00,1.00,0.29,9.29,-0.00,0.00,0.00,0.00
2026-06-26 17:55:27.164,994.20,994.21,1.09,1.38,0.00,1.00,0.29,9.29,0.00,-0.00,0.00,0.00
2026-06-26 17:55:27.166,994.20,994.21,1.09,1.38,0.00,1.02,0.30,9.26,0.00,-0.00,0.00,0.00
2026-06-26 17:55:27.167,994.20,994.21,1.09,1.38,0.00,1.02,0.30,9.26,0.00,-0.00,0.00,0.00
2026-06-26 17:55:27.171,994.20,994.21,1.09,1.38,0.00,1.02,0.30,9.26,0.00,-0.00,0.00,0.00
2026-06-26 17:55:27.174,994.20,994.21,1.09,1.38,0.00,1.02,0.30,9.26,0.00,-0.00,-0.00,0.00
2026-06-26 17:55:27.175,994.20,994.21,1.09,1.38,0.00,1.02,0.30,9.26,0.00,-0.00,-0.00,0.00
2026-06-26 17:55:27.177,994.20,994.21,1.09,1.38,0.00,1.02,0.30,9.26,0.00,-0.00,-0.00,0.00
2026-06-26 17:55:27.183,994.20,994.21,1.09,1.38,0.00,1.02,0.30,9.26,0.00,-0.00,-0.00,0.00
2026-06-26 17:55:27.188,994.20,994.21,1.09,1.38,0.00,1.01,0.29,9.24,0.00,0.00,-0.00,0.00
2026-06-26 17:55:27.190,994.20,994.21,1.09,1.38,0.00,1.01,0.29,9.24,0.00,0.00,-0.00,0.00
2026-06-26 17:55:27.194,994.20,994.21,1.09,1.38,0.00,1.01,0.29,9.24,0.00,0.00,0.00,0.00
2026-06-26 17:55:27.196,994.20,994.21,1.09,1.38,0.00,1.01,0.28,9.28,0.00,0.00,0.00,0.00
2026-06-26 17:55:27.197,994.20,994.21,1.09,1.38,0.00,1.01,0.28,9.28,0.00,0.00,0.00,0.00
2026-06-26 17:55:27.237,994.20,994.20,0.94,1.29,0.00,1.01,0.29,9.29,0.00,0.00,0.00,0.00
2026-06-26 17:55:27.239,994.20,994.20,0.94,1.29,0.00,1.01,0.29,9.29,0.00,0.00,0.00,0.00
2026-06-26 17:55:27.242,994.20,994.20,0.94,1.29,0.00,1.01,0.29,9.29,0.00,0.00,0.00,0.00
2026-06-26 17:55:27.244,994.20,994.20,0.94,1.29,0.00,1.03,0.31,9.31,-0.00,0.00,0.00,0.00
2026-06-26 17:55:27.246,994.20,994.20,0.94,1.29,0.00,1.03,0.31,9.31,-0.00,0.00,0.00,0.00
2026-06-26 17:55:27.289,994.19,994.20,1.12,1.40,0.00,1.01,0.31,9.25,0.00,0.00,0.00,0.00
2026-06-26 17:55:27.294,994.19,994.20,1.12,1.40,0.00,1.01,0.31,9.25,0.00,0.00,0.00,0.00
2026-06-26 17:55:27.303,994.19,994.20,1.12,1.40,0.00,1.02,0.30,9.28,0.00,0.00,0.00,0.00
2026-06-26 17:55:27.305,994.19,994.20,1.12,1.40,0.00,1.02,0.30,9.30,0.00,-0.00,0.00,0.00
2026-06-26 17:55:27.307,994.19,994.20,1.12,1.40,0.00,1.02,0.30,9.30,0.00,-0.00,0.00,0.00
2026-06-26 17:55:27.312,994.19,994.20,1.12,1.40,0.00,1.02,0.30,9.30,0.00,-0.00,0.00,0.00
2026-06-26 17:55:27.315,994.19,994.20,1.12,1.40,0.00,1.04,0.30,9.26,0.00,0.00,0.00,0.00
2026-06-26 17:55:27.317,994.19,994.20,1.12,1.40,0.00,1.04,0.30,9.26,0.00,0.00,0.00,0.00
2026-06-26 17:55:27.324,994.19,994.20,1.12,1.40,0.00,1.04,0.30,9.26,-0.00,0.00,0.00,0.00
2026-06-26 17:55:27.326,994.19,994.20,1.12,1.40,0.00,1.02,0.30,9.28,-0.00,0.00,0.00,0.00
2026-06-26 17:55:27.328,994.19,994.20,1.12,1.40,0.00,1.02,0.30,9.28,-0.00,0.00,0.00,0.00
2026-06-26 17:55:27.334,994.19,994.20,1.12,1.40,0.00,1.02,0.30,9.28,-0.00,0.00,0.00,0.00
2026-06-26 17:55:27.336,994.19,994.20,1.12,1.40,0.00,1.01,0.28,9.28,0.00,-0.00,0.00,0.00
2026-06-26 17:55:27.384,994.19,994.21,1.47,1.61,0.00,1.01,0.31,9.31,0.00,-0.00,0.00,0.00
2026-06-26 17:55:27.385,994.19,994.21,1.47,1.61,0.00,1.01,0.30,9.30,-0.00,0.00,-0.00,0.00
2026-06-26 17:55:27.387,994.19,994.21,1.47,1.61,0.00,1.01,0.30,9.30,-0.00,0.00,-0.00,0.00
2026-06-26 17:55:27.389,994.19,994.21,1.47,1.61,0.00,1.01,0.30,9.30,-0.00,0.00,-0.00,0.00
2026-06-26 17:55:27.434,994.19,994.21,1.57,1.66,0.00,1.01,0.30,9.30,0.00,0.00,0.00,0.00
2026-06-26 17:55:27.436,994.19,994.21,1.57,1.66,0.00,1.02,0.28,9.27,0.00,0.00,0.00,0.00
2026-06-26 17:55:27.437,994.19,994.21,1.57,1.66,0.00,1.02,0.28,9.27,0.00,0.00,0.00,0.00
2026-06-26 17:55:27.439,994.19,994.21,1.57,1.66,0.00,1.02,0.28,9.27,0.00,0.00,0.00,0.00
2026-06-26 17:55:27.441,994.19,994.21,1.57,1.66,0.00,1.02,0.28,9.27,0.00,0.00,0.00,0.00
2026-06-26 17:55:27.444,994.19,994.21,1.57,1.66,0.00,1.02,0.28,9.27,-0.00,0.00,0.00,0.00
2026-06-26 17:55:27.446,994.19,994.21,1.57,1.66,0.00,1.01,0.30,9.28,-0.00,0.00,0.00,0.00
2026-06-26 17:55:27.450,994.19,994.21,1.57,1.66,0.00,1.01,0.30,9.28,-0.00,0.00,0.00,0.00
2026-06-26 17:55:27.454,994.19,994.21,1.57,1.66,0.00,1.01,0.30,9.28,0.00,0.00,0.00,0.00
2026-06-26 17:55:27.456,994.19,994.21,1.57,1.66,0.00,1.03,0.30,9.27,0.00,0.00,0.00,0.00
2026-06-26 17:55:27.457,994.19,994.21,1.57,1.66,0.00,1.03,0.30,9.27,0.00,0.00,0.00,0.00
2026-06-26 17:55:27.464,994.19,994.21,1.57,1.66,0.00,1.03,0.30,9.27,0.00,0.00,0.00,0.00
2026-06-26 17:55:27.472,994.19,994.21,1.57,1.66,0.00,1.02,0.31,9.25,0.00,0.00,-0.00,0.00
2026-06-26 17:55:27.475,994.19,994.21,1.57,1.66,0.00,1.02,0.31,9.25,0.00,-0.00,0.00,0.00
2026-06-26 17:55:27.477,994.19,994.21,1.57,1.66,0.00,1.01,0.29,9.26,0.00,-0.00,0.00,0.00
2026-06-26 17:55:27.481,994.19,994.21,1.57,1.66,0.00,1.01,0.29,9.26,0.00,-0.00,0.00,0.00
2026-06-26 17:55:27.524,994.19,994.21,1.64,1.70,0.00,1.01,0.32,9.27,0.00,0.00,-0.00,0.00
2026-06-26 17:55:27.525,994.19,994.21,1.64,1.70,0.00,1.01,0.30,9.30,0.00,-0.00,0.00,0.00
2026-06-26 17:55:27.527,994.19,994.21,1.64,1.70,0.00,1.01,0.30,9.30,0.00,-0.00,0.00,0.00
2026-06-26 17:55:27.533,994.19,994.21,1.64,1.70,0.00,1.01,0.30,9.30,0.00,-0.00,0.00,0.00
2026-06-26 17:55:27.575,994.19,994.21,1.40,1.57,0.00,1.03,0.30,9.27,0.00,-0.00,0.00,0.00
2026-06-26 17:55:27.577,994.19,994.21,1.40,1.57,0.00,1.03,0.30,9.27,0.00,-0.00,0.00,0.00
2026-06-26 17:55:27.578,994.19,994.21,1.40,1.57,0.00,1.03,0.30,9.27,0.00,-0.00,0.00,0.00
2026-06-26 17:55:27.584,994.19,994.21,1.40,1.57,0.00,1.03,0.30,9.27,0.00,-0.00,0.00,0.00
2026-06-26 17:55:27.586,994.19,994.21,1.40,1.57,0.00,1.01,0.31,9.28,0.00,0.00,0.00,0.00
2026-06-26 17:55:27.588,994.19,994.21,1.40,1.57,0.00,1.01,0.31,9.28,0.00,0.00,0.00,0.00
2026-06-26 17:55:27.589,994.19,994.21,1.40,1.57,0.00,1.01,0.31,9.28,0.00,0.00,0.00,0.00
2026-06-26 17:55:27.591,994.19,994.21,1.40,1.57,0.00,1.01,0.31,9.28,0.00,0.00,0.00,0.00
2026-06-26 17:55:27.595,994.19,994.21,1.40,1.57,0.00,1.01,0.31,9.28,-0.00,0.00,0.00,0.00
2026-06-26 17:55:27.596,994.19,994.21,1.40,1.57,0.00,1.01,0.31,9.27,-0.00,0.00,0.00,0.00
2026-06-26 17:55:27.598,994.19,994.21,1.40,1.57,0.00,1.01,0.31,9.27,-0.00,0.00,0.00,0.00
2026-06-26 17:55:27.603,994.19,994.21,1.40,1.57,0.00,1.01,0.31,9.27,-0.00,0.00,0.00,0.00
2026-06-26 17:55:27.605,994.19,994.21,1.40,1.57,0.00,1.01,0.28,9.26,0.00,0.00,-0.00,0.00
2026-06-26 17:55:27.607,994.19,994.21,1.40,1.57,0.00,1.01,0.28,9.26,0.00,0.00,-0.00,0.00
2026-06-26 17:55:27.614,994.19,994.21,1.40,1.57,0.00,1.01,0.28,9.26,0.00,0.00,-0.00,0.00
2026-06-26 17:55:27.616,994.19,994.21,1.40,1.57,0.00,1.03,0.29,9.26,-0.00,-0.00,0.00,0.00
2026-06-26 17:55:27.618,994.19,994.21,1.40,1.57,0.00,1.03,0.29,9.26,-0.00,-0.00,0.00,0.00
2026-06-26 17:55:27.668,994.19,994.21,1.50,1.62,0.00,1.02,0.28,9.27,0.00,0.00,-0.00,0.00
2026-06-26 17:55:27.674,994.19,994.21,1.50,1.62,0.00,1.02,0.29,9.26,0.00,0.00,-0.00,0.00
2026-06-26 17:55:27.717,994.19,994.21,1.56,1.66,0.00,1.01,0.29,9.28,0.00,-0.00,0.00,0.00
2026-06-26 17:55:27.720,994.19,994.21,1.56,1.66,0.00,1.01,0.29,9.28,0.00,-0.00,0.00,0.00
2026-06-26 17:55:27.725,994.19,994.21,1.56,1.66,0.00,1.01,0.29,9.28,0.00,0.00,0.00,0.00
2026-06-26 17:55:27.726,994.19,994.21,1.56,1.66,0.00,1.00,0.29,9.28,0.00,0.00,0.00,0.00
2026-06-26 17:55:27.732,994.19,994.21,1.56,1.66,0.00,1.00,0.29,9.28,0.00,0.00,0.00,0.00
2026-06-26 17:55:27.735,994.19,994.21,1.56,1.66,0.00,1.00,0.29,9.28,0.00,0.00,0.00,0.00
2026-06-26 17:55:27.737,994.19,994.21,1.56,1.66,0.00,1.02,0.30,9.27,0.00,0.00,0.00,0.00
2026-06-26 17:55:27.739,994.19,994.21,1.56,1.66,0.00,1.02,0.30,9.27,0.00,0.00,0.00,0.00
2026-06-26 17:55:27.741,994.19,994.21,1.56,1.66,0.00,1.02,0.30,9.27,0.00,0.00,0.00,0.00
2026-06-26 17:55:27.744,994.19,994.21,1.56,1.66,0.00,1.02,0.30,9.27,0.00,0.00,0.00,0.00
2026-06-26 17:55:27.746,994.19,994.21,1.56,1.66,0.00,1.04,0.29,9.29,0.00,-0.00,0.00,0.00
2026-06-26 17:55:27.747,994.19,994.21,1.56,1.66,0.00,1.04,0.29,9.29,0.00,-0.00,0.00,0.00
2026-06-26 17:55:27.749,994.19,994.21,1.56,1.66,0.00,1.04,0.29,9.29,0.00,-0.00,0.00,0.00
2026-06-26 17:55:27.754,994.19,994.21,1.56,1.66,0.00,1.04,0.29,9.29,0.00,-0.00,0.00,0.00
2026-06-26 17:55:27.756,994.19,994.21,1.56,1.66,0.00,1.01,0.28,9.27,0.00,-0.00,0.00,0.00
2026-06-26 17:55:27.758,994.19,994.21,1.56,1.66,0.00,1.01,0.28,9.27,0.00,-0.00,0.00,0.00
2026-06-26 17:55:27.764,994.19,994.21,1.56,1.66,0.00,1.01,0.28,9.27,0.00,-0.00,0.00,0.00
2026-06-26 17:55:27.805,994.19,994.21,1.91,1.83,0.00,1.02,0.30,9.29,0.00,0.00,-0.00,0.00
2026-06-26 17:55:27.807,994.19,994.21,1.91,1.83,0.00,1.02,0.31,9.28,0.00,0.00,-0.00,0.00
2026-06-26 17:55:27.809,994.19,994.21,1.91,1.83,0.00,1.02,0.31,9.28,0.00,0.00,-0.00,0.00
2026-06-26 17:55:27.815,994.19,994.21,1.91,1.83,0.00,1.02,0.31,9.28,0.00,0.00,-0.00,0.00
2026-06-26 17:55:27.817,994.19,994.21,1.91,1.83,0.00,1.02,0.30,9.27,0.00,0.00,-0.00,0.00
2026-06-26 17:55:27.858,994.19,994.21,2.26,1.99,0.00,1.01,0.31,9.27,0.00,0.00,0.00,0.00
2026-06-26 17:55:27.864,994.19,994.21,2.26,1.99,0.00,1.01,0.31,9.27,0.00,0.00,0.00,0.00
2026-06-26 17:55:27.866,994.19,994.21,2.26,1.99,0.00,1.02,0.30,9.25,0.00,-0.00,-0.00,0.00
2026-06-26 17:55:27.868,994.19,994.21,2.26,1.99,0.00,1.02,0.30,9.25,0.00,-0.00,-0.00,0.00
2026-06-26 17:55:27.870,994.19,994.21,2.26,1.99,0.00,1.02,0.30,9.25,0.00,-0.00,-0.00,0.00
2026-06-26 17:55:27.875,994.19,994.21,2.26,1.99,0.00,1.02,0.30,9.25,0.00,-0.00,0.00,0.00
2026-06-26 17:55:27.877,994.19,994.21,2.26,1.99,0.00,1.00,0.29,9.29,0.00,-0.00,0.00,0.00
2026-06-26 17:55:27.882,994.19,994.21,2.26,1.99,0.00,1.00,0.29,9.29,0.00,-0.00,0.00,0.00
2026-06-26 17:55:27.887,994.19,994.21,2.26,1.99,0.00,1.00,0.29,9.29,0.00,0.00,-0.00,0.00
2026-06-26 17:55:27.889,994.19,994.21,2.26,1.99,0.00,1.00,0.30,9.30,0.00,0.00,-0.00,0.00
2026-06-26 17:55:27.891,994.19,994.21,2.26,1.99,0.00,1.00,0.30,9.30,0.00,0.00,-0.00,0.00
2026-06-26 17:55:27.895,994.19,994.21,2.26,1.99,0.00,1.00,0.30,9.30,-0.00,0.00,0.00,0.00
2026-06-26 17:55:27.897,994.19,994.21,2.26,1.99,0.00,1.03,0.30,9.28,-0.00,0.00,0.00,0.00
2026-06-26 17:55:27.898,994.19,994.21,2.26,1.99,0.00,1.03,0.30,9.28,-0.00,0.00,0.00,0.00
2026-06-26 17:55:27.904,994.19,994.21,2.26,1.99,0.00,1.03,0.30,9.28,-0.00,0.00,0.00,0.00
2026-06-26 17:55:27.945,994.19,994.21,1.82,1.79,0.00,1.01,0.28,9.28,0.00,0.00,0.00,0.00
2026-06-26 17:55:27.947,994.19,994.21,1.82,1.79,0.00,1.01,0.28,9.29,0.00,0.00,0.00,0.00
2026-06-26 17:55:27.949,994.19,994.21,1.82,1.79,0.00,1.01,0.28,9.29,0.00,0.00,0.00,0.00
2026-06-26 17:55:27.953,994.19,994.21,1.82,1.79,0.00,1.01,0.28,9.29,0.00,0.00,0.00,0.00
2026-06-26 17:55:27.956,994.19,994.21,1.82,1.79,0.00,1.01,0.30,9.30,0.00,0.00,0.00,0.00
2026-06-26 17:55:28.004,994.19,994.21,1.55,1.65,0.00,1.00,0.29,9.29,0.00,-0.00,-0.00,0.00
2026-06-26 17:55:28.006,994.19,994.21,1.55,1.65,0.00,1.01,0.29,9.28,0.00,-0.00,0.00,0.00
2026-06-26 17:55:28.007,994.19,994.21,1.55,1.65,0.00,1.01,0.29,9.28,0.00,-0.00,0.00,0.00
2026-06-26 17:55:28.009,994.19,994.21,1.55,1.65,0.00,1.01,0.29,9.28,0.00,-0.00,0.00,0.00
2026-06-26 17:55:28.015,994.19,994.21,1.55,1.65,0.00,1.01,0.29,9.28,0.00,-0.00,0.00,0.00
2026-06-26 17:55:28.017,994.19,994.21,1.55,1.65,0.00,1.00,0.28,9.27,0.00,0.00,-0.00,0.00
2026-06-26 17:55:28.019,994.19,994.21,1.55,1.65,0.00,1.00,0.28,9.27,0.00,0.00,-0.00,0.00
2026-06-26 17:55:28.024,994.19,994.21,1.55,1.65,0.00,1.00,0.28,9.27,0.00,0.00,-0.00,0.00
2026-06-26 17:55:28.026,994.19,994.21,1.55,1.65,0.00,1.01,0.29,9.27,0.00,0.00,0.00,0.00
2026-06-26 17:55:28.028,994.19,994.21,1.55,1.65,0.00,1.01,0.29,9.27,0.00,0.00,0.00,0.00
2026-06-26 17:55:28.033,994.19,994.21,1.55,1.65,0.00,1.01,0.29,9.27,0.00,0.00,0.00,0.00
2026-06-26 17:55:28.036,994.19,994.21,1.55,1.65,0.00,1.01,0.29,9.27,0.00,0.00,0.00,0.00
2026-06-26 17:55:28.042,994.19,994.21,1.55,1.65,0.00,1.01,0.29,9.28,0.00,0.00,0.00,0.00
2026-06-26 17:55:28.087,994.19,994.21,1.73,1.74,0.00,1.00,0.30,9.27,-0.00,-0.00,0.00,0.00
2026-06-26 17:55:28.089,994.19,994.21,1.73,1.74,0.00,1.00,0.30,9.27,-0.00,-0.00,0.00,0.00
2026-06-26 17:55:28.091,994.19,994.21,1.73,1.74,0.00,1.00,0.30,9.27,-0.00,-0.00,0.00,0.00
2026-06-26 17:55:28.094,994.19,994.21,1.73,1.74,0.00,1.00,0.30,9.27,-0.00,-0.00,0.00,0.00
2026-06-26 17:55:28.096,994.19,994.21,1.73,1.74,0.00,1.01,0.30,9.30,-0.00,0.00,0.00,0.00
2026-06-26 17:55:28.099,994.19,994.21,1.73,1.74,0.00,1.01,0.30,9.30,-0.00,0.00,0.00,0.00
2026-06-26 17:55:28.142,994.19,994.21,1.90,1.83,0.00,1.03,0.29,9.30,-0.00,0.00,-0.00,0.00
2026-06-26 17:55:28.146,994.19,994.21,1.90,1.83,0.00,1.03,0.29,9.30,-0.00,0.00,0.00,0.00
2026-06-26 17:55:28.147,994.19,994.21,1.90,1.83,0.00,1.02,0.30,9.29,-0.00,0.00,0.00,0.00
2026-06-26 17:55:28.149,994.19,994.21,1.90,1.83,0.00,1.02,0.30,9.29,-0.00,0.00,0.00,0.00
2026-06-26 17:55:28.154,994.19,994.21,1.90,1.83,0.00,1.02,0.30,9.29,-0.00,0.00,0.00,0.00
2026-06-26 17:55:28.156,994.19,994.21,1.90,1.83,0.00,1.01,0.30,9.27,-0.00,0.00,0.00,0.00
2026-06-26 17:55:28.159,994.19,994.21,1.90,1.83,0.00,1.01,0.30,9.27,-0.00,0.00,0.00,0.00
2026-06-26 17:55:28.165,994.19,994.21,1.90,1.83,0.00,1.01,0.30,9.27,-0.00,0.00,0.00,0.00
2026-06-26 17:55:28.167,994.19,994.21,1.90,1.83,0.00,1.01,0.29,9.27,-0.00,-0.00,-0.00,0.00
2026-06-26 17:55:28.168,994.19,994.21,1.90,1.83,0.00,1.01,0.29,9.27,-0.00,-0.00,-0.00,0.00
2026-06-26 17:55:28.170,994.19,994.21,1.90,1.83,0.00,1.01,0.29,9.27,-0.00,-0.00,-0.00,0.00
2026-06-26 17:55:28.176,994.19,994.21,1.90,1.83,0.00,1.01,0.29,9.27,-0.00,-0.00,0.00,0.00
2026-06-26 17:55:28.177,994.19,994.21,1.90,1.83,0.00,1.04,0.31,9.30,-0.00,-0.00,0.00,0.00
2026-06-26 17:55:28.182,994.19,994.21,1.90,1.83,0.00,1.04,0.31,9.30,-0.00,-0.00,0.00,0.00
2026-06-26 17:55:28.186,994.19,994.21,1.90,1.83,0.00,1.04,0.31,9.30,-0.00,-0.00,0.00,0.00
2026-06-26 17:55:28.229,994.19,994.21,1.69,1.73,0.00,1.00,0.29,9.27,-0.00,-0.00,-0.00,0.00
2026-06-26 17:55:28.235,994.19,994.21,1.69,1.73,0.00,1.00,0.29,9.27,-0.00,-0.00,-0.00,0.00
2026-06-26 17:55:28.237,994.19,994.21,1.69,1.73,0.00,1.02,0.31,9.26,-0.00,0.00,0.00,0.00
2026-06-26 17:55:28.239,994.19,994.21,1.69,1.73,0.00,1.02,0.31,9.26,-0.00,0.00,0.00,0.00
2026-06-26 17:55:28.240,994.19,994.21,1.69,1.73,0.00,1.02,0.31,9.26,-0.00,0.00,0.00,0.00
2026-06-26 17:55:28.286,994.20,994.21,1.29,1.50,0.00,0.99,0.30,9.26,-0.00,-0.00,0.00,0.00
2026-06-26 17:55:28.287,994.20,994.21,1.29,1.50,0.00,1.01,0.29,9.29,-0.00,-0.00,0.00,0.00
2026-06-26 17:55:28.289,994.20,994.21,1.29,1.50,0.00,1.01,0.29,9.29,-0.00,-0.00,0.00,0.00
2026-06-26 17:55:28.291,994.20,994.21,1.29,1.50,0.00,1.01,0.29,9.29,-0.00,-0.00,0.00,0.00
2026-06-26 17:55:28.292,994.20,994.21,1.29,1.50,0.00,1.01,0.29,9.29,-0.00,-0.00,0.00,0.00
2026-06-26 17:55:28.296,994.20,994.21,1.29,1.50,0.00,1.01,0.29,9.29,-0.00,-0.00,0.00,0.00
2026-06-26 17:55:28.298,994.20,994.21,1.29,1.50,0.00,1.00,0.28,9.27,-0.00,-0.00,0.00,0.00
2026-06-26 17:55:28.300,994.20,994.21,1.29,1.50,0.00,1.00,0.28,9.27,-0.00,-0.00,0.00,0.00
2026-06-26 17:55:28.306,994.20,994.21,1.29,1.50,0.00,1.00,0.28,9.27,-0.00,-0.00,0.00,0.00
2026-06-26 17:55:28.307,994.20,994.21,1.29,1.50,0.00,0.97,0.31,9.27,-0.00,-0.00,0.00,0.00
2026-06-26 17:55:28.313,994.20,994.21,1.29,1.50,0.00,0.97,0.31,9.27,-0.00,-0.00,0.00,0.00
2026-06-26 17:55:28.316,994.20,994.21,1.29,1.50,0.00,0.97,0.31,9.27,-0.00,0.00,0.00,0.00
2026-06-26 17:55:28.318,994.20,994.21,1.29,1.50,0.00,1.01,0.28,9.28,-0.00,0.00,0.00,0.00
2026-06-26 17:55:28.325,994.20,994.21,1.29,1.50,0.00,1.01,0.28,9.28,-0.00,0.00,0.00,0.00
2026-06-26 17:55:28.333,994.20,994.21,1.29,1.50,0.00,1.03,0.32,9.27,-0.00,-0.00,0.00,0.00
2026-06-26 17:55:28.377,994.20,994.21,1.32,1.52,0.00,1.01,0.30,9.27,-0.00,-0.00,0.00,0.00
2026-06-26 17:55:28.379,994.20,994.21,1.32,1.52,0.00,1.01,0.30,9.27,-0.00,-0.00,0.00,0.00
2026-06-26 17:55:28.385,994.20,994.21,1.32,1.52,0.00,1.01,0.30,9.27,-0.00,-0.00,0.00,0.00
2026-06-26 17:55:28.428,994.19,994.21,1.90,1.83,0.00,1.02,0.31,9.30,-0.00,0.00,0.00,0.00
2026-06-26 17:55:28.429,994.19,994.21,1.90,1.83,0.00,1.02,0.31,9.30,-0.00,0.00,0.00,0.00
2026-06-26 17:55:28.434,994.19,994.21,1.90,1.83,0.00,1.02,0.31,9.30,-0.00,0.00,0.00,0.00
2026-06-26 17:55:28.437,994.19,994.21,1.90,1.83,0.00,1.02,0.31,9.30,0.00,0.00,0.00,0.00
2026-06-26 17:55:28.438,994.19,994.21,1.90,1.83,0.00,1.02,0.30,9.30,0.00,0.00,0.00,0.00
2026-06-26 17:55:28.440,994.19,994.21,1.90,1.83,0.00,1.02,0.30,9.30,0.00,0.00,0.00,0.00
2026-06-26 17:55:28.443,994.19,994.21,1.90,1.83,0.00,1.02,0.30,9.30,0.00,0.00,0.00,0.00
2026-06-26 17:55:28.446,994.19,994.21,1.90,1.83,0.00,1.02,0.30,9.30,-0.00,-0.00,-0.00,0.00
2026-06-26 17:55:28.448,994.19,994.21,1.90,1.83,0.00,1.01,0.29,9.28,-0.00,-0.00,-0.00,0.00
2026-06-26 17:55:28.453,994.19,994.21,1.90,1.83,0.00,1.01,0.29,9.28,-0.00,-0.00,-0.00,0.00
2026-06-26 17:55:28.456,994.19,994.21,1.90,1.83,0.00,1.01,0.29,9.28,0.00,0.00,0.00,0.00
2026-06-26 17:55:28.458,994.19,994.21,1.90,1.83,0.00,1.01,0.31,9.28,0.00,0.00,0.00,0.00
2026-06-26 17:55:28.459,994.19,994.21,1.90,1.83,0.00,1.01,0.31,9.28,0.00,0.00,0.00,0.00
2026-06-26 17:55:28.464,994.19,994.21,1.90,1.83,0.00,1.01,0.31,9.28,0.00,0.00,0.00,0.00
2026-06-26 17:55:28.467,994.19,994.21,1.90,1.83,0.00,1.01,0.29,9.26,-0.00,0.00,-0.00,0.00
2026-06-26 17:55:28.468,994.19,994.21,1.90,1.83,0.00,1.01,0.29,9.26,-0.00,0.00,-0.00,0.00
2026-06-26 17:55:28.470,994.19,994.21,1.90,1.83,0.00,1.01,0.29,9.26,-0.00,0.00,-0.00,0.00
2026-06-26 17:55:28.476,994.19,994.21,1.90,1.83,0.00,1.01,0.29,9.26,-0.00,0.00,-0.00,0.00
2026-06-26 17:55:28.526,994.19,994.21,2.25,1.99,0.00,1.01,0.29,9.27,0.00,-0.00,-0.00,0.00
2026-06-26 17:55:28.568,994.19,994.21,2.01,1.88,0.00,1.03,0.29,9.27,0.00,0.00,0.00,0.00
2026-06-26 17:55:28.570,994.19,994.21,2.01,1.88,0.00,1.03,0.29,9.27,0.00,0.00,0.00,0.00
