timestamp,pressure_bag,pressure_bme,diff_pressure,v_wind_est,speed,accel_x,accel_y,accel_z,gyro_x,gyro_y,gyro_z,power
2026-06-26 18:38:24.387,994.18,994.15,-3.21,-2.38,0.00,1.44,0.22,9.19,0.00,0.00,-0.00,0.00
2026-06-26 18:38:24.392,994.18,994.15,-3.21,-2.38,0.00,1.44,0.23,9.19,0.00,0.00,-0.00,0.00
2026-06-26 18:38:24.397,994.18,994.15,-3.21,-2.38,0.00,1.44,0.23,9.19,-0.00,0.00,0.00,0.00
2026-06-26 18:38:24.399,994.18,994.15,-3.21,-2.38,0.00,1.44,0.22,9.21,-0.00,0.00,0.00,0.00
2026-06-26 18:38:24.403,994.18,994.15,-3.21,-2.38,0.00,1.44,0.22,9.21,-0.00,0.00,0.00,0.00
2026-06-26 18:38:24.407,994.18,994.15,-3.21,-2.38,0.00,1.44,0.22,9.21,-0.00,-0.00,0.00,0.00
2026-06-26 18:38:24.409,994.18,994.15,-3.21,-2.38,0.00,1.44,0.23,9.25,-0.00,-0.00,0.00,0.00
2026-06-26 18:38:24.411,994.18,994.15,-3.21,-2.38,0.00,1.44,0.23,9.25,-0.00,-0.00,0.00,0.00
2026-06-26 18:38:24.416,994.18,994.15,-3.21,-2.38,0.00,1.44,0.23,9.25,-0.00,-0.00,0.00,0.00
2026-06-26 18:38:24.418,994.18,994.15,-3.21,-2.38,0.00,1.43,0.22,9.20,0.00,0.00,0.00,0.00
2026-06-26 18:38:24.419,994.18,994.15,-3.21,-2.38,0.00,1.43,0.22,9.20,0.00,0.00,0.00,0.00
2026-06-26 18:38:24.420,994.18,994.15,-3.21,-2.38,0.00,1.43,0.22,9.20,0.00,0.00,0.00,0.00
2026-06-26 18:38:24.421,994.18,994.15,-3.21,-2.38,0.00,1.43,0.22,9.20,0.00,0.00,0.00,0.00
2026-06-26 18:38:24.424,994.18,994.15,-3.21,-2.38,0.00,1.43,0.22,9.20,0.00,0.00,0.00,0.00
2026-06-26 18:38:24.427,994.18,994.15,-3.21,-2.38,0.00,1.43,0.22,9.20,-0.00,0.00,-0.00,0.00
2026-06-26 18:38:24.428,994.18,994.15,-3.21,-2.38,0.00,1.43,0.23,9.21,-0.00,0.00,-0.00,0.00
2026-06-26 18:38:24.430,994.18,994.15,-3.21,-2.38,0.00,1.43,0.23,9.21,-0.00,0.00,-0.00,0.00
2026-06-26 18:38:24.434,994.18,994.15,-3.21,-2.38,0.00,1.43,0.23,9.21,-0.00,0.00,-0.00,0.00
2026-06-26 18:38:24.437,994.18,994.15,-3.21,-2.38,0.00,1.43,0.23,9.21,-0.00,-0.00,0.00,0.00
2026-06-26 18:38:24.438,994.18,994.15,-3.21,-2.38,0.00,1.44,0.22,9.23,-0.00,-0.00,0.00,0.00
2026-06-26 18:38:24.487,994.18,994.15,-3.16,-2.36,0.00,1.45,0.22,9.20,0.00,-0.00,-0.00,0.00
2026-06-26 18:38:24.529,994.17,994.15,-2.64,-2.15,0.00,1.44,0.22,9.20,0.00,-0.00,0.00,0.00
2026-06-26 18:38:24.530,994.17,994.15,-2.64,-2.15,0.00,1.44,0.22,9.20,0.00,-0.00,0.00,0.00
2026-06-26 18:38:24.532,994.17,994.15,-2.64,-2.15,0.00,1.44,0.22,9.20,0.00,-0.00,0.00,0.00
2026-06-26 18:38:24.537,994.17,994.15,-2.64,-2.15,0.00,1.44,0.22,9.20,0.00,-0.00,0.00,0.00
2026-06-26 18:38:24.539,994.17,994.15,-2.64,-2.15,0.00,1.45,0.19,9.22,0.00,-0.00,0.00,0.00
2026-06-26 18:38:24.540,994.17,994.15,-2.64,-2.15,0.00,1.45,0.19,9.22,0.00,-0.00,0.00,0.00
2026-06-26 18:38:24.543,994.17,994.15,-2.64,-2.15,0.00,1.45,0.19,9.22,0.00,-0.00,0.00,0.00
2026-06-26 18:38:24.548,994.17,994.15,-2.64,-2.15,0.00,1.45,0.19,9.22,-0.00,-0.00,-0.00,0.00
2026-06-26 18:38:24.550,994.17,994.15,-2.64,-2.15,0.00,1.45,0.23,9.21,-0.00,-0.00,-0.00,0.00
2026-06-26 18:38:24.556,994.17,994.15,-2.64,-2.15,0.00,1.45,0.23,9.21,-0.00,-0.00,-0.00,0.00
2026-06-26 18:38:24.558,994.17,994.15,-2.64,-2.15,0.00,1.44,0.23,9.21,-0.00,0.00,0.00,0.00
2026-06-26 18:38:24.560,994.17,994.15,-2.64,-2.15,0.00,1.44,0.23,9.21,-0.00,0.00,0.00,0.00
2026-06-26 18:38:24.564,994.17,994.15,-2.64,-2.15,0.00,1.44,0.23,9.21,-0.00,0.00,0.00,0.00
2026-06-26 18:38:24.568,994.17,994.15,-2.64,-2.15,0.00,1.44,0.23,9.21,0.00,0.00,0.00,0.00
2026-06-26 18:38:24.570,994.17,994.15,-2.64,-2.15,0.00,1.45,0.21,9.20,0.00,0.00,0.00,0.00
2026-06-26 18:38:24.571,994.17,994.15,-2.64,-2.15,0.00,1.45,0.21,9.20,0.00,0.00,0.00,0.00
2026-06-26 18:38:24.577,994.17,994.15,-2.64,-2.15,0.00,1.45,0.21,9.20,0.00,0.00,0.00,0.00
2026-06-26 18:38:24.578,994.17,994.15,-2.64,-2.15,0.00,1.45,0.22,9.22,0.00,-0.00,-0.00,0.00
2026-06-26 18:38:24.580,994.17,994.15,-2.64,-2.15,0.00,1.45,0.22,9.22,0.00,-0.00,-0.00,0.00
2026-06-26 18:38:24.581,994.17,994.15,-2.64,-2.15,0.00,1.45,0.22,9.22,0.00,-0.00,-0.00,0.00
2026-06-26 18:38:24.627,994.17,994.15,-2.72,-2.19,0.00,1.43,0.24,9.19,-0.00,0.00,-0.00,0.00
2026-06-26 18:38:24.629,994.17,994.15,-2.72,-2.19,0.00,1.45,0.22,9.19,-0.00,0.00,-0.00,0.00
2026-06-26 18:38:24.670,994.17,994.15,-2.29,-2.01,0.00,1.45,0.22,9.21,0.00,-0.00,0.00,0.00
2026-06-26 18:38:24.673,994.17,994.15,-2.29,-2.01,0.00,1.45,0.22,9.21,0.00,-0.00,0.00,0.00
2026-06-26 18:38:24.677,994.17,994.15,-2.29,-2.01,0.00,1.45,0.22,9.21,0.00,0.00,0.00,0.00
2026-06-26 18:38:24.678,994.17,994.15,-2.29,-2.01,0.00,1.44,0.21,9.18,0.00,0.00,0.00,0.00
2026-06-26 18:38:24.680,994.17,994.15,-2.29,-2.01,0.00,1.44,0.21,9.18,0.00,0.00,0.00,0.00
2026-06-26 18:38:24.681,994.17,994.15,-2.29,-2.01,0.00,1.44,0.21,9.18,0.00,0.00,0.00,0.00
2026-06-26 18:38:24.683,994.17,994.15,-2.29,-2.01,0.00,1.44,0.21,9.18,0.00,0.00,0.00,0.00
2026-06-26 18:38:24.687,994.17,994.15,-2.29,-2.01,0.00,1.44,0.21,9.18,0.00,0.00,-0.00,0.00
2026-06-26 18:38:24.690,994.17,994.15,-2.29,-2.01,0.00,1.44,0.20,9.18,0.00,0.00,-0.00,0.00
2026-06-26 18:38:24.692,994.17,994.15,-2.29,-2.01,0.00,1.44,0.20,9.18,0.00,0.00,-0.00,0.00
2026-06-26 18:38:24.696,994.17,994.15,-2.29,-2.01,0.00,1.44,0.20,9.18,0.00,0.00,-0.00,0.00
2026-06-26 18:38:24.699,994.17,994.15,-2.29,-2.01,0.00,1.44,0.21,9.22,-0.00,0.00,0.00,0.00
2026-06-26 18:38:24.702,994.17,994.15,-2.29,-2.01,0.00,1.44,0.21,9.22,-0.00,0.00,0.00,0.00
2026-06-26 18:38:24.708,994.17,994.15,-2.29,-2.01,0.00,1.44,0.21,9.22,0.00,0.00,0.00,0.00
2026-06-26 18:38:24.711,994.17,994.15,-2.29,-2.01,0.00,1.45,0.21,9.18,0.00,0.00,0.00,0.00
2026-06-26 18:38:24.717,994.17,994.15,-2.29,-2.01,0.00,1.45,0.21,9.18,0.00,0.00,0.00,0.00
2026-06-26 18:38:24.718,994.17,994.15,-2.29,-2.01,0.00,1.45,0.21,9.19,0.00,0.00,0.00,0.00
2026-06-26 18:38:24.720,994.17,994.15,-2.29,-2.01,0.00,1.45,0.21,9.19,0.00,0.00,0.00,0.00
2026-06-26 18:38:24.722,994.17,994.15,-2.29,-2.01,0.00,1.45,0.21,9.19,0.00,0.00,0.00,0.00
2026-06-26 18:38:24.729,994.17,994.15,-2.29,-2.01,0.00,1.45,0.21,9.19,0.00,0.00,0.00,0.00
2026-06-26 18:38:24.768,994.17,994.15,-2.16,-1.95,0.00,1.46,0.22,9.19,-0.00,0.00,0.00,0.00
2026-06-26 18:38:24.769,994.17,994.15,-2.16,-1.95,0.00,1.45,0.22,9.17,-0.00,0.00,0.00,0.00
2026-06-26 18:38:24.809,994.17,994.15,-2.28,-2.00,0.00,1.44,0.24,9.23,-0.00,0.00,0.00,0.00
2026-06-26 18:38:24.811,994.17,994.15,-2.28,-2.00,0.00,1.44,0.24,9.23,-0.00,0.00,0.00,0.00
2026-06-26 18:38:24.815,994.17,994.15,-2.28,-2.00,0.00,1.44,0.24,9.23,-0.00,0.00,0.00,0.00
2026-06-26 18:38:24.818,994.17,994.15,-2.28,-2.00,0.00,1.44,0.24,9.23,-0.00,0.00,0.00,0.00
2026-06-26 18:38:24.820,994.17,994.15,-2.28,-2.00,0.00,1.46,0.22,9.18,-0.00,0.00,0.00,0.00
2026-06-26 18:38:24.821,994.17,994.15,-2.28,-2.00,0.00,1.46,0.22,9.18,-0.00,0.00,0.00,0.00
2026-06-26 18:38:24.823,994.17,994.15,-2.28,-2.00,0.00,1.46,0.22,9.18,-0.00,0.00,0.00,0.00
2026-06-26 18:38:24.827,994.17,994.15,-2.28,-2.00,0.00,1.46,0.22,9.18,-0.00,0.00,0.00,0.00
2026-06-26 18:38:24.829,994.17,994.15,-2.28,-2.00,0.00,1.45,0.23,9.21,-0.00,0.00,0.00,0.00
2026-06-26 18:38:24.830,994.17,994.15,-2.28,-2.00,0.00,1.45,0.23,9.21,-0.00,0.00,0.00,0.00
2026-06-26 18:38:24.831,994.17,994.15,-2.28,-2.00,0.00,1.45,0.23,9.21,-0.00,0.00,0.00,0.00
2026-06-26 18:38:24.836,994.17,994.15,-2.28,-2.00,0.00,1.45,0.23,9.21,-0.00,0.00,0.00,0.00
2026-06-26 18:38:24.838,994.17,994.15,-2.28,-2.00,0.00,1.45,0.22,9.22,-0.00,0.00,0.00,0.00
2026-06-26 18:38:24.840,994.17,994.15,-2.28,-2.00,0.00,1.45,0.22,9.22,-0.00,0.00,0.00,0.00
2026-06-26 18:38:24.841,994.17,994.15,-2.28,-2.00,0.00,1.45,0.22,9.22,-0.00,0.00,0.00,0.00
2026-06-26 18:38:24.842,994.17,994.15,-2.28,-2.00,0.00,1.45,0.22,9.22,-0.00,0.00,0.00,0.00
2026-06-26 18:38:24.844,994.17,994.15,-2.28,-2.00,0.00,1.45,0.22,9.22,-0.00,0.00,0.00,0.00
2026-06-26 18:38:24.845,994.17,994.15,-2.28,-2.00,0.00,1.45,0.22,9.22,-0.00,0.00,0.00,0.00
2026-06-26 18:38:24.846,994.17,994.15,-2.28,-2.00,0.00,1.45,0.22,9.22,-0.00,0.00,0.00,0.00
2026-06-26 18:38:24.848,994.17,994.15,-2.28,-2.00,0.00,1.46,0.22,9.20,-0.00,0.00,0.00,0.00
2026-06-26 18:38:24.849,994.17,994.15,-2.28,-2.00,0.00,1.46,0.22,9.20,-0.00,0.00,0.00,0.00
2026-06-26 18:38:24.851,994.17,994.15,-2.28,-2.00,0.00,1.46,0.22,9.20,-0.00,0.00,0.00,0.00
2026-06-26 18:38:24.853,994.17,994.15,-2.28,-2.00,0.00,1.46,0.22,9.20,-0.00,0.00,0.00,0.00
2026-06-26 18:38:24.858,994.17,994.15,-2.28,-2.00,0.00,1.46,0.22,9.20,0.00,0.00,-0.00,0.00
2026-06-26 18:38:24.859,994.17,994.15,-2.28,-2.00,0.00,1.42,0.22,9.23,0.00,0.00,-0.00,0.00
2026-06-26 18:38:24.861,994.17,994.15,-2.28,-2.00,0.00,1.42,0.22,9.23,0.00,0.00,-0.00,0.00
2026-06-26 18:38:24.862,994.17,994.15,-2.28,-2.00,0.00,1.42,0.22,9.23,0.00,0.00,-0.00,0.00
2026-06-26 18:38:24.866,994.17,994.15,-2.28,-2.00,0.00,1.42,0.22,9.23,0.00,0.00,-0.00,0.00
2026-06-26 18:38:24.908,994.17,994.14,-2.64,-2.16,0.00,1.43,0.22,9.18,-0.00,-0.00,0.00,0.00
2026-06-26 18:38:24.951,994.17,994.14,-2.65,-2.16,0.00,1.44,0.22,9.22,0.00,0.00,-0.00,0.00
2026-06-26 18:38:24.955,994.17,994.14,-2.65,-2.16,0.00,1.44,0.22,9.22,0.00,0.00,-0.00,0.00
2026-06-26 18:38:24.958,994.17,994.14,-2.65,-2.16,0.00,1.44,0.22,9.22,-0.00,0.00,0.00,0.00
2026-06-26 18:38:24.959,994.17,994.14,-2.65,-2.16,0.00,1.43,0.22,9.18,-0.00,0.00,0.00,0.00
2026-06-26 18:38:24.961,994.17,994.14,-2.65,-2.16,0.00,1.43,0.22,9.18,-0.00,0.00,0.00,0.00
2026-06-26 18:38:24.965,994.17,994.14,-2.65,-2.16,0.00,1.43,0.22,9.18,-0.00,0.00,0.00,0.00
2026-06-26 18:38:24.968,994.17,994.14,-2.65,-2.16,0.00,1.43,0.22,9.18,-0.00,0.00,-0.00,0.00
2026-06-26 18:38:24.970,994.17,994.14,-2.65,-2.16,0.00,1.44,0.22,9.21,-0.00,0.00,-0.00,0.00
2026-06-26 18:38:24.971,994.17,994.14,-2.65,-2.16,0.00,1.44,0.22,9.21,-0.00,0.00,-0.00,0.00
2026-06-26 18:38:24.972,994.17,994.14,-2.65,-2.16,0.00,1.44,0.22,9.21,-0.00,0.00,-0.00,0.00
2026-06-26 18:38:24.977,994.17,994.14,-2.65,-2.16,0.00,1.44,0.22,9.21,-0.00,0.00,-0.00,0.00
2026-06-26 18:38:24.979,994.17,994.14,-2.65,-2.16,0.00,1.43,0.21,9.22,0.00,-0.00,0.00,0.00
2026-06-26 18:38:24.981,994.17,994.14,-2.65,-2.16,0.00,1.43,0.21,9.22,0.00,-0.00,0.00,0.00
2026-06-26 18:38:24.982,994.17,994.14,-2.65,-2.16,0.00,1.43,0.21,9.22,0.00,-0.00,0.00,0.00
2026-06-26 18:38:24.987,994.17,994.14,-2.65,-2.16,0.00,1.43,0.21,9.22,0.00,-0.00,0.00,0.00
2026-06-26 18:38:24.989,994.17,994.14,-2.65,-2.16,0.00,1.46,0.23,9.25,-0.00,0.00,0.00,0.00
2026-06-26 18:38:24.990,994.17,994.14,-2.65,-2.16,0.00,1.46,0.23,9.25,-0.00,0.00,0.00,0.00
2026-06-26 18:38:24.991,994.17,994.14,-2.65,-2.16,0.00,1.46,0.23,9.25,-0.00,0.00,0.00,0.00
2026-06-26 18:38:24.992,994.17,994.14,-2.65,-2.16,0.00,1.46,0.23,9.25,-0.00,0.00,0.00,0.00
2026-06-26 18:38:24.994,994.17,994.14,-2.65,-2.16,0.00,1.46,0.23,9.25,-0.00,0.00,0.00,0.00
2026-06-26 18:38:24.995,994.17,994.14,-2.65,-2.16,0.00,1.46,0.23,9.25,-0.00,0.00,0.00,0.00
2026-06-26 18:38:24.998,994.17,994.14,-2.65,-2.16,0.00,1.46,0.23,9.25,-0.00,0.00,0.00,0.00
2026-06-26 18:38:24.999,994.17,994.14,-2.65,-2.16,0.00,1.42,0.23,9.22,-0.00,0.00,0.00,0.00
2026-06-26 18:38:24.000,994.17,994.14,-2.65,-2.16,0.00,1.42,0.23,9.22,-0.00,0.00,0.00,0.00
2026-06-26 18:38:24.002,994.17,994.14,-2.65,-2.16,0.00,1.42,0.23,9.22,-0.00,0.00,0.00,0.00
2026-06-26 18:38:25.003,994.17,994.14,-2.65,-2.16,0.00,1.42,0.23,9.22,-0.00,0.00,0.00,0.00
2026-06-26 18:38:25.048,994.17,994.14,-2.49,-2.09,0.00,1.45,0.22,9.20,0.00,0.00,0.00,0.00
2026-06-26 18:38:25.050,994.17,994.14,-2.49,-2.09,0.00,1.45,0.22,9.24,0.00,0.00,0.00,0.00
2026-06-26 18:38:25.051,994.17,994.14,-2.49,-2.09,0.00,1.45,0.22,9.24,0.00,0.00,0.00,0.00
2026-06-26 18:38:25.092,994.16,994.14,-1.99,-1.87,0.00,1.44,0.22,9.21,0.00,0.00,0.00,0.00
2026-06-26 18:38:25.094,994.16,994.14,-1.99,-1.87,0.00,1.44,0.22,9.21,0.00,0.00,0.00,0.00
2026-06-26 18:38:25.098,994.16,994.14,-1.99,-1.87,0.00,1.44,0.22,9.21,0.00,0.00,0.00,0.00
2026-06-26 18:38:25.099,994.16,994.14,-1.99,-1.87,0.00,1.44,0.21,9.25,0.00,0.00,0.00,0.00
2026-06-26 18:38:25.100,994.16,994.14,-1.99,-1.87,0.00,1.44,0.21,9.25,0.00,0.00,0.00,0.00
2026-06-26 18:38:25.101,994.16,994.14,-1.99,-1.87,0.00,1.44,0.21,9.25,0.00,0.00,0.00,0.00
2026-06-26 18:38:25.102,994.16,994.14,-1.99,-1.87,0.00,1.44,0.21,9.25,0.00,0.00,0.00,0.00
2026-06-26 18:38:25.107,994.16,994.14,-1.99,-1.87,0.00,1.44,0.21,9.25,0.00,0.00,0.00,0.00
2026-06-26 18:38:25.109,994.16,994.14,-1.99,-1.87,0.00,1.45,0.19,9.22,-0.00,-0.00,0.00,0.00
2026-06-26 18:38:25.110,994.16,994.14,-1.99,-1.87,0.00,1.45,0.19,9.22,-0.00,-0.00,0.00,0.00
2026-06-26 18:38:25.111,994.16,994.14,-1.99,-1.87,0.00,1.45,0.19,9.22,-0.00,-0.00,0.00,0.00
2026-06-26 18:38:25.112,994.16,994.14,-1.99,-1.87,0.00,1.45,0.19,9.22,-0.00,-0.00,0.00,0.00
2026-06-26 18:38:25.117,994.16,994.14,-1.99,-1.87,0.00,1.45,0.19,9.22,-0.00,-0.00,0.00,0.00
2026-06-26 18:38:25.119,994.16,994.14,-1.99,-1.87,0.00,1.45,0.24,9.21,0.00,-0.00,0.00,0.00
2026-06-26 18:38:25.121,994.16,994.14,-1.99,-1.87,0.00,1.45,0.24,9.21,0.00,-0.00,0.00,0.00
2026-06-26 18:38:25.122,994.16,994.14,-1.99,-1.87,0.00,1.45,0.24,9.21,0.00,-0.00,0.00,0.00
2026-06-26 18:38:25.127,994.16,994.14,-1.99,-1.87,0.00,1.45,0.24,9.21,0.00,-0.00,0.00,0.00
2026-06-26 18:38:25.130,994.16,994.14,-1.99,-1.87,0.00,1.43,0.21,9.22,0.00,-0.00,0.00,0.00
2026-06-26 18:38:25.132,994.16,994.14,-1.99,-1.87,0.00,1.43,0.21,9.22,0.00,-0.00,0.00,0.00
2026-06-26 18:38:25.135,994.16,994.14,-1.99,-1.87,0.00,1.43,0.21,9.22,0.00,-0.00,0.00,0.00
2026-06-26 18:38:25.139,994.16,994.14,-1.99,-1.87,0.00,1.43,0.21,9.22,0.00,-0.00,0.00,0.00
2026-06-26 18:38:25.140,994.16,994.14,-1.99,-1.87,0.00,1.47,0.19,9.21,0.00,-0.00,0.00,0.00
2026-06-26 18:38:25.141,994.16,994.14,-1.99,-1.87,0.00,1.47,0.19,9.21,0.00,-0.00,0.00,0.00
2026-06-26 18:38:25.142,994.16,994.14,-1.99,-1.87,0.00,1.47,0.19,9.21,0.00,-0.00,0.00,0.00
2026-06-26 18:38:25.144,994.16,994.14,-1.99,-1.87,0.00,1.47,0.19,9.21,0.00,-0.00,0.00,0.00
2026-06-26 18:38:25.145,994.16,994.14,-1.99,-1.87,0.00,1.47,0.19,9.21,0.00,-0.00,0.00,0.00
2026-06-26 18:38:25.189,994.16,994.14,-2.00,-1.88,0.00,1.44,0.23,9.23,0.00,0.00,0.00,0.00
2026-06-26 18:38:25.190,994.16,994.14,-2.00,-1.88,0.00,1.44,0.22,9.22,0.00,0.00,0.00,0.00
2026-06-26 18:38:25.192,994.16,994.14,-2.00,-1.88,0.00,1.44,0.22,9.22,0.00,0.00,0.00,0.00
2026-06-26 18:38:25.238,994.16,994.14,-1.84,-1.80,0.00,1.45,0.21,9.18,0.00,-0.00,-0.00,0.00
2026-06-26 18:38:25.240,994.16,994.14,-1.84,-1.80,0.00,1.44,0.21,9.20,0.00,-0.00,0.00,0.00
2026-06-26 18:38:25.242,994.16,994.14,-1.84,-1.80,0.00,1.44,0.21,9.20,0.00,-0.00,0.00,0.00
2026-06-26 18:38:25.243,994.16,994.14,-1.84,-1.80,0.00,1.44,0.21,9.20,0.00,-0.00,0.00,0.00
2026-06-26 18:38:25.245,994.16,994.14,-1.84,-1.80,0.00,1.44,0.21,9.20,0.00,-0.00,0.00,0.00
2026-06-26 18:38:25.246,994.16,994.14,-1.84,-1.80,0.00,1.44,0.21,9.20,0.00,-0.00,0.00,0.00
2026-06-26 18:38:25.248,994.16,994.14,-1.84,-1.80,0.00,1.44,0.21,9.20,0.00,-0.00,0.00,0.00
2026-06-26 18:38:25.250,994.16,994.14,-1.84,-1.80,0.00,1.45,0.20,9.19,0.00,-0.00,0.00,0.00
2026-06-26 18:38:25.251,994.16,994.14,-1.84,-1.80,0.00,1.45,0.20,9.19,0.00,-0.00,0.00,0.00
2026-06-26 18:38:25.252,994.16,994.14,-1.84,-1.80,0.00,1.45,0.20,9.19,0.00,-0.00,0.00,0.00
2026-06-26 18:38:25.253,994.16,994.14,-1.84,-1.80,0.00,1.45,0.20,9.19,0.00,-0.00,0.00,0.00
2026-06-26 18:38:25.258,994.16,994.14,-1.84,-1.80,0.00,1.45,0.20,9.19,0.00,-0.00,0.00,0.00
2026-06-26 18:38:25.260,994.16,994.14,-1.84,-1.80,0.00,1.45,0.21,9.21,0.00,-0.00,0.00,0.00
2026-06-26 18:38:25.261,994.16,994.14,-1.84,-1.80,0.00,1.45,0.21,9.21,0.00,-0.00,0.00,0.00
2026-06-26 18:38:25.262,994.16,994.14,-1.84,-1.80,0.00,1.45,0.21,9.21,0.00,-0.00,0.00,0.00
2026-06-26 18:38:25.263,994.16,994.14,-1.84,-1.80,0.00,1.45,0.21,9.21,0.00,-0.00,0.00,0.00
2026-06-26 18:38:25.268,994.16,994.14,-1.84,-1.80,0.00,1.45,0.21,9.21,0.00,-0.00,0.00,0.00
2026-06-26 18:38:25.270,994.16,994.14,-1.84,-1.80,0.00,1.42,0.23,9.19,-0.00,0.00,0.00,0.00
2026-06-26 18:38:25.271,994.16,994.14,-1.84,-1.80,0.00,1.42,0.23,9.19,-0.00,0.00,0.00,0.00
2026-06-26 18:38:25.272,994.16,994.14,-1.84,-1.80,0.00,1.42,0.23,9.19,-0.00,0.00,0.00,0.00
2026-06-26 18:38:25.273,994.16,994.14,-1.84,-1.80,0.00,1.42,0.23,9.19,-0.00,0.00,0.00,0.00
2026-06-26 18:38:25.278,994.16,994.14,-1.84,-1.80,0.00,1.42,0.23,9.19,-0.00,0.00,0.00,0.00
2026-06-26 18:38:25.280,994.16,994.14,-1.84,-1.80,0.00,1.44,0.22,9.18,-0.00,0.00,-0.00,0.00
2026-06-26 18:38:25.282,994.16,994.14,-1.84,-1.80,0.00,1.44,0.22,9.18,-0.00,0.00,-0.00,0.00
2026-06-26 18:38:25.283,994.16,994.14,-1.84,-1.80,0.00,1.44,0.22,9.18,-0.00,0.00,-0.00,0.00
2026-06-26 18:38:25.289,994.16,994.14,-1.84,-1.80,0.00,1.44,0.22,9.18,-0.00,0.00,-0.00,0.00
2026-06-26 18:38:25.330,994.16,994.14,-1.89,-1.82,0.00,1.46,0.22,9.21,0.00,-0.00,0.00,0.00
2026-06-26 18:38:25.331,994.16,994.14,-1.89,-1.82,0.00,1.46,0.22,9.21,0.00,-0.00,0.00,0.00
2026-06-26 18:38:25.333,994.16,994.14,-1.89,-1.82,0.00,1.46,0.22,9.21,0.00,-0.00,0.00,0.00
2026-06-26 18:38:25.379,994.16,994.14,-1.87,-1.81,0.00,1.46,0.23,9.22,0.00,0.00,-0.00,0.00
2026-06-26 18:38:25.381,994.16,994.14,-1.87,-1.81,0.00,1.45,0.23,9.21,0.00,0.00,-0.00,0.00
2026-06-26 18:38:25.383,994.16,994.14,-1.87,-1.81,0.00,1.45,0.23,9.21,0.00,0.00,-0.00,0.00
2026-06-26 18:38:25.388,994.16,994.14,-1.87,-1.81,0.00,1.45,0.23,9.21,0.00,0.00,-0.00,0.00
2026-06-26 18:38:25.390,994.16,994.14,-1.87,-1.81,0.00,1.45,0.22,9.23,0.00,0.00,0.00,0.00
2026-06-26 18:38:25.391,994.16,994.14,-1.87,-1.81,0.00,1.45,0.22,9.23,0.00,0.00,0.00,0.00
2026-06-26 18:38:25.392,994.16,994.14,-1.87,-1.81,0.00,1.45,0.22,9.23,0.00,0.00,0.00,0.00
2026-06-26 18:38:25.394,994.16,994.14,-1.87,-1.81,0.00,1.45,0.22,9.23,0.00,0.00,0.00,0.00
2026-06-26 18:38:25.395,994.16,994.14,-1.87,-1.81,0.00,1.45,0.22,9.23,0.00,0.00,0.00,0.00
2026-06-26 18:38:25.396,994.16,994.14,-1.87,-1.81,0.00,1.45,0.22,9.23,0.00,0.00,0.00,0.00
2026-06-26 18:38:25.399,994.16,994.14,-1.87,-1.81,0.00,1.45,0.22,9.23,0.00,-0.00,0.00,0.00
2026-06-26 18:38:25.401,994.16,994.14,-1.87,-1.81,0.00,1.45,0.22,9.21,0.00,-0.00,0.00,0.00
2026-06-26 18:38:25.402,994.16,994.14,-1.87,-1.81,0.00,1.45,0.22,9.21,0.00,-0.00,0.00,0.00
2026-06-26 18:38:25.405,994.16,994.14,-1.87,-1.81,0.00,1.45,0.22,9.21,0.00,-0.00,0.00,0.00
2026-06-26 18:38:25.409,994.16,994.14,-1.87,-1.81,0.00,1.45,0.22,9.21,0.00,0.00,0.00,0.00
2026-06-26 18:38:25.410,994.16,994.14,-1.87,-1.81,0.00,1.47,0.22,9.23,0.00,0.00,0.00,0.00
2026-06-26 18:38:25.411,994.16,994.14,-1.87,-1.81,0.00,1.47,0.22,9.23,0.00,0.00,0.00,0.00
2026-06-26 18:38:25.413,994.16,994.14,-1.87,-1.81,0.00,1.47,0.22,9.23,0.00,0.00,0.00,0.00
2026-06-26 18:38:25.416,994.16,994.14,-1.87,-1.81,0.00,1.47,0.22,9.23,0.00,0.00,0.00,0.00
2026-06-26 18:38:25.419,994.16,994.14,-1.87,-1.81,0.00,1.47,0.22,9.23,-0.00,0.00,0.00,0.00
2026-06-26 18:38:25.420,994.16,994.14,-1.87,-1.81,0.00,1.47,0.23,9.18,-0.00,0.00,0.00,0.00
2026-06-26 18:38:25.422,994.16,994.14,-1.87,-1.81,0.00,1.47,0.23,9.18,-0.00,0.00,0.00,0.00
2026-06-26 18:38:25.423,994.16,994.14,-1.87,-1.81,0.00,1.47,0.23,9.18,-0.00,0.00,0.00,0.00
2026-06-26 18:38:25.427,994.16,994.14,-1.87,-1.81,0.00,1.47,0.23,9.18,-0.00,0.00,0.00,0.00
2026-06-26 18:38:25.429,994.16,994.14,-1.87,-1.81,0.00,1.46,0.21,9.21,0.00,0.00,-0.00,0.00
2026-06-26 18:38:25.472,994.16,994.14,-1.95,-1.85,0.00,1.45,0.22,9.17,0.00,0.00,0.00,0.00
2026-06-26 18:38:25.479,994.16,994.14,-1.95,-1.85,0.00,1.45,0.22,9.17,0.00,0.00,0.00,0.00
2026-06-26 18:38:25.521,994.16,994.14,-1.62,-1.69,0.00,1.45,0.23,9.18,0.00,0.00,0.00,0.00
2026-06-26 18:38:25.523,994.16,994.14,-1.62,-1.69,0.00,1.45,0.23,9.18,0.00,0.00,0.00,0.00
2026-06-26 18:38:25.525,994.16,994.14,-1.62,-1.69,0.00,1.45,0.23,9.18,0.00,0.00,0.00,0.00
2026-06-26 18:38:25.529,994.16,994.14,-1.62,-1.69,0.00,1.45,0.23,9.18,0.00,-0.00,0.00,0.00
2026-06-26 18:38:25.530,994.16,994.14,-1.62,-1.69,0.00,1.44,0.22,9.21,0.00,-0.00,0.00,0.00
2026-06-26 18:38:25.531,994.16,994.14,-1.62,-1.69,0.00,1.44,0.22,9.21,0.00,-0.00,0.00,0.00
2026-06-26 18:38:25.533,994.16,994.14,-1.62,-1.69,0.00,1.44,0.22,9.21,0.00,-0.00,0.00,0.00
2026-06-26 18:38:25.537,994.16,994.14,-1.62,-1.69,0.00,1.44,0.22,9.21,0.00,-0.00,0.00,0.00
2026-06-26 18:38:25.540,994.16,994.14,-1.62,-1.69,0.00,1.44,0.22,9.21,0.00,-0.00,0.00,0.00
2026-06-26 18:38:25.541,994.16,994.14,-1.62,-1.69,0.00,1.45,0.22,9.20,0.00,-0.00,0.00,0.00
2026-06-26 18:38:25.542,994.16,994.14,-1.62,-1.69,0.00,1.45,0.22,9.20,0.00,-0.00,0.00,0.00
2026-06-26 18:38:25.543,994.16,994.14,-1.62,-1.69,0.00,1.45,0.22,9.20,0.00,-0.00,0.00,0.00
2026-06-26 18:38:25.545,994.16,994.14,-1.62,-1.69,0.00,1.45,0.22,9.20,0.00,-0.00,0.00,0.00
2026-06-26 18:38:25.546,994.16,994.14,-1.62,-1.69,0.00,1.45,0.22,9.20,0.00,-0.00,0.00,0.00
2026-06-26 18:38:25.547,994.16,994.14,-1.62,-1.69,0.00,1.45,0.22,9.20,0.00,-0.00,0.00,0.00
2026-06-26 18:38:25.549,994.16,994.14,-1.62,-1.69,0.00,1.45,0.22,9.20,0.00,0.00,0.00,0.00
2026-06-26 18:38:25.551,994.16,994.14,-1.62,-1.69,0.00,1.47,0.22,9.23,0.00,0.00,0.00,0.00
2026-06-26 18:38:25.552,994.16,994.14,-1.62,-1.69,0.00,1.47,0.22,9.23,0.00,0.00,0.00,0.00
2026-06-26 18:38:25.553,994.16,994.14,-1.62,-1.69,0.00,1.47,0.22,9.23,0.00,0.00,0.00,0.00
2026-06-26 18:38:25.557,994.16,994.14,-1.62,-1.69,0.00,1.47,0.22,9.23,0.00,0.00,0.00,0.00
2026-06-26 18:38:25.560,994.16,994.14,-1.62,-1.69,0.00,1.45,0.22,9.19,0.00,0.00,-0.00,0.00
2026-06-26 18:38:25.561,994.16,994.14,-1.62,-1.69,0.00,1.45,0.22,9.19,0.00,0.00,-0.00,0.00
2026-06-26 18:38:25.562,994.16,994.14,-1.62,-1.69,0.00,1.45,0.22,9.19,0.00,0.00,-0.00,0.00
2026-06-26 18:38:25.565,994.16,994.14,-1.62,-1.69,0.00,1.45,0.22,9.19,0.00,0.00,-0.00,0.00
2026-06-26 18:38:25.569,994.16,994.14,-1.62,-1.69,0.00,1.45,0.22,9.19,0.00,-0.00,0.00,0.00
2026-06-26 18:38:25.570,994.16,994.14,-1.62,-1.69,0.00,1.45,0.22,9.19,0.00,-0.00,0.00,0.00
2026-06-26 18:38:25.571,994.16,994.14,-1.62,-1.69,0.00,1.45,0.22,9.19,0.00,-0.00,0.00,0.00
2026-06-26 18:38:25.610,994.16,994.14,-1.49,-1.62,0.00,1.45,0.23,9.22,0.00,-0.00,-0.00,0.00
2026-06-26 18:38:25.611,994.16,994.14,-1.49,-1.62,0.00,1.45,0.23,9.22,0.00,-0.00,-0.00,0.00
2026-06-26 18:38:25.614,994.16,994.14,-1.49,-1.62,0.00,1.45,0.23,9.22,0.00,-0.00,-0.00,0.00
2026-06-26 18:38:25.619,994.16,994.14,-1.49,-1.62,0.00,1.45,0.23,9.22,0.00,0.00,0.00,0.00
2026-06-26 18:38:25.621,994.16,994.14,-1.49,-1.62,0.00,1.45,0.21,9.21,0.00,0.00,0.00,0.00
2026-06-26 18:38:25.662,994.16,994.14,-1.61,-1.68,0.00,1.43,0.22,9.23,0.00,-0.00,0.00,0.00
2026-06-26 18:38:25.666,994.16,994.14,-1.61,-1.68,0.00,1.43,0.22,9.23,0.00,-0.00,0.00,0.00
2026-06-26 18:38:25.670,994.16,994.14,-1.61,-1.68,0.00,1.43,0.22,9.23,0.00,0.00,0.00,0.00
2026-06-26 18:38:25.672,994.16,994.14,-1.61,-1.68,0.00,1.44,0.22,9.18,0.00,0.00,0.00,0.00
2026-06-26 18:38:25.676,994.16,994.14,-1.61,-1.68,0.00,1.44,0.22,9.18,0.00,0.00,0.00,0.00
2026-06-26 18:38:25.680,994.16,994.14,-1.61,-1.68,0.00,1.44,0.22,9.18,0.00,-0.00,-0.00,0.00
2026-06-26 18:38:25.681,994.16,994.14,-1.61,-1.68,0.00,1.43,0.21,9.19,0.00,-0.00,-0.00,0.00
2026-06-26 18:38:25.682,994.16,994.14,-1.61,-1.68,0.00,1.43,0.21,9.19,0.00,-0.00,-0.00,0.00
2026-06-26 18:38:25.683,994.16,994.14,-1.61,-1.68,0.00,1.43,0.21,9.19,0.00,-0.00,-0.00,0.00
2026-06-26 18:38:25.687,994.16,994.14,-1.61,-1.68,0.00,1.43,0.21,9.19,0.00,-0.00,-0.00,0.00
2026-06-26 18:38:25.690,994.16,994.14,-1.61,-1.68,0.00,1.43,0.21,9.19,-0.00,0.00,0.00,0.00
2026-06-26 18:38:25.691,994.16,994.14,-1.61,-1.68,0.00,1.44,0.21,9.20,-0.00,0.00,0.00,0.00
2026-06-26 18:38:25.692,994.16,994.14,-1.61,-1.68,0.00,1.44,0.21,9.20,-0.00,0.00,0.00,0.00
2026-06-26 18:38:25.694,994.16,994.14,-1.61,-1.68,0.00,1.44,0.21,9.20,-0.00,0.00,0.00,0.00
2026-06-26 18:38:25.695,994.16,994.14,-1.61,-1.68,0.00,1.44,0.21,9.20,-0.00,0.00,0.00,0.00
2026-06-26 18:38:25.699,994.16,994.14,-1.61,-1.68,0.00,1.44,0.21,9.20,0.00,0.00,-0.00,0.00
2026-06-26 18:38:25.701,994.16,994.14,-1.61,-1.68,0.00,1.45,0.22,9.22,0.00,0.00,-0.00,0.00
2026-06-26 18:38:25.706,994.16,994.14,-1.61,-1.68,0.00,1.45,0.22,9.22,0.00,0.00,-0.00,0.00
2026-06-26 18:38:25.710,994.16,994.14,-1.61,-1.68,0.00,1.45,0.22,9.22,0.00,0.00,0.00,0.00
2026-06-26 18:38:25.751,994.16,994.15,-1.08,-1.38,0.00,1.45,0.21,9.21,0.00,-0.00,0.00,0.00
2026-06-26 18:38:25.753,994.16,994.15,-1.08,-1.38,0.00,1.45,0.21,9.21,0.00,-0.00,0.00,0.00
2026-06-26 18:38:25.754,994.16,994.15,-1.08,-1.38,0.00,1.45,0.21,9.21,0.00,-0.00,0.00,0.00
2026-06-26 18:38:25.759,994.16,994.15,-1.08,-1.38,0.00,1.45,0.21,9.21,0.00,-0.00,0.00,0.00
2026-06-26 18:38:25.761,994.16,994.15,-1.08,-1.38,0.00,1.46,0.21,9.19,0.00,-0.00,0.00,0.00
2026-06-26 18:38:25.762,994.16,994.15,-1.08,-1.38,0.00,1.46,0.21,9.19,0.00,-0.00,0.00,0.00
2026-06-26 18:38:25.807,994.16,994.15,-1.30,-1.51,0.00,1.46,0.22,9.21,0.00,-0.00,-0.00,0.00
2026-06-26 18:38:26.010,994.16,994.15,-0.87,-1.24,0.00,1.45,0.22,9.22,0.00,-0.00,-0.00,0.00
2026-06-26 18:38:26.011,994.16,994.15,-0.87,-1.24,0.00,1.45,0.23,9.20,-0.00,-0.00,0.00,0.00
2026-06-26 18:38:26.013,994.16,994.15,-0.87,-1.24,0.00,1.45,0.23,9.20,-0.00,-0.00,0.00,0.00
2026-06-26 18:38:26.014,994.16,994.15,-0.87,-1.24,0.00,1.45,0.23,9.20,-0.00,-0.00,0.00,0.00
2026-06-26 18:38:26.018,994.16,994.15,-0.87,-1.24,0.00,1.45,0.23,9.20,-0.00,-0.00,0.00,0.00
2026-06-26 18:38:26.021,994.16,994.15,-0.87,-1.24,0.00,1.45,0.23,9.20,-0.00,0.00,-0.00,0.00
2026-06-26 18:38:26.022,994.16,994.15,-0.87,-1.24,0.00,1.44,0.23,9.23,-0.00,0.00,-0.00,0.00
2026-06-26 18:38:26.024,994.16,994.15,-0.87,-1.24,0.00,1.44,0.23,9.23,-0.00,0.00,-0.00,0.00
2026-06-26 18:38:26.028,994.16,994.15,-0.87,-1.24,0.00,1.44,0.23,9.23,-0.00,0.00,-0.00,0.00
2026-06-26 18:38:26.031,994.16,994.15,-0.87,-1.24,0.00,1.43,0.22,9.19,0.00,0.00,0.00,0.00
2026-06-26 18:38:26.032,994.16,994.15,-0.87,-1.24,0.00,1.43,0.22,9.19,0.00,0.00,0.00,0.00
2026-06-26 18:38:26.036,994.16,994.15,-0.87,-1.24,0.00,1.43,0.22,9.19,0.00,0.00,0.00,0.00
2026-06-26 18:38:26.040,994.16,994.15,-0.87,-1.24,0.00,1.43,0.22,9.19,0.00,0.00,0.00,0.00
2026-06-26 18:38:26.042,994.16,994.15,-0.87,-1.24,0.00,1.43,0.22,9.24,0.00,0.00,0.00,0.00
2026-06-26 18:38:26.043,994.16,994.15,-0.87,-1.24,0.00,1.43,0.22,9.24,0.00,0.00,0.00,0.00
2026-06-26 18:38:26.044,994.16,994.15,-0.87,-1.24,0.00,1.43,0.22,9.24,0.00,0.00,0.00,0.00
2026-06-26 18:38:26.045,994.16,994.15,-0.87,-1.24,0.00,1.43,0.22,9.24,0.00,0.00,0.00,0.00
2026-06-26 18:38:26.046,994.16,994.15,-0.87,-1.24,0.00,1.43,0.22,9.24,0.00,0.00,0.00,0.00
2026-06-26 18:38:26.048,994.16,994.15,-0.87,-1.24,0.00,1.43,0.22,9.24,0.00,0.00,0.00,0.00
2026-06-26 18:38:26.051,994.16,994.15,-0.87,-1.24,0.00,1.43,0.22,9.24,-0.00,0.00,-0.00,0.00
2026-06-26 18:38:26.052,994.16,994.15,-0.87,-1.24,0.00,1.44,0.21,9.22,-0.00,0.00,-0.00,0.00
2026-06-26 18:38:26.053,994.16,994.15,-0.87,-1.24,0.00,1.44,0.21,9.22,-0.00,0.00,-0.00,0.00
2026-06-26 18:38:26.054,994.16,994.15,-0.87,-1.24,0.00,1.44,0.21,9.22,-0.00,0.00,-0.00,0.00
2026-06-26 18:38:26.059,994.16,994.15,-0.87,-1.24,0.00,1.44,0.21,9.22,-0.00,0.00,-0.00,0.00
2026-06-26 18:38:26.061,994.16,994.15,-0.87,-1.24,0.00,1.46,0.23,9.23,0.00,-0.00,0.00,0.00
2026-06-26 18:38:26.062,994.16,994.15,-0.87,-1.24,0.00,1.46,0.23,9.23,0.00,-0.00,0.00,0.00
2026-06-26 18:38:26.063,994.16,994.15,-0.87,-1.24,0.00,1.46,0.23,9.23,0.00,-0.00,0.00,0.00
2026-06-26 18:38:26.064,994.16,994.15,-0.87,-1.24,0.00,1.46,0.23,9.23,0.00,-0.00,0.00,0.00
2026-06-26 18:38:26.147,994.16,994.15,-0.49,-0.93,0.00,1.46,0.23,9.23,-0.00,0.00,-0.00,0.00
2026-06-26 18:38:26.151,994.16,994.15,-0.49,-0.93,0.00,1.46,0.23,9.23,-0.00,0.00,-0.00,0.00
2026-06-26 18:38:26.152,994.16,994.15,-0.49,-0.93,0.00,1.44,0.23,9.22,-0.00,0.00,-0.00,0.00
2026-06-26 18:38:26.153,994.16,994.15,-0.49,-0.93,0.00,1.44,0.23,9.22,-0.00,0.00,-0.00,0.00
2026-06-26 18:38:26.154,994.16,994.15,-0.49,-0.93,0.00,1.44,0.23,9.22,-0.00,0.00,-0.00,0.00
2026-06-26 18:38:26.157,994.16,994.15,-0.49,-0.93,0.00,1.44,0.23,9.22,-0.00,0.00,-0.00,0.00
2026-06-26 18:38:26.161,994.16,994.15,-0.49,-0.93,0.00,1.44,0.23,9.22,0.00,-0.00,-0.00,0.00
2026-06-26 18:38:26.162,994.16,994.15,-0.49,-0.93,0.00,1.46,0.21,9.21,0.00,-0.00,-0.00,0.00
2026-06-26 18:38:26.163,994.16,994.15,-0.49,-0.93,0.00,1.46,0.21,9.21,0.00,-0.00,-0.00,0.00
2026-06-26 18:38:26.164,994.16,994.15,-0.49,-0.93,0.00,1.46,0.21,9.21,0.00,-0.00,-0.00,0.00
2026-06-26 18:38:26.167,994.16,994.15,-0.49,-0.93,0.00,1.46,0.21,9.21,0.00,-0.00,-0.00,0.00
2026-06-26 18:38:26.171,994.16,994.15,-0.49,-0.93,0.00,1.46,0.21,9.21,0.00,0.00,-0.00,0.00
2026-06-26 18:38:26.172,994.16,994.15,-0.49,-0.93,0.00,1.46,0.21,9.21,0.00,0.00,-0.00,0.00
2026-06-26 18:38:26.173,994.16,994.15,-0.49,-0.93,0.00,1.46,0.21,9.21,0.00,0.00,-0.00,0.00
2026-06-26 18:38:26.175,994.16,994.15,-0.49,-0.93,0.00,1.46,0.21,9.21,0.00,0.00,-0.00,0.00
2026-06-26 18:38:26.180,994.16,994.15,-0.49,-0.93,0.00,1.46,0.21,9.21,0.00,0.00,-0.00,0.00
2026-06-26 18:38:26.181,994.16,994.15,-0.49,-0.93,0.00,1.47,0.22,9.22,-0.00,0.00,-0.00,0.00
2026-06-26 18:38:26.182,994.16,994.15,-0.49,-0.93,0.00,1.47,0.22,9.22,-0.00,0.00,-0.00,0.00
2026-06-26 18:38:26.184,994.16,994.15,-0.49,-0.93,0.00,1.47,0.22,9.22,-0.00,0.00,-0.00,0.00
2026-06-26 18:38:26.185,994.16,994.15,-0.49,-0.93,0.00,1.47,0.22,9.22,-0.00,0.00,-0.00,0.00
2026-06-26 18:38:26.190,994.16,994.15,-0.49,-0.93,0.00,1.47,0.22,9.22,-0.00,0.00,-0.00,0.00
2026-06-26 18:38:26.192,994.16,994.15,-0.49,-0.93,0.00,1.45,0.22,9.23,0.00,0.00,-0.00,0.00
2026-06-26 18:38:26.193,994.16,994.15,-0.49,-0.93,0.00,1.45,0.22,9.23,0.00,0.00,-0.00,0.00
2026-06-26 18:38:26.194,994.16,994.15,-0.49,-0.93,0.00,1.45,0.22,9.23,0.00,0.00,-0.00,0.00
2026-06-26 18:38:26.195,994.16,994.15,-0.49,-0.93,0.00,1.45,0.22,9.23,0.00,0.00,-0.00,0.00
2026-06-26 18:38:26.196,994.16,994.15,-0.49,-0.93,0.00,1.45,0.22,9.23,0.00,0.00,-0.00,0.00
2026-06-26 18:38:26.197,994.16,994.15,-0.49,-0.93,0.00,1.45,0.22,9.23,0.00,0.00,-0.00,0.00
2026-06-26 18:38:26.199,994.16,994.15,-0.49,-0.93,0.00,1.45,0.22,9.23,0.00,0.00,-0.00,0.00
2026-06-26 18:38:26.201,994.16,994.15,-0.49,-0.93,0.00,1.44,0.22,9.21,0.00,0.00,-0.00,0.00
2026-06-26 18:38:26.202,994.16,994.15,-0.49,-0.93,0.00,1.44,0.22,9.21,0.00,0.00,-0.00,0.00
2026-06-26 18:38:26.203,994.16,994.15,-0.49,-0.93,0.00,1.44,0.22,9.21,0.00,0.00,-0.00,0.00
2026-06-26 18:38:26.205,994.16,994.15,-0.49,-0.93,0.00,1.44,0.22,9.21,0.00,0.00,-0.00,0.00
2026-06-26 18:38:26.209,994.16,994.15,-0.49,-0.93,0.00,1.44,0.22,9.21,0.00,0.00,-0.00,0.00
2026-06-26 18:38:26.246,994.16,994.15,-0.41,-0.85,0.00,1.45,0.21,9.22,0.00,-0.00,-0.00,0.00
2026-06-26 18:38:26.284,994.16,994.15,-0.60,-1.03,0.00,1.47,0.22,9.20,0.00,-0.00,-0.00,0.00
2026-06-26 18:38:26.290,994.16,994.15,-0.60,-1.03,0.00,1.47,0.22,9.20,0.00,-0.00,-0.00,0.00
2026-06-26 18:38:26.292,994.16,994.15,-0.60,-1.03,0.00,1.45,0.22,9.23,-0.00,0.00,0.00,0.00
2026-06-26 18:38:26.293,994.16,994.15,-0.60,-1.03,0.00,1.45,0.22,9.23,-0.00,0.00,0.00,0.00
2026-06-26 18:38:26.294,994.16,994.15,-0.60,-1.03,0.00,1.45,0.22,9.23,-0.00,0.00,0.00,0.00
2026-06-26 18:38:26.295,994.16,994.15,-0.60,-1.03,0.00,1.45,0.22,9.23,-0.00,0.00,0.00,0.00
2026-06-26 18:38:26.297,994.16,994.15,-0.60,-1.03,0.00,1.45,0.22,9.23,-0.00,0.00,0.00,0.00
2026-06-26 18:38:26.298,994.16,994.15,-0.60,-1.03,0.00,1.45,0.22,9.23,-0.00,0.00,0.00,0.00
2026-06-26 18:38:26.299,994.16,994.15,-0.60,-1.03,0.00,1.45,0.22,9.23,-0.00,0.00,0.00,0.00
2026-06-26 18:38:26.301,994.16,994.15,-0.60,-1.03,0.00,1.45,0.22,9.23,0.00,0.00,0.00,0.00
2026-06-26 18:38:26.302,994.16,994.15,-0.60,-1.03,0.00,1.45,0.21,9.23,0.00,0.00,0.00,0.00
2026-06-26 18:38:26.304,994.16,994.15,-0.60,-1.03,0.00,1.45,0.21,9.23,0.00,0.00,0.00,0.00
2026-06-26 18:38:26.305,994.16,994.15,-0.60,-1.03,0.00,1.45,0.21,9.23,0.00,0.00,0.00,0.00
2026-06-26 18:38:26.309,994.16,994.15,-0.60,-1.03,0.00,1.45,0.21,9.23,0.00,0.00,0.00,0.00
2026-06-26 18:38:26.312,994.16,994.15,-0.60,-1.03,0.00,1.44,0.22,9.26,-0.00,0.00,0.00,0.00
2026-06-26 18:38:26.313,994.16,994.15,-0.60,-1.03,0.00,1.44,0.22,9.26,-0.00,0.00,0.00,0.00
2026-06-26 18:38:26.314,994.16,994.15,-0.60,-1.03,0.00,1.44,0.22,9.26,-0.00,0.00,0.00,0.00
2026-06-26 18:38:26.318,994.16,994.15,-0.60,-1.03,0.00,1.44,0.22,9.26,-0.00,0.00,0.00,0.00
2026-06-26 18:38:26.321,994.16,994.15,-0.60,-1.03,0.00,1.44,0.22,9.26,0.00,0.00,0.00,0.00
2026-06-26 18:38:26.322,994.16,994.15,-0.60,-1.03,0.00,1.45,0.22,9.21,0.00,0.00,0.00,0.00
2026-06-26 18:38:26.323,994.16,994.15,-0.60,-1.03,0.00,1.45,0.22,9.21,0.00,0.00,0.00,0.00
2026-06-26 18:38:26.325,994.16,994.15,-0.60,-1.03,0.00,1.45,0.22,9.21,0.00,0.00,0.00,0.00
2026-06-26 18:38:26.326,994.16,994.15,-0.60,-1.03,0.00,1.45,0.22,9.21,0.00,0.00,0.00,0.00
2026-06-26 18:38:26.331,994.16,994.15,-0.60,-1.03,0.00,1.45,0.22,9.21,0.00,0.00,0.00,0.00
2026-06-26 18:38:26.333,994.16,994.15,-0.60,-1.03,0.00,1.46,0.22,9.23,0.00,0.00,0.00,0.00
2026-06-26 18:38:26.346,994.16,994.15,-0.60,-1.03,0.00,1.44,0.21,9.24,-0.00,-0.00,-0.00,0.00
2026-06-26 18:38:26.384,994.16,994.15,-0.64,-1.06,0.00,1.46,0.24,9.20,0.00,0.00,-0.00,0.00
2026-06-26 18:38:26.422,994.16,994.15,-0.69,-1.10,0.00,1.45,0.22,9.20,0.00,0.00,0.00,0.00
2026-06-26 18:38:26.423,994.16,994.15,-0.69,-1.10,0.00,1.45,0.22,9.20,0.00,0.00,0.00,0.00
2026-06-26 18:38:26.424,994.16,994.15,-0.69,-1.10,0.00,1.45,0.22,9.20,0.00,0.00,0.00,0.00
2026-06-26 18:38:26.426,994.16,994.15,-0.69,-1.10,0.00,1.45,0.22,9.20,0.00,0.00,0.00,0.00
2026-06-26 18:38:26.429,994.16,994.15,-0.69,-1.10,0.00,1.45,0.22,9.20,0.00,0.00,0.00,0.00
2026-06-26 18:38:26.431,994.16,994.15,-0.69,-1.10,0.00,1.44,0.22,9.21,0.00,0.00,0.00,0.00
2026-06-26 18:38:26.433,994.16,994.15,-0.69,-1.10,0.00,1.44,0.22,9.21,0.00,0.00,0.00,0.00
2026-06-26 18:38:26.434,994.16,994.15,-0.69,-1.10,0.00,1.44,0.22,9.21,0.00,0.00,0.00,0.00
2026-06-26 18:38:26.438,994.16,994.15,-0.69,-1.10,0.00,1.44,0.22,9.21,0.00,0.00,0.00,0.00
2026-06-26 18:38:26.452,994.16,994.15,-0.69,-1.10,0.00,1.44,0.22,9.21,-0.00,0.00,0.00,0.00
2026-06-26 18:38:26.464,994.16,994.15,-0.69,-1.10,0.00,1.47,0.21,9.21,0.00,0.00,0.00,0.00
2026-06-26 18:38:26.474,994.16,994.15,-0.69,-1.10,0.00,1.45,0.22,9.23,0.00,0.00,-0.00,0.00
2026-06-26 18:38:26.481,994.16,994.15,-0.69,-1.10,0.00,1.45,0.22,9.18,0.00,0.00,-0.00,0.00
2026-06-26 18:38:26.483,994.16,994.15,-0.69,-1.10,0.00,1.42,0.21,9.19,0.00,0.00,0.00,0.00
2026-06-26 18:38:26.571,994.16,994.15,-1.33,-1.53,0.00,1.45,0.22,9.22,0.00,0.00,0.00,0.00
2026-06-26 18:38:26.572,994.16,994.15,-1.33,-1.53,0.00,1.44,0.22,9.19,-0.00,-0.00,-0.00,0.00
2026-06-26 18:38:26.573,994.16,994.15,-1.33,-1.53,0.00,1.44,0.22,9.19,-0.00,-0.00,-0.00,0.00
2026-06-26 18:38:26.575,994.16,994.15,-1.33,-1.53,0.00,1.44,0.22,9.19,-0.00,-0.00,-0.00,0.00
2026-06-26 18:38:26.576,994.16,994.15,-1.33,-1.53,0.00,1.44,0.22,9.19,-0.00,-0.00,-0.00,0.00
2026-06-26 18:38:26.581,994.16,994.15,-1.33,-1.53,0.00,1.44,0.22,9.19,-0.00,-0.00,-0.00,0.00
2026-06-26 18:38:26.582,994.16,994.15,-1.33,-1.53,0.00,1.45,0.23,9.21,-0.00,0.00,-0.00,0.00
2026-06-26 18:38:26.583,994.16,994.15,-1.33,-1.53,0.00,1.45,0.23,9.21,-0.00,0.00,-0.00,0.00
2026-06-26 18:38:26.585,994.16,994.15,-1.33,-1.53,0.00,1.45,0.23,9.21,-0.00,0.00,-0.00,0.00
2026-06-26 18:38:26.586,994.16,994.15,-1.33,-1.53,0.00,1.45,0.23,9.21,-0.00,0.00,-0.00,0.00
2026-06-26 18:38:26.591,994.16,994.15,-1.33,-1.53,0.00,1.45,0.23,9.21,-0.00,0.00,-0.00,0.00
2026-06-26 18:38:26.593,994.16,994.15,-1.33,-1.53,0.00,1.46,0.22,9.25,0.00,-0.00,-0.00,0.00
2026-06-26 18:38:26.594,994.16,994.15,-1.33,-1.53,0.00,1.46,0.22,9.25,0.00,-0.00,-0.00,0.00
2026-06-26 18:38:26.595,994.16,994.15,-1.33,-1.53,0.00,1.46,0.22,9.25,0.00,-0.00,-0.00,0.00
2026-06-26 18:38:26.596,994.16,994.15,-1.33,-1.53,0.00,1.46,0.22,9.25,0.00,-0.00,-0.00,0.00
2026-06-26 18:38:26.597,994.16,994.15,-1.33,-1.53,0.00,1.46,0.22,9.25,0.00,-0.00,-0.00,0.00
2026-06-26 18:38:26.599,994.16,994.15,-1.33,-1.53,0.00,1.46,0.22,9.25,0.00,-0.00,-0.00,0.00
2026-06-26 18:38:26.601,994.16,994.15,-1.33,-1.53,0.00,1.46,0.22,9.25,0.00,-0.00,-0.00,0.00
2026-06-26 18:38:26.602,994.16,994.15,-1.33,-1.53,0.00,1.45,0.22,9.21,-0.00,-0.00,0.00,0.00
2026-06-26 18:38:26.604,994.16,994.15,-1.33,-1.53,0.00,1.45,0.22,9.21,-0.00,-0.00,0.00,0.00
2026-06-26 18:38:26.605,994.16,994.15,-1.33,-1.53,0.00,1.45,0.22,9.21,-0.00,-0.00,0.00,0.00
2026-06-26 18:38:26.606,994.16,994.15,-1.33,-1.53,0.00,1.45,0.22,9.21,-0.00,-0.00,0.00,0.00
2026-06-26 18:38:26.611,994.16,994.15,-1.33,-1.53,0.00,1.45,0.22,9.21,-0.00,-0.00,0.00,0.00
2026-06-26 18:38:26.612,994.16,994.15,-1.33,-1.53,0.00,1.45,0.21,9.20,0.00,0.00,-0.00,0.00
2026-06-26 18:38:26.614,994.16,994.15,-1.33,-1.53,0.00,1.45,0.21,9.20,0.00,0.00,-0.00,0.00
2026-06-26 18:38:26.615,994.16,994.15,-1.33,-1.53,0.00,1.45,0.21,9.20,0.00,0.00,-0.00,0.00
2026-06-26 18:38:26.616,994.16,994.15,-1.33,-1.53,0.00,1.45,0.21,9.20,0.00,0.00,-0.00,0.00
2026-06-26 18:38:26.621,994.16,994.15,-1.33,-1.53,0.00,1.45,0.21,9.20,0.00,0.00,-0.00,0.00
2026-06-26 18:38:26.622,994.16,994.15,-1.33,-1.53,0.00,1.46,0.22,9.18,0.00,0.00,-0.00,0.00
2026-06-26 18:38:26.624,994.16,994.15,-1.33,-1.53,0.00,1.46,0.22,9.18,0.00,0.00,-0.00,0.00
2026-06-26 18:38:26.625,994.16,994.15,-1.33,-1.53,0.00,1.46,0.22,9.18,0.00,0.00,-0.00,0.00
2026-06-26 18:38:26.710,994.16,994.15,-1.28,-1.50,0.00,1.43,0.21,9.20,-0.00,-0.00,0.00,0.00
2026-06-26 18:38:26.712,994.16,994.15,-1.28,-1.50,0.00,1.43,0.21,9.20,-0.00,0.00,-0.00,0.00
2026-06-26 18:38:26.713,994.16,994.15,-1.28,-1.50,0.00,1.46,0.22,9.23,-0.00,0.00,-0.00,0.00
2026-06-26 18:38:26.714,994.16,994.15,-1.28,-1.50,0.00,1.46,0.22,9.23,-0.00,0.00,-0.00,0.00
2026-06-26 18:38:26.716,994.16,994.15,-1.28,-1.50,0.00,1.46,0.22,9.23,-0.00,0.00,-0.00,0.00
2026-06-26 18:38:26.719,994.16,994.15,-1.28,-1.50,0.00,1.46,0.22,9.23,-0.00,0.00,-0.00,0.00
2026-06-26 18:38:26.722,994.16,994.15,-1.28,-1.50,0.00,1.46,0.22,9.23,0.00,0.00,-0.00,0.00
2026-06-26 18:38:26.723,994.16,994.15,-1.28,-1.50,0.00,1.46,0.21,9.21,0.00,0.00,-0.00,0.00
2026-06-26 18:38:26.725,994.16,994.15,-1.28,-1.50,0.00,1.46,0.21,9.21,0.00,0.00,-0.00,0.00
2026-06-26 18:38:26.726,994.16,994.15,-1.28,-1.50,0.00,1.46,0.21,9.21,0.00,0.00,-0.00,0.00
2026-06-26 18:38:26.727,994.16,994.15,-1.28,-1.50,0.00,1.46,0.21,9.21,0.00,0.00,-0.00,0.00
2026-06-26 18:38:26.732,994.16,994.15,-1.28,-1.50,0.00,1.46,0.21,9.21,0.00,0.00,-0.00,0.00
2026-06-26 18:38:26.733,994.16,994.15,-1.28,-1.50,0.00,1.44,0.22,9.21,0.00,0.00,0.00,0.00
2026-06-26 18:38:26.734,994.16,994.15,-1.28,-1.50,0.00,1.44,0.22,9.21,0.00,0.00,0.00,0.00
2026-06-26 18:38:26.735,994.16,994.15,-1.28,-1.50,0.00,1.44,0.22,9.21,0.00,0.00,0.00,0.00
2026-06-26 18:38:26.737,994.16,994.15,-1.28,-1.50,0.00,1.44,0.22,9.21,0.00,0.00,0.00,0.00
2026-06-26 18:38:26.742,994.16,994.15,-1.28,-1.50,0.00,1.44,0.22,9.21,0.00,0.00,0.00,0.00
2026-06-26 18:38:26.743,994.16,994.15,-1.28,-1.50,0.00,1.46,0.22,9.19,0.00,0.00,-0.00,0.00
2026-06-26 18:38:26.744,994.16,994.15,-1.28,-1.50,0.00,1.46,0.22,9.19,0.00,0.00,-0.00,0.00
2026-06-26 18:38:26.745,994.16,994.15,-1.28,-1.50,0.00,1.46,0.22,9.19,0.00,0.00,-0.00,0.00
2026-06-26 18:38:26.746,994.16,994.15,-1.28,-1.50,0.00,1.46,0.22,9.19,0.00,0.00,-0.00,0.00
2026-06-26 18:38:26.748,994.16,994.15,-1.28,-1.50,0.00,1.46,0.22,9.19,0.00,0.00,-0.00,0.00
2026-06-26 18:38:26.749,994.16,994.15,-1.28,-1.50,0.00,1.46,0.22,9.19,0.00,0.00,-0.00,0.00
2026-06-26 18:38:26.751,994.16,994.15,-1.28,-1.50,0.00,1.46,0.22,9.19,0.00,0.00,-0.00,0.00
2026-06-26 18:38:26.753,994.16,994.15,-1.28,-1.50,0.00,1.47,0.23,9.22,0.00,-0.00,0.00,0.00
2026-06-26 18:38:26.754,994.16,994.15,-1.28,-1.50,0.00,1.47,0.23,9.22,0.00,-0.00,0.00,0.00
2026-06-26 18:38:26.755,994.16,994.15,-1.28,-1.50,0.00,1.47,0.23,9.22,0.00,-0.00,0.00,0.00
2026-06-26 18:38:26.756,994.16,994.15,-1.28,-1.50,0.00,1.47,0.23,9.22,0.00,-0.00,0.00,0.00
2026-06-26 18:38:26.761,994.16,994.15,-1.28,-1.50,0.00,1.47,0.23,9.22,0.00,-0.00,0.00,0.00
2026-06-26 18:38:26.763,994.16,994.15,-1.28,-1.50,0.00,1.44,0.22,9.21,0.00,-0.00,0.00,0.00
2026-06-26 18:38:26.764,994.16,994.15,-1.28,-1.50,0.00,1.44,0.22,9.21,0.00,-0.00,0.00,0.00
2026-06-26 18:38:26.765,994.16,994.15,-1.28,-1.50,0.00,1.44,0.22,9.21,0.00,-0.00,0.00,0.00
2026-06-26 18:38:26.846,994.16,994.14,-1.77,-1.76,0.00,1.43,0.22,9.20,0.00,0.00,0.00,0.00
2026-06-26 18:38:26.848,994.16,994.14,-1.77,-1.76,0.00,1.43,0.22,9.20,0.00,0.00,0.00,0.00
2026-06-26 18:38:26.849,994.16,994.14,-1.77,-1.76,0.00,1.43,0.22,9.20,0.00,0.00,0.00,0.00
2026-06-26 18:38:26.852,994.16,994.14,-1.77,-1.76,0.00,1.43,0.22,9.20,-0.00,-0.00,0.00,0.00
2026-06-26 18:38:26.853,994.16,994.14,-1.77,-1.76,0.00,1.47,0.21,9.19,-0.00,-0.00,0.00,0.00
2026-06-26 18:38:26.854,994.16,994.14,-1.77,-1.76,0.00,1.47,0.21,9.19,-0.00,-0.00,0.00,0.00
2026-06-26 18:38:26.856,994.16,994.14,-1.77,-1.76,0.00,1.47,0.21,9.19,-0.00,-0.00,0.00,0.00
2026-06-26 18:38:26.860,994.16,994.14,-1.77,-1.76,0.00,1.47,0.21,9.19,-0.00,-0.00,0.00,0.00
2026-06-26 18:38:26.862,994.16,994.14,-1.77,-1.76,0.00,1.47,0.21,9.19,0.00,-0.00,0.00,0.00
2026-06-26 18:38:26.864,994.16,994.14,-1.77,-1.76,0.00,1.45,0.23,9.21,0.00,-0.00,0.00,0.00
2026-06-26 18:38:26.865,994.16,994.14,-1.77,-1.76,0.00,1.45,0.23,9.21,0.00,-0.00,0.00,0.00
2026-06-26 18:38:26.866,994.16,994.14,-1.77,-1.76,0.00,1.45,0.23,9.21,0.00,-0.00,0.00,0.00
2026-06-26 18:38:26.870,994.16,994.14,-1.77,-1.76,0.00,1.45,0.23,9.21,0.00,-0.00,0.00,0.00
2026-06-26 18:38:26.872,994.16,994.14,-1.77,-1.76,0.00,1.45,0.23,9.21,0.00,0.00,-0.00,0.00
2026-06-26 18:38:26.874,994.16,994.14,-1.77,-1.76,0.00,1.45,0.23,9.17,0.00,0.00,-0.00,0.00
2026-06-26 18:38:26.875,994.16,994.14,-1.77,-1.76,0.00,1.45,0.23,9.17,0.00,0.00,-0.00,0.00
2026-06-26 18:38:26.876,994.16,994.14,-1.77,-1.76,0.00,1.45,0.23,9.17,0.00,0.00,-0.00,0.00
2026-06-26 18:38:26.882,994.16,994.14,-1.77,-1.76,0.00,1.45,0.23,9.17,0.00,0.00,-0.00,0.00
2026-06-26 18:38:26.883,994.16,994.14,-1.77,-1.76,0.00,1.44,0.22,9.21,-0.00,0.00,0.00,0.00
2026-06-26 18:38:26.884,994.16,994.14,-1.77,-1.76,0.00,1.44,0.22,9.21,-0.00,0.00,0.00,0.00
2026-06-26 18:38:26.885,994.16,994.14,-1.77,-1.76,0.00,1.44,0.22,9.21,-0.00,0.00,0.00,0.00
2026-06-26 18:38:26.887,994.16,994.14,-1.77,-1.76,0.00,1.44,0.22,9.21,-0.00,0.00,0.00,0.00
2026-06-26 18:38:26.892,994.16,994.14,-1.77,-1.76,0.00,1.44,0.22,9.21,-0.00,0.00,0.00,0.00
2026-06-26 18:38:26.893,994.16,994.14,-1.77,-1.76,0.00,1.44,0.22,9.22,0.00,-0.00,0.00,0.00
2026-06-26 18:38:26.894,994.16,994.14,-1.77,-1.76,0.00,1.44,0.22,9.22,0.00,-0.00,0.00,0.00
2026-06-26 18:38:26.896,994.16,994.14,-1.77,-1.76,0.00,1.44,0.22,9.22,0.00,-0.00,0.00,0.00
2026-06-26 18:38:26.897,994.16,994.14,-1.77,-1.76,0.00,1.44,0.22,9.22,0.00,-0.00,0.00,0.00
2026-06-26 18:38:26.898,994.16,994.14,-1.77,-1.76,0.00,1.44,0.22,9.22,0.00,-0.00,0.00,0.00
2026-06-26 18:38:26.899,994.16,994.14,-1.77,-1.76,0.00,1.44,0.22,9.22,0.00,-0.00,0.00,0.00
2026-06-26 18:38:26.902,994.16,994.14,-1.77,-1.76,0.00,1.44,0.22,9.22,0.00,-0.00,0.00,0.00
2026-06-26 18:38:26.903,994.16,994.14,-1.77,-1.76,0.00,1.44,0.21,9.22,0.00,-0.00,0.00,0.00
2026-06-26 18:38:26.904,994.16,994.14,-1.77,-1.76,0.00,1.44,0.21,9.22,0.00,-0.00,0.00,0.00
2026-06-26 18:38:26.906,994.16,994.14,-1.77,-1.76,0.00,1.44,0.21,9.22,0.00,-0.00,0.00,0.00
2026-06-26 18:38:26.989,994.16,994.15,-1.43,-1.59,0.00,1.45,0.22,9.22,0.00,-0.00,0.00,0.00
2026-06-26 18:38:26.993,994.16,994.15,-1.43,-1.59,0.00,1.45,0.22,9.22,0.00,-0.00,-0.00,0.00
2026-06-26 18:38:26.994,994.16,994.15,-1.43,-1.59,0.00,1.45,0.23,9.22,0.00,-0.00,-0.00,0.00
2026-06-26 18:38:26.995,994.16,994.15,-1.43,-1.59,0.00,1.45,0.23,9.22,0.00,-0.00,-0.00,0.00
2026-06-26 18:38:26.998,994.16,994.15,-1.43,-1.59,0.00,1.45,0.23,9.22,0.00,-0.00,-0.00,0.00
2026-06-26 18:38:26.999,994.16,994.15,-1.43,-1.59,0.00,1.45,0.23,9.22,0.00,-0.00,-0.00,0.00
2026-06-26 18:38:26.000,994.16,994.15,-1.43,-1.59,0.00,1.45,0.23,9.22,0.00,-0.00,-0.00,0.00
2026-06-26 18:38:26.003,994.16,994.15,-1.43,-1.59,0.00,1.45,0.23,9.22,0.00,-0.00,0.00,0.00
2026-06-26 18:38:27.004,994.16,994.15,-1.43,-1.59,0.00,1.44,0.22,9.24,0.00,-0.00,0.00,0.00
2026-06-26 18:38:27.005,994.16,994.15,-1.43,-1.59,0.00,1.44,0.22,9.24,0.00,-0.00,0.00,0.00
2026-06-26 18:38:27.006,994.16,994.15,-1.43,-1.59,0.00,1.44,0.22,9.24,0.00,-0.00,0.00,0.00
2026-06-26 18:38:27.010,994.16,994.15,-1.43,-1.59,0.00,1.44,0.22,9.24,0.00,-0.00,0.00,0.00
2026-06-26 18:38:27.013,994.16,994.15,-1.43,-1.59,0.00,1.44,0.22,9.24,-0.00,-0.00,-0.00,0.00
2026-06-26 18:38:27.014,994.16,994.15,-1.43,-1.59,0.00,1.43,0.22,9.22,-0.00,-0.00,-0.00,0.00
2026-06-26 18:38:27.015,994.16,994.15,-1.43,-1.59,0.00,1.43,0.22,9.22,-0.00,-0.00,-0.00,0.00
2026-06-26 18:38:27.016,994.16,994.15,-1.43,-1.59,0.00,1.43,0.22,9.22,-0.00,-0.00,-0.00,0.00
2026-06-26 18:38:27.020,994.16,994.15,-1.43,-1.59,0.00,1.43,0.22,9.22,-0.00,-0.00,-0.00,0.00
2026-06-26 18:38:27.023,994.16,994.15,-1.43,-1.59,0.00,1.43,0.22,9.22,-0.00,0.00,0.00,0.00
2026-06-26 18:38:27.024,994.16,994.15,-1.43,-1.59,0.00,1.47,0.22,9.22,-0.00,0.00,0.00,0.00
2026-06-26 18:38:27.025,994.16,994.15,-1.43,-1.59,0.00,1.47,0.22,9.22,-0.00,0.00,0.00,0.00
2026-06-26 18:38:27.026,994.16,994.15,-1.43,-1.59,0.00,1.47,0.22,9.22,-0.00,0.00,0.00,0.00
2026-06-26 18:38:27.028,994.16,994.15,-1.43,-1.59,0.00,1.47,0.22,9.22,-0.00,0.00,0.00,0.00
2026-06-26 18:38:27.032,994.16,994.15,-1.43,-1.59,0.00,1.47,0.22,9.22,-0.00,0.00,0.00,0.00
2026-06-26 18:38:27.033,994.16,994.15,-1.43,-1.59,0.00,1.45,0.22,9.21,-0.00,0.00,0.00,0.00
2026-06-26 18:38:27.035,994.16,994.15,-1.43,-1.59,0.00,1.45,0.22,9.21,-0.00,0.00,0.00,0.00
2026-06-26 18:38:27.036,994.16,994.15,-1.43,-1.59,0.00,1.45,0.22,9.21,-0.00,0.00,0.00,0.00
2026-06-26 18:38:27.038,994.16,994.15,-1.43,-1.59,0.00,1.45,0.22,9.21,-0.00,0.00,0.00,0.00
2026-06-26 18:38:27.042,994.16,994.15,-1.43,-1.59,0.00,1.45,0.22,9.21,-0.00,0.00,0.00,0.00
2026-06-26 18:38:27.044,994.16,994.15,-1.43,-1.59,0.00,1.43,0.21,9.23,-0.00,-0.00,0.00,0.00
2026-06-26 18:38:27.045,994.16,994.15,-1.43,-1.59,0.00,1.43,0.21,9.23,-0.00,-0.00,0.00,0.00
2026-06-26 18:38:27.046,994.16,994.15,-1.43,-1.59,0.00,1.43,0.21,9.23,-0.00,-0.00,0.00,0.00
2026-06-26 18:38:27.128,994.16,994.15,-1.45,-1.60,0.00,1.46,0.22,9.19,-0.00,0.00,-0.00,0.00
2026-06-26 18:38:27.133,994.16,994.15,-1.45,-1.60,0.00,1.46,0.22,9.19,-0.00,0.00,0.00,0.00
2026-06-26 18:38:27.134,994.16,994.15,-1.45,-1.60,0.00,1.46,0.22,9.19,-0.00,0.00,0.00,0.00
2026-06-26 18:38:27.135,994.16,994.15,-1.45,-1.60,0.00,1.46,0.22,9.19,-0.00,0.00,0.00,0.00
2026-06-26 18:38:27.136,994.16,994.15,-1.45,-1.60,0.00,1.46,0.22,9.19,-0.00,0.00,0.00,0.00
2026-06-26 18:38:27.139,994.16,994.15,-1.45,-1.60,0.00,1.46,0.22,9.19,-0.00,0.00,0.00,0.00
2026-06-26 18:38:27.143,994.16,994.15,-1.45,-1.60,0.00,1.46,0.22,9.19,-0.00,0.00,-0.00,0.00
2026-06-26 18:38:27.144,994.16,994.15,-1.45,-1.60,0.00,1.46,0.19,9.23,-0.00,0.00,-0.00,0.00
2026-06-26 18:38:27.145,994.16,994.15,-1.45,-1.60,0.00,1.46,0.19,9.23,-0.00,0.00,-0.00,0.00
2026-06-26 18:38:27.146,994.16,994.15,-1.45,-1.60,0.00,1.46,0.19,9.23,-0.00,0.00,-0.00,0.00
2026-06-26 18:38:27.147,994.16,994.15,-1.45,-1.60,0.00,1.46,0.19,9.23,-0.00,0.00,-0.00,0.00
2026-06-26 18:38:27.149,994.16,994.15,-1.45,-1.60,0.00,1.46,0.19,9.23,-0.00,0.00,-0.00,0.00
2026-06-26 18:38:27.150,994.16,994.15,-1.45,-1.60,0.00,1.46,0.19,9.23,-0.00,0.00,-0.00,0.00
2026-06-26 18:38:27.152,994.16,994.15,-1.45,-1.60,0.00,1.46,0.19,9.23,-0.00,0.00,-0.00,0.00
2026-06-26 18:38:27.154,994.16,994.15,-1.45,-1.60,0.00,1.44,0.25,9.23,-0.00,0.00,-0.00,0.00
2026-06-26 18:38:27.155,994.16,994.15,-1.45,-1.60,0.00,1.44,0.25,9.23,-0.00,0.00,-0.00,0.00
2026-06-26 18:38:27.156,994.16,994.15,-1.45,-1.60,0.00,1.44,0.25,9.23,-0.00,0.00,-0.00,0.00
2026-06-26 18:38:27.158,994.16,994.15,-1.45,-1.60,0.00,1.44,0.25,9.23,-0.00,0.00,-0.00,0.00
2026-06-26 18:38:27.162,994.16,994.15,-1.45,-1.60,0.00,1.44,0.25,9.23,-0.00,0.00,-0.00,0.00
2026-06-26 18:38:27.164,994.16,994.15,-1.45,-1.60,0.00,1.45,0.19,9.19,0.00,-0.00,-0.00,0.00
2026-06-26 18:38:27.165,994.16,994.15,-1.45,-1.60,0.00,1.45,0.19,9.19,0.00,-0.00,-0.00,0.00
2026-06-26 18:38:27.166,994.16,994.15,-1.45,-1.60,0.00,1.45,0.19,9.19,0.00,-0.00,-0.00,0.00
2026-06-26 18:38:27.168,994.16,994.15,-1.45,-1.60,0.00,1.45,0.19,9.19,0.00,-0.00,-0.00,0.00
2026-06-26 18:38:27.173,994.16,994.15,-1.45,-1.60,0.00,1.45,0.19,9.19,0.00,0.00,0.00,0.00
2026-06-26 18:38:27.174,994.16,994.15,-1.45,-1.60,0.00,1.45,0.23,9.20,0.00,0.00,0.00,0.00
2026-06-26 18:38:27.175,994.16,994.15,-1.45,-1.60,0.00,1.45,0.23,9.20,0.00,0.00,0.00,0.00
2026-06-26 18:38:27.176,994.16,994.15,-1.45,-1.60,0.00,1.45,0.23,9.20,0.00,0.00,0.00,0.00
2026-06-26 18:38:27.179,994.16,994.15,-1.45,-1.60,0.00,1.45,0.23,9.20,0.00,0.00,0.00,0.00
2026-06-26 18:38:27.183,994.16,994.15,-1.45,-1.60,0.00,1.45,0.23,9.20,-0.00,0.00,0.00,0.00
2026-06-26 18:38:27.184,994.16,994.15,-1.45,-1.60,0.00,1.47,0.22,9.22,-0.00,0.00,0.00,0.00
2026-06-26 18:38:27.185,994.16,994.15,-1.45,-1.60,0.00,1.47,0.22,9.22,-0.00,0.00,0.00,0.00
2026-06-26 18:38:27.186,994.16,994.15,-1.45,-1.60,0.00,1.47,0.22,9.22,-0.00,0.00,0.00,0.00
2026-06-26 18:38:27.272,994.17,994.15,-1.56,-1.66,0.00,1.43,0.20,9.20,0.00,-0.00,0.00,0.00
2026-06-26 18:38:27.273,994.17,994.15,-1.56,-1.66,0.00,1.45,0.23,9.19,0.00,0.00,0.00,0.00
2026-06-26 18:38:27.275,994.17,994.15,-1.56,-1.66,0.00,1.45,0.23,9.19,0.00,0.00,0.00,0.00
2026-06-26 18:38:27.276,994.17,994.15,-1.56,-1.66,0.00,1.45,0.23,9.19,0.00,0.00,0.00,0.00
2026-06-26 18:38:27.277,994.17,994.15,-1.56,-1.66,0.00,1.45,0.23,9.19,0.00,0.00,0.00,0.00
2026-06-26 18:38:27.283,994.17,994.15,-1.56,-1.66,0.00,1.45,0.23,9.19,0.00,0.00,0.00,0.00
2026-06-26 18:38:27.284,994.17,994.15,-1.56,-1.66,0.00,1.45,0.22,9.21,-0.00,0.00,0.00,0.00
2026-06-26 18:38:27.285,994.17,994.15,-1.56,-1.66,0.00,1.45,0.22,9.21,-0.00,0.00,0.00,0.00
2026-06-26 18:38:27.286,994.17,994.15,-1.56,-1.66,0.00,1.45,0.22,9.21,-0.00,0.00,0.00,0.00
2026-06-26 18:38:27.287,994.17,994.15,-1.56,-1.66,0.00,1.45,0.22,9.21,-0.00,0.00,0.00,0.00
2026-06-26 18:38:27.293,994.17,994.15,-1.56,-1.66,0.00,1.45,0.22,9.21,-0.00,0.00,0.00,0.00
2026-06-26 18:38:27.294,994.17,994.15,-1.56,-1.66,0.00,1.45,0.21,9.22,-0.00,0.00,0.00,0.00
2026-06-26 18:38:27.295,994.17,994.15,-1.56,-1.66,0.00,1.45,0.21,9.22,-0.00,0.00,0.00,0.00
2026-06-26 18:38:27.296,994.17,994.15,-1.56,-1.66,0.00,1.45,0.21,9.22,-0.00,0.00,0.00,0.00
2026-06-26 18:38:27.298,994.17,994.15,-1.56,-1.66,0.00,1.45,0.21,9.22,-0.00,0.00,0.00,0.00
2026-06-26 18:38:27.299,994.17,994.15,-1.56,-1.66,0.00,1.45,0.21,9.22,-0.00,0.00,0.00,0.00
2026-06-26 18:38:27.300,994.17,994.15,-1.56,-1.66,0.00,1.45,0.21,9.22,-0.00,0.00,0.00,0.00
2026-06-26 18:38:27.302,994.17,994.15,-1.56,-1.66,0.00,1.45,0.21,9.22,-0.00,0.00,0.00,0.00
2026-06-26 18:38:27.304,994.17,994.15,-1.56,-1.66,0.00,1.45,0.20,9.23,0.00,-0.00,-0.00,0.00
2026-06-26 18:38:27.305,994.17,994.15,-1.56,-1.66,0.00,1.45,0.20,9.23,0.00,-0.00,-0.00,0.00
2026-06-26 18:38:27.306,994.17,994.15,-1.56,-1.66,0.00,1.45,0.20,9.23,0.00,-0.00,-0.00,0.00
2026-06-26 18:38:27.307,994.17,994.15,-1.56,-1.66,0.00,1.45,0.20,9.23,0.00,-0.00,-0.00,0.00
2026-06-26 18:38:27.313,994.17,994.15,-1.56,-1.66,0.00,1.45,0.20,9.23,0.00,-0.00,-0.00,0.00
2026-06-26 18:38:27.314,994.17,994.15,-1.56,-1.66,0.00,1.44,0.24,9.21,-0.00,0.00,-0.00,0.00
2026-06-26 18:38:27.315,994.17,994.15,-1.56,-1.66,0.00,1.44,0.24,9.21,-0.00,0.00,-0.00,0.00
2026-06-26 18:38:27.316,994.17,994.15,-1.56,-1.66,0.00,1.44,0.24,9.21,-0.00,0.00,-0.00,0.00
2026-06-26 18:38:27.317,994.17,994.15,-1.56,-1.66,0.00,1.44,0.24,9.21,-0.00,0.00,-0.00,0.00
2026-06-26 18:38:27.323,994.17,994.15,-1.56,-1.66,0.00,1.44,0.24,9.21,-0.00,0.00,-0.00,0.00
2026-06-26 18:38:27.324,994.17,994.15,-1.56,-1.66,0.00,1.45,0.22,9.20,0.00,0.00,-0.00,0.00
2026-06-26 18:38:27.325,994.17,994.15,-1.56,-1.66,0.00,1.45,0.22,9.20,0.00,0.00,-0.00,0.00
2026-06-26 18:38:27.326,994.17,994.15,-1.56,-1.66,0.00,1.45,0.22,9.20,0.00,0.00,-0.00,0.00
2026-06-26 18:38:27.411,994.16,994.15,-0.94,-1.29,0.00,1.46,0.21,9.20,0.00,0.00,0.00,0.00
2026-06-26 18:38:27.414,994.16,994.15,-0.94,-1.29,0.00,1.44,0.21,9.21,-0.00,-0.00,-0.00,0.00
2026-06-26 18:38:27.415,994.16,994.15,-0.94,-1.29,0.00,1.44,0.21,9.21,-0.00,-0.00,-0.00,0.00
2026-06-26 18:38:27.416,994.16,994.15,-0.94,-1.29,0.00,1.44,0.21,9.21,-0.00,-0.00,-0.00,0.00
2026-06-26 18:38:27.417,994.16,994.15,-0.94,-1.29,0.00,1.44,0.21,9.21,-0.00,-0.00,-0.00,0.00
2026-06-26 18:38:27.421,994.16,994.15,-0.94,-1.29,0.00,1.44,0.21,9.21,-0.00,-0.00,-0.00,0.00
2026-06-26 18:38:27.424,994.16,994.15,-0.94,-1.29,0.00,1.44,0.21,9.21,-0.00,0.00,0.00,0.00
2026-06-26 18:38:27.425,994.16,994.15,-0.94,-1.29,0.00,1.44,0.22,9.19,-0.00,0.00,0.00,0.00
2026-06-26 18:38:27.426,994.16,994.15,-0.94,-1.29,0.00,1.44,0.22,9.19,-0.00,0.00,0.00,0.00
2026-06-26 18:38:27.427,994.16,994.15,-0.94,-1.29,0.00,1.44,0.22,9.19,-0.00,0.00,0.00,0.00
2026-06-26 18:38:27.429,994.16,994.15,-0.94,-1.29,0.00,1.44,0.22,9.19,-0.00,0.00,0.00,0.00
2026-06-26 18:38:27.433,994.16,994.15,-0.94,-1.29,0.00,1.44,0.22,9.19,-0.00,0.00,0.00,0.00
2026-06-26 18:38:27.434,994.16,994.15,-0.94,-1.29,0.00,1.45,0.22,9.23,-0.00,-0.00,0.00,0.00
2026-06-26 18:38:27.435,994.16,994.15,-0.94,-1.29,0.00,1.45,0.22,9.23,-0.00,-0.00,0.00,0.00
2026-06-26 18:38:27.437,994.16,994.15,-0.94,-1.29,0.00,1.45,0.22,9.23,-0.00,-0.00,0.00,0.00
2026-06-26 18:38:27.440,994.16,994.15,-0.94,-1.29,0.00,1.45,0.22,9.23,-0.00,-0.00,0.00,0.00
2026-06-26 18:38:27.444,994.16,994.15,-0.94,-1.29,0.00,1.45,0.22,9.23,0.00,-0.00,-0.00,0.00
2026-06-26 18:38:27.445,994.16,994.15,-0.94,-1.29,0.00,1.45,0.22,9.24,0.00,-0.00,-0.00,0.00
2026-06-26 18:38:27.446,994.16,994.15,-0.94,-1.29,0.00,1.45,0.22,9.24,0.00,-0.00,-0.00,0.00
2026-06-26 18:38:27.447,994.16,994.15,-0.94,-1.29,0.00,1.45,0.22,9.24,0.00,-0.00,-0.00,0.00
2026-06-26 18:38:27.448,994.16,994.15,-0.94,-1.29,0.00,1.45,0.22,9.24,0.00,-0.00,-0.00,0.00
2026-06-26 18:38:27.450,994.16,994.15,-0.94,-1.29,0.00,1.45,0.22,9.24,0.00,-0.00,-0.00,0.00
2026-06-26 18:38:27.451,994.16,994.15,-0.94,-1.29,0.00,1.45,0.22,9.24,0.00,-0.00,-0.00,0.00
2026-06-26 18:38:27.453,994.16,994.15,-0.94,-1.29,0.00,1.45,0.22,9.24,0.00,-0.00,-0.00,0.00
2026-06-26 18:38:27.455,994.16,994.15,-0.94,-1.29,0.00,1.43,0.22,9.23,-0.00,0.00,-0.00,0.00
2026-06-26 18:38:27.456,994.16,994.15,-0.94,-1.29,0.00,1.43,0.22,9.23,-0.00,0.00,-0.00,0.00
2026-06-26 18:38:27.460,994.16,994.15,-0.94,-1.29,0.00,1.43,0.22,9.23,-0.00,0.00,-0.00,0.00
2026-06-26 18:38:27.464,994.16,994.15,-0.94,-1.29,0.00,1.43,0.22,9.23,0.00,-0.00,0.00,0.00
2026-06-26 18:38:27.465,994.16,994.15,-0.94,-1.29,0.00,1.45,0.23,9.20,0.00,-0.00,0.00,0.00
2026-06-26 18:38:27.466,994.16,994.15,-0.94,-1.29,0.00,1.45,0.23,9.20,0.00,-0.00,0.00,0.00
2026-06-26 18:38:27.467,994.16,994.15,-0.94,-1.29,0.00,1.45,0.23,9.20,0.00,-0.00,0.00,0.00
2026-06-26 18:38:27.548,994.16,994.15,-1.13,-1.41,0.00,1.46,0.22,9.21,0.00,0.00,0.00,0.00
2026-06-26 18:38:27.550,994.16,994.15,-1.13,-1.41,0.00,1.46,0.22,9.21,0.00,0.00,0.00,0.00
2026-06-26 18:38:27.553,994.16,994.15,-1.13,-1.41,0.00,1.46,0.22,9.21,0.00,0.00,0.00,0.00
2026-06-26 18:38:27.554,994.16,994.15,-1.13,-1.41,0.00,1.47,0.22,9.22,0.00,0.00,-0.00,0.00
2026-06-26 18:38:27.555,994.16,994.15,-1.13,-1.41,0.00,1.47,0.22,9.22,0.00,0.00,-0.00,0.00
2026-06-26 18:38:27.557,994.16,994.15,-1.13,-1.41,0.00,1.47,0.22,9.22,0.00,0.00,-0.00,0.00
2026-06-26 18:38:27.558,994.16,994.15,-1.13,-1.41,0.00,1.47,0.22,9.22,0.00,0.00,-0.00,0.00
2026-06-26 18:38:27.563,994.16,994.15,-1.13,-1.41,0.00,1.47,0.22,9.22,0.00,0.00,-0.00,0.00
2026-06-26 18:38:27.565,994.16,994.15,-1.13,-1.41,0.00,1.42,0.22,9.25,0.00,0.00,0.00,0.00
2026-06-26 18:38:27.566,994.16,994.15,-1.13,-1.41,0.00,1.42,0.22,9.25,0.00,0.00,0.00,0.00
2026-06-26 18:38:27.567,994.16,994.15,-1.13,-1.41,0.00,1.42,0.22,9.25,0.00,0.00,0.00,0.00
2026-06-26 18:38:27.569,994.16,994.15,-1.13,-1.41,0.00,1.42,0.22,9.25,0.00,0.00,0.00,0.00
2026-06-26 18:38:27.573,994.16,994.15,-1.13,-1.41,0.00,1.42,0.22,9.25,0.00,0.00,0.00,0.00
2026-06-26 18:38:27.575,994.16,994.15,-1.13,-1.41,0.00,1.47,0.21,9.20,0.00,0.00,-0.00,0.00
2026-06-26 18:38:27.576,994.16,994.15,-1.13,-1.41,0.00,1.47,0.21,9.20,0.00,0.00,-0.00,0.00
2026-06-26 18:38:27.577,994.16,994.15,-1.13,-1.41,0.00,1.47,0.21,9.20,0.00,0.00,-0.00,0.00
2026-06-26 18:38:27.579,994.16,994.15,-1.13,-1.41,0.00,1.47,0.21,9.20,0.00,0.00,-0.00,0.00
2026-06-26 18:38:27.583,994.16,994.15,-1.13,-1.41,0.00,1.47,0.21,9.20,0.00,0.00,-0.00,0.00
2026-06-26 18:38:27.585,994.16,994.15,-1.13,-1.41,0.00,1.45,0.22,9.18,0.00,0.00,0.00,0.00
2026-06-26 18:38:27.586,994.16,994.15,-1.13,-1.41,0.00,1.45,0.22,9.18,0.00,0.00,0.00,0.00
2026-06-26 18:38:27.587,994.16,994.15,-1.13,-1.41,0.00,1.45,0.22,9.18,0.00,0.00,0.00,0.00
2026-06-26 18:38:27.589,994.16,994.15,-1.13,-1.41,0.00,1.45,0.22,9.18,0.00,0.00,0.00,0.00
2026-06-26 18:38:27.594,994.16,994.15,-1.13,-1.41,0.00,1.45,0.22,9.18,0.00,0.00,0.00,0.00
2026-06-26 18:38:27.595,994.16,994.15,-1.13,-1.41,0.00,1.45,0.23,9.21,0.00,-0.00,-0.00,0.00
2026-06-26 18:38:27.596,994.16,994.15,-1.13,-1.41,0.00,1.45,0.23,9.21,0.00,-0.00,-0.00,0.00
2026-06-26 18:38:27.597,994.16,994.15,-1.13,-1.41,0.00,1.45,0.23,9.21,0.00,-0.00,-0.00,0.00
2026-06-26 18:38:27.598,994.16,994.15,-1.13,-1.41,0.00,1.45,0.23,9.21,0.00,-0.00,-0.00,0.00
2026-06-26 18:38:27.600,994.16,994.15,-1.13,-1.41,0.00,1.45,0.23,9.21,0.00,-0.00,-0.00,0.00
2026-06-26 18:38:27.601,994.16,994.15,-1.13,-1.41,0.00,1.45,0.23,9.21,0.00,-0.00,-0.00,0.00
2026-06-26 18:38:27.603,994.16,994.15,-1.13,-1.41,0.00,1.45,0.23,9.21,0.00,-0.00,-0.00,0.00
2026-06-26 18:38:27.605,994.16,994.15,-1.13,-1.41,0.00,1.45,0.21,9.24,0.00,0.00,-0.00,0.00
2026-06-26 18:38:27.606,994.16,994.15,-1.13,-1.41,0.00,1.45,0.21,9.24,0.00,0.00,-0.00,0.00
2026-06-26 18:38:27.607,994.16,994.15,-1.13,-1.41,0.00,1.45,0.21,9.24,0.00,0.00,-0.00,0.00
2026-06-26 18:38:27.694,994.16,994.15,-1.28,-1.50,0.00,1.44,0.22,9.20,0.00,0.00,-0.00,0.00
2026-06-26 18:38:27.695,994.16,994.15,-1.28,-1.50,0.00,1.45,0.22,9.22,0.00,-0.00,0.00,0.00
2026-06-26 18:38:27.696,994.16,994.15,-1.28,-1.50,0.00,1.45,0.22,9.22,0.00,-0.00,0.00,0.00
2026-06-26 18:38:27.698,994.16,994.15,-1.28,-1.50,0.00,1.45,0.22,9.22,0.00,-0.00,0.00,0.00
2026-06-26 18:38:27.699,994.16,994.15,-1.28,-1.50,0.00,1.45,0.22,9.22,0.00,-0.00,0.00,0.00
2026-06-26 18:38:27.700,994.16,994.15,-1.28,-1.50,0.00,1.45,0.22,9.22,0.00,-0.00,0.00,0.00
2026-06-26 18:38:27.701,994.16,994.15,-1.28,-1.50,0.00,1.45,0.22,9.22,0.00,-0.00,0.00,0.00
2026-06-26 18:38:27.704,994.16,994.15,-1.28,-1.50,0.00,1.45,0.22,9.22,0.00,-0.00,0.00,0.00
2026-06-26 18:38:27.705,994.16,994.15,-1.28,-1.50,0.00,1.46,0.21,9.21,0.00,-0.00,0.00,0.00
2026-06-26 18:38:27.706,994.16,994.15,-1.28,-1.50,0.00,1.46,0.21,9.21,0.00,-0.00,0.00,0.00
2026-06-26 18:38:27.707,994.16,994.15,-1.28,-1.50,0.00,1.46,0.21,9.21,0.00,-0.00,0.00,0.00
2026-06-26 18:38:27.710,994.16,994.15,-1.28,-1.50,0.00,1.46,0.21,9.21,0.00,-0.00,0.00,0.00
2026-06-26 18:38:27.714,994.16,994.15,-1.28,-1.50,0.00,1.46,0.21,9.21,-0.00,-0.00,0.00,0.00
2026-06-26 18:38:27.715,994.16,994.15,-1.28,-1.50,0.00,1.45,0.22,9.21,-0.00,-0.00,0.00,0.00
2026-06-26 18:38:27.717,994.16,994.15,-1.28,-1.50,0.00,1.45,0.22,9.21,-0.00,-0.00,0.00,0.00
2026-06-26 18:38:27.718,994.16,994.15,-1.28,-1.50,0.00,1.45,0.22,9.21,-0.00,-0.00,0.00,0.00
2026-06-26 18:38:27.722,994.16,994.15,-1.28,-1.50,0.00,1.45,0.22,9.21,-0.00,-0.00,0.00,0.00
2026-06-26 18:38:27.724,994.16,994.15,-1.28,-1.50,0.00,1.45,0.22,9.21,0.00,0.00,0.00,0.00
2026-06-26 18:38:27.726,994.16,994.15,-1.28,-1.50,0.00,1.43,0.21,9.17,0.00,0.00,0.00,0.00
2026-06-26 18:38:27.727,994.16,994.15,-1.28,-1.50,0.00,1.43,0.21,9.17,0.00,0.00,0.00,0.00
2026-06-26 18:38:27.728,994.16,994.15,-1.28,-1.50,0.00,1.43,0.21,9.17,0.00,0.00,0.00,0.00
2026-06-26 18:38:27.729,994.16,994.15,-1.28,-1.50,0.00,1.43,0.21,9.17,0.00,0.00,0.00,0.00
2026-06-26 18:38:27.734,994.16,994.15,-1.28,-1.50,0.00,1.43,0.21,9.17,0.00,0.00,0.00,0.00
2026-06-26 18:38:27.735,994.16,994.15,-1.28,-1.50,0.00,1.46,0.21,9.21,0.00,-0.00,0.00,0.00
2026-06-26 18:38:27.736,994.16,994.15,-1.28,-1.50,0.00,1.46,0.21,9.21,0.00,-0.00,0.00,0.00
2026-06-26 18:38:27.737,994.16,994.15,-1.28,-1.50,0.00,1.46,0.21,9.21,0.00,-0.00,0.00,0.00
2026-06-26 18:38:27.740,994.16,994.15,-1.28,-1.50,0.00,1.46,0.21,9.21,0.00,-0.00,0.00,0.00
2026-06-26 18:38:27.744,994.16,994.15,-1.28,-1.50,0.00,1.46,0.21,9.21,0.00,0.00,0.00,0.00
2026-06-26 18:38:27.745,994.16,994.15,-1.28,-1.50,0.00,1.46,0.21,9.21,0.00,0.00,0.00,0.00
2026-06-26 18:38:27.747,994.16,994.15,-1.28,-1.50,0.00,1.46,0.21,9.21,0.00,0.00,0.00,0.00
2026-06-26 18:38:27.748,994.16,994.15,-1.28,-1.50,0.00,1.46,0.21,9.21,0.00,0.00,0.00,0.00
2026-06-26 18:38:27.833,994.16,994.15,-1.16,-1.43,0.00,1.45,0.21,9.19,0.00,0.00,-0.00,0.00
2026-06-26 18:38:27.835,994.16,994.15,-1.16,-1.43,0.00,1.44,0.22,9.21,0.00,0.01,-0.00,0.00
2026-06-26 18:38:27.836,994.16,994.15,-1.16,-1.43,0.00,1.44,0.22,9.21,0.00,0.01,-0.00,0.00
2026-06-26 18:38:27.837,994.16,994.15,-1.16,-1.43,0.00,1.44,0.22,9.21,0.00,0.01,-0.00,0.00
2026-06-26 18:38:27.839,994.16,994.15,-1.16,-1.43,0.00,1.44,0.22,9.21,0.00,0.01,-0.00,0.00
2026-06-26 18:38:27.844,994.16,994.15,-1.16,-1.43,0.00,1.44,0.22,9.21,0.00,0.01,-0.00,0.00
2026-06-26 18:38:27.845,994.16,994.15,-1.16,-1.43,0.00,1.46,0.22,9.21,-0.00,0.00,0.00,0.00
2026-06-26 18:38:27.847,994.16,994.15,-1.16,-1.43,0.00,1.46,0.22,9.21,-0.00,0.00,0.00,0.00
2026-06-26 18:38:27.848,994.16,994.15,-1.16,-1.43,0.00,1.46,0.22,9.21,-0.00,0.00,0.00,0.00
2026-06-26 18:38:27.849,994.16,994.15,-1.16,-1.43,0.00,1.46,0.22,9.21,-0.00,0.00,0.00,0.00
2026-06-26 18:38:27.850,994.16,994.15,-1.16,-1.43,0.00,1.46,0.22,9.21,-0.00,0.00,0.00,0.00
2026-06-26 18:38:27.851,994.16,994.15,-1.16,-1.43,0.00,1.46,0.22,9.21,-0.00,0.00,0.00,0.00
2026-06-26 18:38:27.854,994.16,994.15,-1.16,-1.43,0.00,1.46,0.22,9.21,-0.00,0.00,0.00,0.00
2026-06-26 18:38:27.855,994.16,994.15,-1.16,-1.43,0.00,1.44,0.22,9.24,0.00,0.00,-0.00,0.00
2026-06-26 18:38:27.856,994.16,994.15,-1.16,-1.43,0.00,1.44,0.22,9.24,0.00,0.00,-0.00,0.00
2026-06-26 18:38:27.858,994.16,994.15,-1.16,-1.43,0.00,1.44,0.22,9.24,0.00,0.00,-0.00,0.00
2026-06-26 18:38:27.860,994.16,994.15,-1.16,-1.43,0.00,1.44,0.22,9.24,0.00,0.00,-0.00,0.00
2026-06-26 18:38:27.864,994.16,994.15,-1.16,-1.43,0.00,1.44,0.22,9.24,-0.00,0.00,0.00,0.00
2026-06-26 18:38:27.865,994.16,994.15,-1.16,-1.43,0.00,1.44,0.21,9.19,-0.00,0.00,0.00,0.00
2026-06-26 18:38:27.867,994.16,994.15,-1.16,-1.43,0.00,1.44,0.21,9.19,-0.00,0.00,0.00,0.00
2026-06-26 18:38:27.868,994.16,994.15,-1.16,-1.43,0.00,1.44,0.21,9.19,-0.00,0.00,0.00,0.00
2026-06-26 18:38:27.871,994.16,994.15,-1.16,-1.43,0.00,1.44,0.21,9.19,-0.00,0.00,0.00,0.00
2026-06-26 18:38:27.874,994.16,994.15,-1.16,-1.43,0.00,1.44,0.21,9.19,0.00,0.00,0.00,0.00
2026-06-26 18:38:27.876,994.16,994.15,-1.16,-1.43,0.00,1.45,0.22,9.21,0.00,0.00,0.00,0.00
2026-06-26 18:38:27.877,994.16,994.15,-1.16,-1.43,0.00,1.45,0.22,9.21,0.00,0.00,0.00,0.00
2026-06-26 18:38:27.878,994.16,994.15,-1.16,-1.43,0.00,1.45,0.22,9.21,0.00,0.00,0.00,0.00
2026-06-26 18:38:27.881,994.16,994.15,-1.16,-1.43,0.00,1.45,0.22,9.21,0.00,0.00,0.00,0.00
2026-06-26 18:38:27.884,994.16,994.15,-1.16,-1.43,0.00,1.45,0.22,9.21,0.00,0.00,0.00,0.00
2026-06-26 18:38:27.886,994.16,994.15,-1.16,-1.43,0.00,1.43,0.23,9.19,0.00,0.00,0.00,0.00
2026-06-26 18:38:27.887,994.16,994.15,-1.16,-1.43,0.00,1.43,0.23,9.19,0.00,0.00,0.00,0.00
2026-06-26 18:38:27.888,994.16,994.15,-1.16,-1.43,0.00,1.43,0.23,9.19,0.00,0.00,0.00,0.00
2026-06-26 18:38:27.974,994.16,994.14,-1.22,-1.47,0.00,1.46,0.22,9.19,0.00,0.00,0.00,0.00
2026-06-26 18:38:27.976,994.16,994.14,-1.22,-1.47,0.00,1.47,0.21,9.18,-0.00,0.00,0.00,0.00
2026-06-26 18:38:27.978,994.16,994.14,-1.22,-1.47,0.00,1.47,0.21,9.18,-0.00,0.00,0.00,0.00
2026-06-26 18:38:27.984,994.16,994.14,-1.22,-1.47,0.00,1.47,0.21,9.18,-0.00,0.00,0.00,0.00
2026-06-26 18:38:27.986,994.16,994.14,-1.22,-1.47,0.00,1.46,0.22,9.18,0.00,-0.00,0.00,0.00
2026-06-26 18:38:27.988,994.16,994.14,-1.22,-1.47,0.00,1.46,0.22,9.18,0.00,-0.00,0.00,0.00
2026-06-26 18:38:27.992,994.16,994.14,-1.22,-1.47,0.00,1.46,0.22,9.18,0.00,-0.00,0.00,0.00
2026-06-26 18:38:27.995,994.16,994.14,-1.22,-1.47,0.00,1.46,0.22,9.18,-0.00,-0.00,0.00,0.00
2026-06-26 18:38:27.996,994.16,994.14,-1.22,-1.47,0.00,1.45,0.24,9.20,-0.00,-0.00,0.00,0.00
2026-06-26 18:38:27.997,994.16,994.14,-1.22,-1.47,0.00,1.45,0.24,9.20,-0.00,-0.00,0.00,0.00
2026-06-26 18:38:27.999,994.16,994.14,-1.22,-1.47,0.00,1.45,0.24,9.20,-0.00,-0.00,0.00,0.00
2026-06-26 18:38:27.000,994.16,994.14,-1.22,-1.47,0.00,1.45,0.24,9.20,-0.00,-0.00,0.00,0.00
2026-06-26 18:38:27.001,994.16,994.14,-1.22,-1.47,0.00,1.45,0.24,9.20,-0.00,-0.00,0.00,0.00
2026-06-26 18:38:27.002,994.16,994.14,-1.22,-1.47,0.00,1.45,0.24,9.20,-0.00,-0.00,0.00,0.00
2026-06-26 18:38:28.004,994.16,994.14,-1.22,-1.47,0.00,1.45,0.24,9.20,-0.00,-0.00,0.00,0.00
2026-06-26 18:38:28.007,994.16,994.14,-1.22,-1.47,0.00,1.44,0.22,9.22,0.00,-0.00,-0.00,0.00
2026-06-26 18:38:28.008,994.16,994.14,-1.22,-1.47,0.00,1.44,0.22,9.22,0.00,-0.00,-0.00,0.00
2026-06-26 18:38:28.012,994.16,994.14,-1.22,-1.47,0.00,1.44,0.22,9.22,0.00,-0.00,-0.00,0.00
2026-06-26 18:38:28.015,994.16,994.14,-1.22,-1.47,0.00,1.44,0.22,9.22,0.00,-0.00,0.00,0.00
2026-06-26 18:38:28.016,994.16,994.14,-1.22,-1.47,0.00,1.44,0.22,9.23,0.00,-0.00,0.00,0.00
2026-06-26 18:38:28.017,994.16,994.14,-1.22,-1.47,0.00,1.44,0.22,9.23,0.00,-0.00,0.00,0.00
2026-06-26 18:38:28.018,994.16,994.14,-1.22,-1.47,0.00,1.44,0.22,9.23,0.00,-0.00,0.00,0.00
2026-06-26 18:38:28.022,994.16,994.14,-1.22,-1.47,0.00,1.44,0.22,9.23,0.00,-0.00,0.00,0.00
2026-06-26 18:38:28.025,994.16,994.14,-1.22,-1.47,0.00,1.44,0.22,9.23,0.00,-0.00,0.00,0.00
2026-06-26 18:38:28.026,994.16,994.14,-1.22,-1.47,0.00,1.46,0.22,9.20,0.00,-0.00,0.00,0.00
2026-06-26 18:38:28.027,994.16,994.14,-1.22,-1.47,0.00,1.46,0.22,9.20,0.00,-0.00,0.00,0.00
2026-06-26 18:38:28.029,994.16,994.14,-1.22,-1.47,0.00,1.46,0.22,9.20,0.00,-0.00,0.00,0.00
2026-06-26 18:38:28.114,994.16,994.14,-1.53,-1.64,0.00,1.44,0.22,9.22,0.00,-0.00,0.00,0.00
2026-06-26 18:38:28.116,994.16,994.14,-1.53,-1.64,0.00,1.43,0.22,9.19,0.00,-0.00,0.00,0.00
2026-06-26 18:38:28.117,994.16,994.14,-1.53,-1.64,0.00,1.43,0.22,9.19,0.00,-0.00,0.00,0.00
2026-06-26 18:38:28.118,994.16,994.14,-1.53,-1.64,0.00,1.43,0.22,9.19,0.00,-0.00,0.00,0.00
2026-06-26 18:38:28.120,994.16,994.14,-1.53,-1.64,0.00,1.43,0.22,9.19,0.00,-0.00,0.00,0.00
2026-06-26 18:38:28.125,994.16,994.14,-1.53,-1.64,0.00,1.43,0.22,9.19,0.00,-0.00,0.00,0.00
2026-06-26 18:38:28.126,994.16,994.14,-1.53,-1.64,0.00,1.44,0.21,9.20,0.00,-0.00,-0.00,0.00
2026-06-26 18:38:28.127,994.16,994.14,-1.53,-1.64,0.00,1.44,0.21,9.20,0.00,-0.00,-0.00,0.00
2026-06-26 18:38:28.128,994.16,994.14,-1.53,-1.64,0.00,1.44,0.21,9.20,0.00,-0.00,-0.00,0.00
2026-06-26 18:38:28.130,994.16,994.14,-1.53,-1.64,0.00,1.44,0.21,9.20,0.00,-0.00,-0.00,0.00
2026-06-26 18:38:28.133,994.16,994.14,-1.53,-1.64,0.00,1.44,0.21,9.20,0.00,-0.00,-0.00,0.00
2026-06-26 18:38:28.135,994.16,994.14,-1.53,-1.64,0.00,1.45,0.21,9.21,0.00,-0.00,0.00,0.00
2026-06-26 18:38:28.137,994.16,994.14,-1.53,-1.64,0.00,1.45,0.21,9.21,0.00,-0.00,0.00,0.00
2026-06-26 18:38:28.138,994.16,994.14,-1.53,-1.64,0.00,1.45,0.21,9.21,0.00,-0.00,0.00,0.00
2026-06-26 18:38:28.139,994.16,994.14,-1.53,-1.64,0.00,1.45,0.21,9.21,0.00,-0.00,0.00,0.00
2026-06-26 18:38:28.144,994.16,994.14,-1.53,-1.64,0.00,1.45,0.21,9.21,0.00,-0.00,0.00,0.00
2026-06-26 18:38:28.146,994.16,994.14,-1.53,-1.64,0.00,1.44,0.21,9.22,0.00,0.00,0.00,0.00
2026-06-26 18:38:28.147,994.16,994.14,-1.53,-1.64,0.00,1.44,0.21,9.22,0.00,0.00,0.00,0.00
2026-06-26 18:38:28.148,994.16,994.14,-1.53,-1.64,0.00,1.44,0.21,9.22,0.00,0.00,0.00,0.00
2026-06-26 18:38:28.149,994.16,994.14,-1.53,-1.64,0.00,1.44,0.21,9.22,0.00,0.00,0.00,0.00
2026-06-26 18:38:28.150,994.16,994.14,-1.53,-1.64,0.00,1.44,0.21,9.22,0.00,0.00,0.00,0.00
2026-06-26 18:38:28.152,994.16,994.14,-1.53,-1.64,0.00,1.44,0.21,9.22,0.00,0.00,0.00,0.00
2026-06-26 18:38:28.153,994.16,994.14,-1.53,-1.64,0.00,1.44,0.21,9.22,0.00,0.00,0.00,0.00
2026-06-26 18:38:28.155,994.16,994.14,-1.53,-1.64,0.00,1.44,0.21,9.22,-0.00,0.00,0.00,0.00
2026-06-26 18:38:28.156,994.16,994.14,-1.53,-1.64,0.00,1.45,0.21,9.23,-0.00,0.00,0.00,0.00
2026-06-26 18:38:28.158,994.16,994.14,-1.53,-1.64,0.00,1.45,0.21,9.23,-0.00,0.00,0.00,0.00
2026-06-26 18:38:28.159,994.16,994.14,-1.53,-1.64,0.00,1.45,0.21,9.23,-0.00,0.00,0.00,0.00
2026-06-26 18:38:28.163,994.16,994.14,-1.53,-1.64,0.00,1.45,0.21,9.23,-0.00,0.00,0.00,0.00
2026-06-26 18:38:28.165,994.16,994.14,-1.53,-1.64,0.00,1.45,0.21,9.23,0.00,0.00,-0.00,0.00
2026-06-26 18:38:28.166,994.16,994.14,-1.53,-1.64,0.00,1.45,0.21,9.21,0.00,0.00,-0.00,0.00
2026-06-26 18:38:28.168,994.16,994.14,-1.53,-1.64,0.00,1.45,0.21,9.21,0.00,0.00,-0.00,0.00
2026-06-26 18:38:28.169,994.16,994.14,-1.53,-1.64,0.00,1.45,0.21,9.21,0.00,0.00,-0.00,0.00
2026-06-26 18:38:28.250,994.16,994.14,-1.71,-1.74,0.00,1.44,0.20,9.22,-0.00,-0.00,0.00,0.00
2026-06-26 18:38:28.251,994.16,994.14,-1.71,-1.74,0.00,1.44,0.20,9.22,-0.00,-0.00,0.00,0.00
2026-06-26 18:38:28.254,994.16,994.14,-1.71,-1.74,0.00,1.44,0.20,9.22,-0.00,-0.00,0.00,0.00
2026-06-26 18:38:28.256,994.16,994.14,-1.71,-1.74,0.00,1.44,0.22,9.21,0.00,-0.00,-0.00,0.00
2026-06-26 18:38:28.257,994.16,994.14,-1.71,-1.74,0.00,1.44,0.22,9.21,0.00,-0.00,-0.00,0.00
2026-06-26 18:38:28.258,994.16,994.14,-1.71,-1.74,0.00,1.44,0.22,9.21,0.00,-0.00,-0.00,0.00
2026-06-26 18:38:28.259,994.16,994.14,-1.71,-1.74,0.00,1.44,0.22,9.21,0.00,-0.00,-0.00,0.00
2026-06-26 18:38:28.265,994.16,994.14,-1.71,-1.74,0.00,1.44,0.22,9.21,0.00,-0.00,-0.00,0.00
2026-06-26 18:38:28.266,994.16,994.14,-1.71,-1.74,0.00,1.45,0.23,9.22,0.00,-0.00,-0.00,0.00
2026-06-26 18:38:28.267,994.16,994.14,-1.71,-1.74,0.00,1.45,0.23,9.22,0.00,-0.00,-0.00,0.00
2026-06-26 18:38:28.268,994.16,994.14,-1.71,-1.74,0.00,1.45,0.23,9.22,0.00,-0.00,-0.00,0.00
2026-06-26 18:38:28.270,994.16,994.14,-1.71,-1.74,0.00,1.45,0.23,9.22,0.00,-0.00,-0.00,0.00
2026-06-26 18:38:28.275,994.16,994.14,-1.71,-1.74,0.00,1.45,0.23,9.22,0.00,-0.00,-0.00,0.00
2026-06-26 18:38:28.276,994.16,994.14,-1.71,-1.74,0.00,1.47,0.24,9.20,0.00,-0.00,0.00,0.00
2026-06-26 18:38:28.277,994.16,994.14,-1.71,-1.74,0.00,1.47,0.24,9.20,0.00,-0.00,0.00,0.00
2026-06-26 18:38:28.279,994.16,994.14,-1.71,-1.74,0.00,1.47,0.24,9.20,0.00,-0.00,0.00,0.00
2026-06-26 18:38:28.281,994.16,994.14,-1.71,-1.74,0.00,1.47,0.24,9.20,0.00,-0.00,0.00,0.00
2026-06-26 18:38:28.285,994.16,994.14,-1.71,-1.74,0.00,1.47,0.24,9.20,0.00,0.00,0.00,0.00
2026-06-26 18:38:28.286,994.16,994.14,-1.71,-1.74,0.00,1.45,0.19,9.22,0.00,0.00,0.00,0.00
2026-06-26 18:38:28.288,994.16,994.14,-1.71,-1.74,0.00,1.45,0.19,9.22,0.00,0.00,0.00,0.00
2026-06-26 18:38:28.289,994.16,994.14,-1.71,-1.74,0.00,1.45,0.19,9.22,0.00,0.00,0.00,0.00
2026-06-26 18:38:28.291,994.16,994.14,-1.71,-1.74,0.00,1.45,0.19,9.22,0.00,0.00,0.00,0.00
2026-06-26 18:38:28.295,994.16,994.14,-1.71,-1.74,0.00,1.45,0.19,9.22,-0.00,-0.00,0.00,0.00
2026-06-26 18:38:28.297,994.16,994.14,-1.71,-1.74,0.00,1.44,0.22,9.22,-0.00,-0.00,0.00,0.00
2026-06-26 18:38:28.298,994.16,994.14,-1.71,-1.74,0.00,1.44,0.22,9.22,-0.00,-0.00,0.00,0.00
2026-06-26 18:38:28.299,994.16,994.14,-1.71,-1.74,0.00,1.44,0.22,9.22,-0.00,-0.00,0.00,0.00
2026-06-26 18:38:28.300,994.16,994.14,-1.71,-1.74,0.00,1.44,0.22,9.22,-0.00,-0.00,0.00,0.00
2026-06-26 18:38:28.301,994.16,994.14,-1.71,-1.74,0.00,1.44,0.22,9.22,-0.00,-0.00,0.00,0.00
2026-06-26 18:38:28.303,994.16,994.14,-1.71,-1.74,0.00,1.44,0.22,9.22,-0.00,-0.00,0.00,0.00
2026-06-26 18:38:28.305,994.16,994.14,-1.71,-1.74,0.00,1.44,0.22,9.22,-0.00,-0.00,0.00,0.00
2026-06-26 18:38:28.306,994.16,994.14,-1.71,-1.74,0.00,1.43,0.21,9.21,-0.00,0.00,0.00,0.00
2026-06-26 18:38:28.307,994.16,994.14,-1.71,-1.74,0.00,1.43,0.21,9.21,-0.00,0.00,0.00,0.00
2026-06-26 18:38:28.309,994.16,994.14,-1.71,-1.74,0.00,1.43,0.21,9.21,-0.00,0.00,0.00,0.00
2026-06-26 18:38:28.310,994.16,994.14,-1.71,-1.74,0.00,1.43,0.21,9.21,-0.00,0.00,0.00,0.00
2026-06-26 18:38:28.395,994.16,994.14,-1.51,-1.63,0.00,1.45,0.24,9.21,0.00,0.00,0.00,0.00
2026-06-26 18:38:28.397,994.16,994.14,-1.51,-1.63,0.00,1.44,0.22,9.23,0.00,-0.00,-0.00,0.00
2026-06-26 18:38:28.398,994.16,994.14,-1.51,-1.63,0.00,1.44,0.22,9.23,0.00,-0.00,-0.00,0.00
2026-06-26 18:38:28.399,994.16,994.14,-1.51,-1.63,0.00,1.44,0.22,9.23,0.00,-0.00,-0.00,0.00
2026-06-26 18:38:28.400,994.16,994.14,-1.51,-1.63,0.00,1.44,0.22,9.23,0.00,-0.00,-0.00,0.00
2026-06-26 18:38:28.401,994.16,994.14,-1.51,-1.63,0.00,1.44,0.22,9.23,0.00,-0.00,-0.00,0.00
2026-06-26 18:38:28.403,994.16,994.14,-1.51,-1.63,0.00,1.44,0.22,9.23,0.00,-0.00,-0.00,0.00
2026-06-26 18:38:28.405,994.16,994.14,-1.51,-1.63,0.00,1.44,0.22,9.23,0.00,-0.00,-0.00,0.00
2026-06-26 18:38:28.407,994.16,994.14,-1.51,-1.63,0.00,1.45,0.24,9.19,0.00,0.00,0.00,0.00
2026-06-26 18:38:28.408,994.16,994.14,-1.51,-1.63,0.00,1.45,0.24,9.19,0.00,0.00,0.00,0.00
2026-06-26 18:38:28.409,994.16,994.14,-1.51,-1.63,0.00,1.45,0.24,9.19,0.00,0.00,0.00,0.00
2026-06-26 18:38:28.411,994.16,994.14,-1.51,-1.63,0.00,1.45,0.24,9.19,0.00,0.00,0.00,0.00
2026-06-26 18:38:28.415,994.16,994.14,-1.51,-1.63,0.00,1.45,0.24,9.19,0.00,-0.00,-0.00,0.00
2026-06-26 18:38:28.416,994.16,994.14,-1.51,-1.63,0.00,1.44,0.21,9.21,0.00,-0.00,-0.00,0.00
2026-06-26 18:38:28.418,994.16,994.14,-1.51,-1.63,0.00,1.44,0.21,9.21,0.00,-0.00,-0.00,0.00
2026-06-26 18:38:28.419,994.16,994.14,-1.51,-1.63,0.00,1.44,0.21,9.21,0.00,-0.00,-0.00,0.00
2026-06-26 18:38:28.420,994.16,994.14,-1.51,-1.63,0.00,1.44,0.21,9.21,0.00,-0.00,-0.00,0.00
2026-06-26 18:38:28.425,994.16,994.14,-1.51,-1.63,0.00,1.44,0.21,9.21,0.00,-0.00,-0.00,0.00
2026-06-26 18:38:28.427,994.16,994.14,-1.51,-1.63,0.00,1.46,0.22,9.21,0.00,-0.00,-0.00,0.00
2026-06-26 18:38:28.428,994.16,994.14,-1.51,-1.63,0.00,1.46,0.22,9.21,0.00,-0.00,-0.00,0.00
2026-06-26 18:38:28.429,994.16,994.14,-1.51,-1.63,0.00,1.46,0.22,9.21,0.00,-0.00,-0.00,0.00
2026-06-26 18:38:28.430,994.16,994.14,-1.51,-1.63,0.00,1.46,0.22,9.21,0.00,-0.00,-0.00,0.00
2026-06-26 18:38:28.434,994.16,994.14,-1.51,-1.63,0.00,1.46,0.22,9.21,0.00,-0.00,-0.00,0.00
2026-06-26 18:38:28.436,994.16,994.14,-1.51,-1.63,0.00,1.47,0.22,9.18,0.00,0.00,-0.00,0.00
2026-06-26 18:38:28.437,994.16,994.14,-1.51,-1.63,0.00,1.47,0.22,9.18,0.00,0.00,-0.00,0.00
2026-06-26 18:38:28.438,994.16,994.14,-1.51,-1.63,0.00,1.47,0.22,9.18,0.00,0.00,-0.00,0.00
2026-06-26 18:38:28.439,994.16,994.14,-1.51,-1.63,0.00,1.47,0.22,9.18,0.00,0.00,-0.00,0.00
2026-06-26 18:38:28.445,994.16,994.14,-1.51,-1.63,0.00,1.47,0.22,9.18,0.00,0.00,-0.00,0.00
2026-06-26 18:38:28.446,994.16,994.14,-1.51,-1.63,0.00,1.45,0.22,9.22,0.00,0.00,0.00,0.00
2026-06-26 18:38:28.447,994.16,994.14,-1.51,-1.63,0.00,1.45,0.22,9.22,0.00,0.00,0.00,0.00
2026-06-26 18:38:28.449,994.16,994.14,-1.51,-1.63,0.00,1.45,0.22,9.22,0.00,0.00,0.00,0.00
2026-06-26 18:38:28.450,994.16,994.14,-1.51,-1.63,0.00,1.45,0.22,9.22,0.00,0.00,0.00,0.00
2026-06-26 18:38:28.451,994.16,994.14,-1.51,-1.63,0.00,1.45,0.22,9.22,0.00,0.00,0.00,0.00
2026-06-26 18:38:28.536,994.15,994.14,-1.38,-1.56,0.00,1.45,0.25,9.19,0.00,0.00,0.00,0.00
2026-06-26 18:38:28.537,994.15,994.14,-1.38,-1.56,0.00,1.45,0.20,9.20,0.00,-0.00,-0.00,0.00
2026-06-26 18:38:28.538,994.15,994.14,-1.38,-1.56,0.00,1.45,0.20,9.20,0.00,-0.00,-0.00,0.00
2026-06-26 18:38:28.539,994.15,994.14,-1.38,-1.56,0.00,1.45,0.20,9.20,0.00,-0.00,-0.00,0.00
2026-06-26 18:38:28.544,994.15,994.14,-1.38,-1.56,0.00,1.45,0.20,9.20,0.00,-0.00,-0.00,0.00
2026-06-26 18:38:28.546,994.15,994.14,-1.38,-1.56,0.00,1.45,0.20,9.20,0.00,-0.00,0.00,0.00
2026-06-26 18:38:28.548,994.15,994.14,-1.38,-1.56,0.00,1.44,0.22,9.21,0.00,-0.00,0.00,0.00
2026-06-26 18:38:28.549,994.15,994.14,-1.38,-1.56,0.00,1.44,0.22,9.21,0.00,-0.00,0.00,0.00
2026-06-26 18:38:28.550,994.15,994.14,-1.38,-1.56,0.00,1.44,0.22,9.21,0.00,-0.00,0.00,0.00
2026-06-26 18:38:28.551,994.15,994.14,-1.38,-1.56,0.00,1.44,0.22,9.21,0.00,-0.00,0.00,0.00
2026-06-26 18:38:28.552,994.15,994.14,-1.38,-1.56,0.00,1.44,0.22,9.21,0.00,-0.00,0.00,0.00
2026-06-26 18:38:28.554,994.15,994.14,-1.38,-1.56,0.00,1.44,0.22,9.21,0.00,-0.00,0.00,0.00
2026-06-26 18:38:28.556,994.15,994.14,-1.38,-1.56,0.00,1.44,0.22,9.21,0.00,0.00,0.00,0.00
2026-06-26 18:38:28.557,994.15,994.14,-1.38,-1.56,0.00,1.45,0.23,9.21,0.00,0.00,0.00,0.00
2026-06-26 18:38:28.558,994.15,994.14,-1.38,-1.56,0.00,1.45,0.23,9.21,0.00,0.00,0.00,0.00
2026-06-26 18:38:28.560,994.15,994.14,-1.38,-1.56,0.00,1.45,0.23,9.21,0.00,0.00,0.00,0.00
2026-06-26 18:38:28.564,994.15,994.14,-1.38,-1.56,0.00,1.45,0.23,9.21,0.00,0.00,0.00,0.00
2026-06-26 18:38:28.566,994.15,994.14,-1.38,-1.56,0.00,1.45,0.23,9.21,0.00,0.00,-0.00,0.00
2026-06-26 18:38:28.567,994.15,994.14,-1.38,-1.56,0.00,1.44,0.24,9.16,0.00,0.00,-0.00,0.00
2026-06-26 18:38:28.569,994.15,994.14,-1.38,-1.56,0.00,1.44,0.24,9.16,0.00,0.00,-0.00,0.00
2026-06-26 18:38:28.570,994.15,994.14,-1.38,-1.56,0.00,1.44,0.24,9.16,0.00,0.00,-0.00,0.00
2026-06-26 18:38:28.573,994.15,994.14,-1.38,-1.56,0.00,1.44,0.24,9.16,0.00,0.00,-0.00,0.00
2026-06-26 18:38:28.576,994.15,994.14,-1.38,-1.56,0.00,1.44,0.24,9.16,0.00,-0.00,-0.00,0.00
2026-06-26 18:38:28.577,994.15,994.14,-1.38,-1.56,0.00,1.44,0.23,9.17,0.00,-0.00,-0.00,0.00
2026-06-26 18:38:28.578,994.15,994.14,-1.38,-1.56,0.00,1.44,0.23,9.17,0.00,-0.00,-0.00,0.00
2026-06-26 18:38:28.580,994.15,994.14,-1.38,-1.56,0.00,1.44,0.23,9.17,0.00,-0.00,-0.00,0.00
2026-06-26 18:38:28.583,994.15,994.14,-1.38,-1.56,0.00,1.44,0.23,9.17,0.00,-0.00,-0.00,0.00
2026-06-26 18:38:28.586,994.15,994.14,-1.38,-1.56,0.00,1.44,0.23,9.17,0.00,-0.01,0.00,0.00
2026-06-26 18:38:28.587,994.15,994.14,-1.38,-1.56,0.00,1.46,0.22,9.18,0.00,-0.01,0.00,0.00
2026-06-26 18:38:28.588,994.15,994.14,-1.38,-1.56,0.00,1.46,0.22,9.18,0.00,-0.01,0.00,0.00
2026-06-26 18:38:28.590,994.15,994.14,-1.38,-1.56,0.00,1.46,0.22,9.18,0.00,-0.01,0.00,0.00
2026-06-26 18:38:28.593,994.15,994.14,-1.38,-1.56,0.00,1.46,0.22,9.18,0.00,-0.01,0.00,0.00
2026-06-26 18:38:28.676,994.15,994.14,-1.03,-1.34,0.00,1.47,0.22,9.21,0.00,-0.00,-0.00,0.00
2026-06-26 18:38:28.678,994.15,994.14,-1.03,-1.34,0.00,1.46,0.22,9.19,0.00,-0.00,-0.00,0.00
2026-06-26 18:38:28.679,994.15,994.14,-1.03,-1.34,0.00,1.46,0.22,9.19,0.00,-0.00,-0.00,0.00
2026-06-26 18:38:28.680,994.15,994.14,-1.03,-1.34,0.00,1.46,0.22,9.19,0.00,-0.00,-0.00,0.00
2026-06-26 18:38:28.685,994.15,994.14,-1.03,-1.34,0.00,1.46,0.22,9.19,0.00,-0.00,-0.00,0.00
2026-06-26 18:38:28.687,994.15,994.14,-1.03,-1.34,0.00,1.47,0.22,9.21,0.00,-0.00,0.00,0.00
2026-06-26 18:38:28.688,994.15,994.14,-1.03,-1.34,0.00,1.47,0.22,9.21,0.00,-0.00,0.00,0.00
2026-06-26 18:38:28.689,994.15,994.14,-1.03,-1.34,0.00,1.47,0.22,9.21,0.00,-0.00,0.00,0.00
2026-06-26 18:38:28.690,994.15,994.14,-1.03,-1.34,0.00,1.47,0.22,9.21,0.00,-0.00,0.00,0.00
2026-06-26 18:38:28.696,994.15,994.14,-1.03,-1.34,0.00,1.47,0.22,9.21,0.00,-0.00,0.00,0.00
2026-06-26 18:38:28.697,994.15,994.14,-1.03,-1.34,0.00,1.47,0.22,9.21,0.00,-0.00,0.00,0.00
2026-06-26 18:38:28.698,994.15,994.14,-1.03,-1.34,0.00,1.47,0.22,9.21,0.00,-0.00,0.00,0.00
2026-06-26 18:38:28.699,994.15,994.14,-1.03,-1.34,0.00,1.47,0.22,9.21,0.00,-0.00,0.00,0.00
2026-06-26 18:38:28.701,994.15,994.14,-1.03,-1.34,0.00,1.47,0.22,9.21,0.00,-0.00,0.00,0.00
2026-06-26 18:38:28.702,994.15,994.14,-1.03,-1.34,0.00,1.47,0.22,9.21,0.00,-0.00,0.00,0.00
2026-06-26 18:38:28.703,994.15,994.14,-1.03,-1.34,0.00,1.47,0.22,9.21,0.00,-0.00,0.00,0.00
2026-06-26 18:38:28.705,994.15,994.14,-1.03,-1.34,0.00,1.47,0.22,9.21,0.00,-0.00,0.00,0.00
2026-06-26 18:38:28.707,994.15,994.14,-1.03,-1.34,0.00,1.46,0.21,9.21,0.00,-0.00,0.00,0.00
2026-06-26 18:38:28.708,994.15,994.14,-1.03,-1.34,0.00,1.46,0.21,9.21,0.00,-0.00,0.00,0.00
2026-06-26 18:38:28.709,994.15,994.14,-1.03,-1.34,0.00,1.46,0.21,9.21,0.00,-0.00,0.00,0.00
2026-06-26 18:38:28.710,994.15,994.14,-1.03,-1.34,0.00,1.46,0.21,9.21,0.00,-0.00,0.00,0.00
2026-06-26 18:38:28.715,994.15,994.14,-1.03,-1.34,0.00,1.46,0.21,9.21,0.00,-0.00,0.00,0.00
2026-06-26 18:38:28.717,994.15,994.14,-1.03,-1.34,0.00,1.46,0.23,9.22,0.00,-0.00,0.00,0.00
2026-06-26 18:38:28.718,994.15,994.14,-1.03,-1.34,0.00,1.46,0.23,9.22,0.00,-0.00,0.00,0.00
2026-06-26 18:38:28.719,994.15,994.14,-1.03,-1.34,0.00,1.46,0.23,9.22,0.00,-0.00,0.00,0.00
2026-06-26 18:38:28.720,994.15,994.14,-1.03,-1.34,0.00,1.46,0.23,9.22,0.00,-0.00,0.00,0.00
2026-06-26 18:38:28.725,994.15,994.14,-1.03,-1.34,0.00,1.46,0.23,9.22,0.00,-0.00,0.00,0.00
2026-06-26 18:38:28.727,994.15,994.14,-1.03,-1.34,0.00,1.44,0.22,9.20,0.00,0.00,-0.00,0.00
2026-06-26 18:38:28.728,994.15,994.14,-1.03,-1.34,0.00,1.44,0.22,9.20,0.00,0.00,-0.00,0.00
2026-06-26 18:38:28.729,994.15,994.14,-1.03,-1.34,0.00,1.44,0.22,9.20,0.00,0.00,-0.00,0.00
2026-06-26 18:38:28.730,994.15,994.14,-1.03,-1.34,0.00,1.44,0.22,9.20,0.00,0.00,-0.00,0.00
2026-06-26 18:38:28.732,994.15,994.14,-1.03,-1.34,0.00,1.44,0.22,9.20,0.00,0.00,-0.00,0.00
2026-06-26 18:38:28.736,994.15,994.14,-1.03,-1.34,0.00,1.44,0.22,9.20,-0.00,0.00,0.00,0.00
2026-06-26 18:38:28.817,994.15,994.15,-0.63,-1.06,0.00,1.45,0.22,9.19,-0.00,-0.00,0.00,0.00
2026-06-26 18:38:28.819,994.15,994.15,-0.63,-1.06,0.00,1.45,0.22,9.19,-0.00,-0.00,0.00,0.00
2026-06-26 18:38:28.820,994.15,994.15,-0.63,-1.06,0.00,1.45,0.22,9.19,-0.00,-0.00,0.00,0.00
2026-06-26 18:38:28.822,994.15,994.15,-0.63,-1.06,0.00,1.45,0.22,9.19,-0.00,-0.00,0.00,0.00
2026-06-26 18:38:28.827,994.15,994.15,-0.63,-1.06,0.00,1.45,0.22,9.19,0.00,-0.00,0.00,0.00
2026-06-26 18:38:28.828,994.15,994.15,-0.63,-1.06,0.00,1.45,0.22,9.20,0.00,-0.00,0.00,0.00
2026-06-26 18:38:28.830,994.15,994.15,-0.63,-1.06,0.00,1.45,0.22,9.20,0.00,-0.00,0.00,0.00
2026-06-26 18:38:28.831,994.15,994.15,-0.63,-1.06,0.00,1.45,0.22,9.20,0.00,-0.00,0.00,0.00
2026-06-26 18:38:28.836,994.15,994.15,-0.63,-1.06,0.00,1.45,0.22,9.20,0.00,-0.00,0.00,0.00
2026-06-26 18:38:28.837,994.15,994.15,-0.63,-1.06,0.00,1.45,0.23,9.21,0.00,0.00,-0.00,0.00
2026-06-26 18:38:28.838,994.15,994.15,-0.63,-1.06,0.00,1.45,0.23,9.21,0.00,0.00,-0.00,0.00
2026-06-26 18:38:28.839,994.15,994.15,-0.63,-1.06,0.00,1.45,0.23,9.21,0.00,0.00,-0.00,0.00
2026-06-26 18:38:28.841,994.15,994.15,-0.63,-1.06,0.00,1.45,0.23,9.21,0.00,0.00,-0.00,0.00
2026-06-26 18:38:28.846,994.15,994.15,-0.63,-1.06,0.00,1.45,0.23,9.21,0.00,0.00,-0.00,0.00
2026-06-26 18:38:28.848,994.15,994.15,-0.63,-1.06,0.00,1.45,0.20,9.22,-0.00,0.00,0.00,0.00
2026-06-26 18:38:28.849,994.15,994.15,-0.63,-1.06,0.00,1.45,0.20,9.22,-0.00,0.00,0.00,0.00
2026-06-26 18:38:28.850,994.15,994.15,-0.63,-1.06,0.00,1.45,0.20,9.22,-0.00,0.00,0.00,0.00
2026-06-26 18:38:28.851,994.15,994.15,-0.63,-1.06,0.00,1.45,0.20,9.22,-0.00,0.00,0.00,0.00
2026-06-26 18:38:28.852,994.15,994.15,-0.63,-1.06,0.00,1.45,0.20,9.22,-0.00,0.00,0.00,0.00
2026-06-26 18:38:28.854,994.15,994.15,-0.63,-1.06,0.00,1.45,0.20,9.22,-0.00,0.00,0.00,0.00
2026-06-26 18:38:28.856,994.15,994.15,-0.63,-1.06,0.00,1.45,0.20,9.22,-0.00,0.00,0.00,0.00
2026-06-26 18:38:28.857,994.15,994.15,-0.63,-1.06,0.00,1.45,0.24,9.21,0.00,0.00,0.00,0.00
2026-06-26 18:38:28.859,994.15,994.15,-0.63,-1.06,0.00,1.45,0.24,9.21,0.00,0.00,0.00,0.00
2026-06-26 18:38:28.860,994.15,994.15,-0.63,-1.06,0.00,1.45,0.24,9.21,0.00,0.00,0.00,0.00
2026-06-26 18:38:28.862,994.15,994.15,-0.63,-1.06,0.00,1.45,0.24,9.21,0.00,0.00,0.00,0.00
2026-06-26 18:38:28.866,994.15,994.15,-0.63,-1.06,0.00,1.45,0.24,9.21,0.00,0.00,0.00,0.00
2026-06-26 18:38:28.868,994.15,994.15,-0.63,-1.06,0.00,1.43,0.22,9.19,0.00,0.00,0.00,0.00
2026-06-26 18:38:28.869,994.15,994.15,-0.63,-1.06,0.00,1.43,0.22,9.19,0.00,0.00,0.00,0.00
2026-06-26 18:38:28.870,994.15,994.15,-0.63,-1.06,0.00,1.43,0.22,9.19,0.00,0.00,0.00,0.00
2026-06-26 18:38:28.872,994.15,994.15,-0.63,-1.06,0.00,1.43,0.22,9.19,0.00,0.00,0.00,0.00
2026-06-26 18:38:28.876,994.15,994.15,-0.63,-1.06,0.00,1.43,0.22,9.19,0.00,0.00,0.00,0.00
2026-06-26 18:38:28.957,994.15,994.15,-0.04,-0.25,0.00,1.46,0.23,9.23,-0.00,-0.00,-0.00,0.00
2026-06-26 18:38:28.959,994.15,994.15,-0.04,-0.25,0.00,1.46,0.23,9.23,-0.00,-0.00,-0.00,0.00
2026-06-26 18:38:28.960,994.15,994.15,-0.04,-0.25,0.00,1.46,0.23,9.23,-0.00,-0.00,-0.00,0.00
2026-06-26 18:38:28.961,994.15,994.15,-0.04,-0.25,0.00,1.46,0.23,9.23,-0.00,-0.00,-0.00,0.00
2026-06-26 18:38:28.966,994.15,994.15,-0.04,-0.25,0.00,1.46,0.23,9.23,-0.00,-0.00,-0.00,0.00
2026-06-26 18:38:28.968,994.15,994.15,-0.04,-0.25,0.00,1.44,0.22,9.22,0.00,0.00,0.00,0.00
2026-06-26 18:38:28.969,994.15,994.15,-0.04,-0.25,0.00,1.44,0.22,9.22,0.00,0.00,0.00,0.00
2026-06-26 18:38:28.970,994.15,994.15,-0.04,-0.25,0.00,1.44,0.22,9.22,0.00,0.00,0.00,0.00
2026-06-26 18:38:28.971,994.15,994.15,-0.04,-0.25,0.00,1.44,0.22,9.22,0.00,0.00,0.00,0.00
2026-06-26 18:38:28.976,994.15,994.15,-0.04,-0.25,0.00,1.44,0.22,9.22,0.00,0.00,0.00,0.00
2026-06-26 18:38:28.978,994.15,994.15,-0.04,-0.25,0.00,1.46,0.21,9.20,0.00,0.00,-0.00,0.00
2026-06-26 18:38:28.979,994.15,994.15,-0.04,-0.25,0.00,1.46,0.21,9.20,0.00,0.00,-0.00,0.00
2026-06-26 18:38:28.980,994.15,994.15,-0.04,-0.25,0.00,1.46,0.21,9.20,0.00,0.00,-0.00,0.00
2026-06-26 18:38:28.981,994.15,994.15,-0.04,-0.25,0.00,1.46,0.21,9.20,0.00,0.00,-0.00,0.00
2026-06-26 18:38:28.986,994.15,994.15,-0.04,-0.25,0.00,1.46,0.21,9.20,0.00,0.00,-0.00,0.00
2026-06-26 18:38:28.988,994.15,994.15,-0.04,-0.25,0.00,1.46,0.23,9.20,0.00,-0.00,-0.00,0.00
2026-06-26 18:38:28.989,994.15,994.15,-0.04,-0.25,0.00,1.46,0.23,9.20,0.00,-0.00,-0.00,0.00
2026-06-26 18:38:28.990,994.15,994.15,-0.04,-0.25,0.00,1.46,0.23,9.20,0.00,-0.00,-0.00,0.00
2026-06-26 18:38:28.991,994.15,994.15,-0.04,-0.25,0.00,1.46,0.23,9.20,0.00,-0.00,-0.00,0.00
2026-06-26 18:38:28.997,994.15,994.15,-0.04,-0.25,0.00,1.46,0.23,9.20,0.00,-0.00,-0.00,0.00
2026-06-26 18:38:28.998,994.15,994.15,-0.04,-0.25,0.00,1.46,0.23,9.21,0.00,-0.00,0.00,0.00
2026-06-26 18:38:28.999,994.15,994.15,-0.04,-0.25,0.00,1.46,0.23,9.21,0.00,-0.00,0.00,0.00
2026-06-26 18:38:28.000,994.15,994.15,-0.04,-0.25,0.00,1.46,0.23,9.21,0.00,-0.00,0.00,0.00
2026-06-26 18:38:28.003,994.15,994.15,-0.04,-0.25,0.00,1.46,0.23,9.21,0.00,-0.00,0.00,0.00
2026-06-26 18:38:29.004,994.15,994.15,-0.04,-0.25,0.00,1.46,0.23,9.21,0.00,-0.00,0.00,0.00
2026-06-26 18:38:29.005,994.15,994.15,-0.04,-0.25,0.00,1.46,0.23,9.21,0.00,-0.00,0.00,0.00
2026-06-26 18:38:29.007,994.15,994.15,-0.04,-0.25,0.00,1.46,0.21,9.21,0.00,0.00,0.00,0.00
2026-06-26 18:38:29.008,994.15,994.15,-0.04,-0.25,0.00,1.46,0.21,9.21,0.00,0.00,0.00,0.00
2026-06-26 18:38:29.010,994.15,994.15,-0.04,-0.25,0.00,1.46,0.21,9.21,0.00,0.00,0.00,0.00
2026-06-26 18:38:29.011,994.15,994.15,-0.04,-0.25,0.00,1.46,0.21,9.21,0.00,0.00,0.00,0.00
2026-06-26 18:38:29.016,994.15,994.15,-0.04,-0.25,0.00,1.46,0.21,9.21,0.00,0.00,0.00,0.00
2026-06-26 18:38:29.017,994.15,994.15,-0.04,-0.25,0.00,1.43,0.22,9.22,0.00,0.00,-0.00,0.00
2026-06-26 18:38:29.099,994.16,994.15,-0.28,-0.70,0.00,1.45,0.23,9.21,-0.00,0.00,0.00,0.00
2026-06-26 18:38:29.100,994.16,994.15,-0.28,-0.70,0.00,1.45,0.23,9.21,-0.00,0.00,0.00,0.00
2026-06-26 18:38:29.101,994.16,994.15,-0.28,-0.70,0.00,1.45,0.23,9.21,-0.00,0.00,0.00,0.00
2026-06-26 18:38:29.103,994.16,994.15,-0.28,-0.70,0.00,1.45,0.23,9.21,-0.00,0.00,0.00,0.00
2026-06-26 18:38:29.104,994.16,994.15,-0.28,-0.70,0.00,1.45,0.23,9.21,-0.00,0.00,0.00,0.00
2026-06-26 18:38:29.106,994.16,994.15,-0.28,-0.70,0.00,1.45,0.23,9.21,-0.00,0.00,0.00,0.00
2026-06-26 18:38:29.108,994.16,994.15,-0.28,-0.70,0.00,1.45,0.22,9.21,0.00,-0.00,0.00,0.00
2026-06-26 18:38:29.109,994.16,994.15,-0.28,-0.70,0.00,1.45,0.22,9.21,0.00,-0.00,0.00,0.00
2026-06-26 18:38:29.110,994.16,994.15,-0.28,-0.70,0.00,1.45,0.22,9.21,0.00,-0.00,0.00,0.00
2026-06-26 18:38:29.111,994.16,994.15,-0.28,-0.70,0.00,1.45,0.22,9.21,0.00,-0.00,0.00,0.00
2026-06-26 18:38:29.116,994.16,994.15,-0.28,-0.70,0.00,1.45,0.22,9.21,0.00,-0.00,0.00,0.00
2026-06-26 18:38:29.118,994.16,994.15,-0.28,-0.70,0.00,1.44,0.22,9.22,0.00,0.00,0.00,0.00
2026-06-26 18:38:29.119,994.16,994.15,-0.28,-0.70,0.00,1.44,0.22,9.22,0.00,0.00,0.00,0.00
2026-06-26 18:38:29.120,994.16,994.15,-0.28,-0.70,0.00,1.44,0.22,9.22,0.00,0.00,0.00,0.00
2026-06-26 18:38:29.121,994.16,994.15,-0.28,-0.70,0.00,1.44,0.22,9.22,0.00,0.00,0.00,0.00
2026-06-26 18:38:29.126,994.16,994.15,-0.28,-0.70,0.00,1.44,0.22,9.22,0.00,0.00,0.00,0.00
2026-06-26 18:38:29.128,994.16,994.15,-0.28,-0.70,0.00,1.45,0.22,9.20,0.00,0.00,0.00,0.00
2026-06-26 18:38:29.129,994.16,994.15,-0.28,-0.70,0.00,1.45,0.22,9.20,0.00,0.00,0.00,0.00
2026-06-26 18:38:29.130,994.16,994.15,-0.28,-0.70,0.00,1.45,0.22,9.20,0.00,0.00,0.00,0.00
2026-06-26 18:38:29.131,994.16,994.15,-0.28,-0.70,0.00,1.45,0.22,9.20,0.00,0.00,0.00,0.00
2026-06-26 18:38:29.133,994.16,994.15,-0.28,-0.70,0.00,1.45,0.22,9.20,0.00,0.00,0.00,0.00
2026-06-26 18:38:29.137,994.16,994.15,-0.28,-0.70,0.00,1.45,0.22,9.20,0.00,-0.00,-0.00,0.00
2026-06-26 18:38:29.138,994.16,994.15,-0.28,-0.70,0.00,1.45,0.22,9.18,0.00,-0.00,-0.00,0.00
2026-06-26 18:38:29.139,994.16,994.15,-0.28,-0.70,0.00,1.45,0.22,9.18,0.00,-0.00,-0.00,0.00
2026-06-26 18:38:29.141,994.16,994.15,-0.28,-0.70,0.00,1.45,0.22,9.18,0.00,-0.00,-0.00,0.00
2026-06-26 18:38:29.143,994.16,994.15,-0.28,-0.70,0.00,1.45,0.22,9.18,0.00,-0.00,-0.00,0.00
2026-06-26 18:38:29.147,994.16,994.15,-0.28,-0.70,0.00,1.45,0.22,9.18,-0.00,0.00,-0.00,0.00
2026-06-26 18:38:29.148,994.16,994.15,-0.28,-0.70,0.00,1.45,0.22,9.24,-0.00,0.00,-0.00,0.00
2026-06-26 18:38:29.150,994.16,994.15,-0.28,-0.70,0.00,1.45,0.22,9.24,-0.00,0.00,-0.00,0.00
2026-06-26 18:38:29.151,994.16,994.15,-0.28,-0.70,0.00,1.45,0.22,9.24,-0.00,0.00,-0.00,0.00
2026-06-26 18:38:29.152,994.16,994.15,-0.28,-0.70,0.00,1.45,0.22,9.24,-0.00,0.00,-0.00,0.00
2026-06-26 18:38:29.153,994.16,994.15,-0.28,-0.70,0.00,1.45,0.22,9.24,-0.00,0.00,-0.00,0.00
2026-06-26 18:38:29.154,994.16,994.15,-0.28,-0.70,0.00,1.45,0.22,9.24,-0.00,0.00,-0.00,0.00
2026-06-26 18:38:29.157,994.16,994.15,-0.28,-0.70,0.00,1.45,0.22,9.24,-0.00,0.00,-0.00,0.00
2026-06-26 18:38:29.158,994.16,994.15,-0.28,-0.70,0.00,1.45,0.22,9.25,0.00,0.00,-0.00,0.00
2026-06-26 18:38:29.239,994.16,994.15,-0.31,-0.73,0.00,1.46,0.22,9.20,-0.00,-0.00,0.00,0.00
2026-06-26 18:38:29.240,994.16,994.15,-0.31,-0.73,0.00,1.46,0.22,9.20,-0.00,-0.00,0.00,0.00
2026-06-26 18:38:29.241,994.16,994.15,-0.31,-0.73,0.00,1.46,0.22,9.20,-0.00,-0.00,0.00,0.00
2026-06-26 18:38:29.247,994.16,994.15,-0.31,-0.73,0.00,1.46,0.22,9.20,-0.00,-0.00,0.00,0.00
2026-06-26 18:38:29.249,994.16,994.15,-0.31,-0.73,0.00,1.45,0.24,9.24,0.00,0.00,0.00,0.00
2026-06-26 18:38:29.250,994.16,994.15,-0.31,-0.73,0.00,1.45,0.24,9.24,0.00,0.00,0.00,0.00
2026-06-26 18:38:29.251,994.16,994.15,-0.31,-0.73,0.00,1.45,0.24,9.24,0.00,0.00,0.00,0.00
2026-06-26 18:38:29.252,994.16,994.15,-0.31,-0.73,0.00,1.45,0.24,9.24,0.00,0.00,0.00,0.00
2026-06-26 18:38:29.253,994.16,994.15,-0.31,-0.73,0.00,1.45,0.24,9.24,0.00,0.00,0.00,0.00
2026-06-26 18:38:29.254,994.16,994.15,-0.31,-0.73,0.00,1.45,0.24,9.24,0.00,0.00,0.00,0.00
2026-06-26 18:38:29.257,994.16,994.15,-0.31,-0.73,0.00,1.45,0.24,9.24,0.00,0.00,0.00,0.00
2026-06-26 18:38:29.258,994.16,994.15,-0.31,-0.73,0.00,1.44,0.24,9.21,-0.00,0.00,-0.00,0.00
2026-06-26 18:38:29.259,994.16,994.15,-0.31,-0.73,0.00,1.44,0.24,9.21,-0.00,0.00,-0.00,0.00
2026-06-26 18:38:29.261,994.16,994.15,-0.31,-0.73,0.00,1.44,0.24,9.21,-0.00,0.00,-0.00,0.00
2026-06-26 18:38:29.262,994.16,994.15,-0.31,-0.73,0.00,1.44,0.24,9.21,-0.00,0.00,-0.00,0.00
2026-06-26 18:38:29.267,994.16,994.15,-0.31,-0.73,0.00,1.44,0.24,9.21,-0.00,0.00,-0.00,0.00
2026-06-26 18:38:29.268,994.16,994.15,-0.31,-0.73,0.00,1.43,0.23,9.20,0.00,0.00,-0.00,0.00
2026-06-26 18:38:29.270,994.16,994.15,-0.31,-0.73,0.00,1.43,0.23,9.20,0.00,0.00,-0.00,0.00
2026-06-26 18:38:29.271,994.16,994.15,-0.31,-0.73,0.00,1.43,0.23,9.20,0.00,0.00,-0.00,0.00
2026-06-26 18:38:29.273,994.16,994.15,-0.31,-0.73,0.00,1.43,0.23,9.20,0.00,0.00,-0.00,0.00
2026-06-26 18:38:29.277,994.16,994.15,-0.31,-0.73,0.00,1.43,0.23,9.20,0.00,0.00,-0.00,0.00
2026-06-26 18:38:29.279,994.16,994.15,-0.31,-0.73,0.00,1.44,0.22,9.20,0.00,0.00,0.00,0.00
2026-06-26 18:38:29.280,994.16,994.15,-0.31,-0.73,0.00,1.44,0.22,9.20,0.00,0.00,0.00,0.00
2026-06-26 18:38:29.281,994.16,994.15,-0.31,-0.73,0.00,1.44,0.22,9.20,0.00,0.00,0.00,0.00
2026-06-26 18:38:29.284,994.16,994.15,-0.31,-0.73,0.00,1.44,0.22,9.20,0.00,0.00,0.00,0.00
2026-06-26 18:38:29.288,994.16,994.15,-0.31,-0.73,0.00,1.44,0.22,9.20,0.00,-0.00,0.00,0.00
2026-06-26 18:38:29.289,994.16,994.15,-0.31,-0.73,0.00,1.45,0.20,9.20,0.00,-0.00,0.00,0.00
2026-06-26 18:38:29.291,994.16,994.15,-0.31,-0.73,0.00,1.45,0.20,9.20,0.00,-0.00,0.00,0.00
2026-06-26 18:38:29.295,994.16,994.15,-0.31,-0.73,0.00,1.45,0.20,9.20,0.00,-0.00,0.00,0.00
2026-06-26 18:38:29.298,994.16,994.15,-0.31,-0.73,0.00,1.45,0.20,9.20,-0.00,0.00,0.00,0.00
2026-06-26 18:38:29.381,994.16,994.15,-0.29,-0.72,0.00,1.46,0.21,9.19,-0.00,-0.00,-0.00,0.00
2026-06-26 18:38:29.386,994.16,994.15,-0.29,-0.72,0.00,1.46,0.21,9.19,-0.00,-0.00,-0.00,0.00
2026-06-26 18:38:29.388,994.16,994.15,-0.29,-0.72,0.00,1.45,0.21,9.21,0.00,0.00,0.00,0.00
2026-06-26 18:38:29.390,994.16,994.15,-0.29,-0.72,0.00,1.45,0.21,9.21,0.00,0.00,0.00,0.00
2026-06-26 18:38:29.392,994.16,994.15,-0.29,-0.72,0.00,1.45,0.21,9.21,0.00,0.00,0.00,0.00
2026-06-26 18:38:29.398,994.16,994.15,-0.29,-0.72,0.00,1.45,0.21,9.21,0.00,0.00,0.00,0.00
2026-06-26 18:38:29.399,994.16,994.15,-0.29,-0.72,0.00,1.45,0.22,9.21,-0.00,-0.00,0.00,0.00
2026-06-26 18:38:29.401,994.16,994.15,-0.29,-0.72,0.00,1.45,0.22,9.21,-0.00,-0.00,0.00,0.00
2026-06-26 18:38:29.403,994.16,994.15,-0.29,-0.72,0.00,1.45,0.22,9.21,-0.00,-0.00,0.00,0.00
2026-06-26 18:38:29.404,994.16,994.15,-0.29,-0.72,0.00,1.45,0.22,9.21,-0.00,-0.00,0.00,0.00
2026-06-26 18:38:29.407,994.16,994.15,-0.29,-0.72,0.00,1.45,0.22,9.21,-0.00,-0.00,0.00,0.00
2026-06-26 18:38:29.409,994.16,994.15,-0.29,-0.72,0.00,1.44,0.22,9.20,-0.00,0.00,0.00,0.00
2026-06-26 18:38:29.411,994.16,994.15,-0.29,-0.72,0.00,1.44,0.22,9.20,-0.00,0.00,0.00,0.00
2026-06-26 18:38:29.415,994.16,994.15,-0.29,-0.72,0.00,1.44,0.22,9.20,-0.00,0.00,0.00,0.00
2026-06-26 18:38:29.418,994.16,994.15,-0.29,-0.72,0.00,1.44,0.22,9.20,0.00,0.00,-0.00,0.00
2026-06-26 18:38:29.420,994.16,994.15,-0.29,-0.72,0.00,1.44,0.23,9.24,0.00,0.00,-0.00,0.00
2026-06-26 18:38:29.421,994.16,994.15,-0.29,-0.72,0.00,1.44,0.23,9.24,0.00,0.00,-0.00,0.00
2026-06-26 18:38:29.427,994.16,994.15,-0.29,-0.72,0.00,1.44,0.23,9.24,0.00,0.00,-0.00,0.00
2026-06-26 18:38:29.429,994.16,994.15,-0.29,-0.72,0.00,1.44,0.23,9.20,-0.00,0.00,0.00,0.00
2026-06-26 18:38:29.431,994.16,994.15,-0.29,-0.72,0.00,1.44,0.23,9.20,-0.00,0.00,0.00,0.00
2026-06-26 18:38:29.432,994.16,994.15,-0.29,-0.72,0.00,1.44,0.23,9.20,-0.00,0.00,0.00,0.00
2026-06-26 18:38:29.438,994.16,994.15,-0.29,-0.72,0.00,1.44,0.23,9.20,-0.00,0.00,0.00,0.00
2026-06-26 18:38:29.439,994.16,994.15,-0.29,-0.72,0.00,1.43,0.22,9.19,0.00,0.00,0.00,0.00
2026-06-26 18:38:29.525,994.16,994.15,-0.57,-1.00,0.00,1.41,0.23,9.20,0.00,0.00,-0.00,0.00
2026-06-26 18:38:29.529,994.16,994.15,-0.57,-1.00,0.00,1.41,0.23,9.20,0.00,0.00,-0.00,0.00
2026-06-26 18:38:29.530,994.16,994.15,-0.57,-1.00,0.00,1.45,0.22,9.19,0.00,0.00,-0.00,0.00
2026-06-26 18:38:29.532,994.16,994.15,-0.57,-1.00,0.00,1.45,0.22,9.19,0.00,0.00,-0.00,0.00
2026-06-26 18:38:29.535,994.16,994.15,-0.57,-1.00,0.00,1.45,0.22,9.19,0.00,0.00,-0.00,0.00
2026-06-26 18:38:29.538,994.16,994.15,-0.57,-1.00,0.00,1.45,0.22,9.19,-0.00,0.00,0.00,0.00
2026-06-26 18:38:29.540,994.16,994.15,-0.57,-1.00,0.00,1.47,0.22,9.20,-0.00,0.00,0.00,0.00
2026-06-26 18:38:29.542,994.16,994.15,-0.57,-1.00,0.00,1.47,0.22,9.20,-0.00,0.00,0.00,0.00
2026-06-26 18:38:29.547,994.16,994.15,-0.57,-1.00,0.00,1.47,0.22,9.20,-0.00,0.00,0.00,0.00
2026-06-26 18:38:29.549,994.16,994.15,-0.57,-1.00,0.00,1.47,0.22,9.20,0.00,-0.00,0.00,0.00
2026-06-26 18:38:29.551,994.16,994.15,-0.57,-1.00,0.00,1.47,0.22,9.20,0.00,-0.00,0.00,0.00
2026-06-26 18:38:29.553,994.16,994.15,-0.57,-1.00,0.00,1.47,0.22,9.20,0.00,-0.00,0.00,0.00
2026-06-26 18:38:29.554,994.16,994.15,-0.57,-1.00,0.00,1.47,0.22,9.20,0.00,-0.00,0.00,0.00
2026-06-26 18:38:29.558,994.16,994.15,-0.57,-1.00,0.00,1.47,0.22,9.20,0.00,-0.00,0.00,0.00
2026-06-26 18:38:29.560,994.16,994.15,-0.57,-1.00,0.00,1.44,0.24,9.20,0.00,0.00,0.00,0.00
2026-06-26 18:38:29.561,994.16,994.15,-0.57,-1.00,0.00,1.44,0.24,9.20,0.00,0.00,0.00,0.00
2026-06-26 18:38:29.566,994.16,994.15,-0.57,-1.00,0.00,1.44,0.24,9.20,0.00,0.00,0.00,0.00
2026-06-26 18:38:29.569,994.16,994.15,-0.57,-1.00,0.00,1.44,0.24,9.20,-0.00,0.00,0.00,0.00
2026-06-26 18:38:29.570,994.16,994.15,-0.57,-1.00,0.00,1.44,0.23,9.20,-0.00,0.00,0.00,0.00
2026-06-26 18:38:29.572,994.16,994.15,-0.57,-1.00,0.00,1.44,0.23,9.20,-0.00,0.00,0.00,0.00
2026-06-26 18:38:29.578,994.16,994.15,-0.57,-1.00,0.00,1.44,0.23,9.20,-0.00,0.00,0.00,0.00
2026-06-26 18:38:29.580,994.16,994.15,-0.57,-1.00,0.00,1.44,0.22,9.19,0.00,0.00,-0.00,0.00
2026-06-26 18:38:29.581,994.16,994.15,-0.57,-1.00,0.00,1.44,0.22,9.19,0.00,0.00,-0.00,0.00
2026-06-26 18:38:29.668,994.16,994.15,-0.26,-0.67,0.00,1.47,0.23,9.20,0.00,0.00,0.00,0.00
2026-06-26 18:38:29.672,994.16,994.15,-0.26,-0.67,0.00,1.44,0.22,9.19,-0.00,0.00,0.00,0.00
2026-06-26 18:38:29.678,994.16,994.15,-0.26,-0.67,0.00,1.44,0.22,9.19,-0.00,0.00,0.00,0.00
2026-06-26 18:38:29.680,994.16,994.15,-0.26,-0.67,0.00,1.44,0.19,9.17,0.00,0.00,-0.00,0.00
2026-06-26 18:38:29.681,994.16,994.15,-0.26,-0.67,0.00,1.44,0.19,9.17,0.00,0.00,-0.00,0.00
2026-06-26 18:38:29.685,994.16,994.15,-0.26,-0.67,0.00,1.44,0.19,9.17,0.00,0.00,-0.00,0.00
2026-06-26 18:38:29.689,994.16,994.15,-0.26,-0.67,0.00,1.44,0.19,9.17,0.00,-0.00,0.00,0.00
2026-06-26 18:38:29.690,994.16,994.15,-0.26,-0.67,0.00,1.44,0.22,9.22,0.00,-0.00,0.00,0.00
2026-06-26 18:38:29.692,994.16,994.15,-0.26,-0.67,0.00,1.44,0.22,9.22,0.00,-0.00,0.00,0.00
2026-06-26 18:38:29.698,994.16,994.15,-0.26,-0.67,0.00,1.44,0.22,9.22,0.00,-0.00,0.00,0.00
2026-06-26 18:38:29.700,994.16,994.15,-0.26,-0.67,0.00,1.45,0.23,9.21,0.00,-0.00,0.00,0.00
2026-06-26 18:38:29.701,994.16,994.15,-0.26,-0.67,0.00,1.45,0.23,9.21,0.00,-0.00,0.00,0.00
2026-06-26 18:38:29.703,994.16,994.15,-0.26,-0.67,0.00,1.45,0.23,9.21,0.00,-0.00,0.00,0.00
2026-06-26 18:38:29.705,994.16,994.15,-0.26,-0.67,0.00,1.45,0.23,9.21,0.00,-0.00,0.00,0.00
2026-06-26 18:38:29.708,994.16,994.15,-0.26,-0.67,0.00,1.45,0.23,9.21,0.00,-0.00,0.00,0.00
2026-06-26 18:38:29.710,994.16,994.15,-0.26,-0.67,0.00,1.45,0.22,9.21,0.00,-0.00,-0.00,0.00
2026-06-26 18:38:29.711,994.16,994.15,-0.26,-0.67,0.00,1.45,0.22,9.21,0.00,-0.00,-0.00,0.00
2026-06-26 18:38:29.715,994.16,994.15,-0.26,-0.67,0.00,1.45,0.22,9.21,0.00,-0.00,-0.00,0.00
2026-06-26 18:38:29.719,994.16,994.15,-0.26,-0.67,0.00,1.45,0.22,9.21,0.00,0.00,0.00,0.00
2026-06-26 18:38:29.721,994.16,994.15,-0.26,-0.67,0.00,1.43,0.22,9.20,0.00,0.00,0.00,0.00
2026-06-26 18:38:29.722,994.16,994.15,-0.26,-0.67,0.00,1.43,0.22,9.20,0.00,0.00,0.00,0.00
2026-06-26 18:38:29.728,994.16,994.15,-0.26,-0.67,0.00,1.43,0.22,9.20,0.00,0.00,0.00,0.00
2026-06-26 18:38:29.811,994.16,994.15,-0.60,-1.02,0.00,1.46,0.22,9.21,0.00,0.00,0.00,0.00
2026-06-26 18:38:29.817,994.16,994.15,-0.60,-1.02,0.00,1.46,0.22,9.21,0.00,0.00,0.00,0.00
2026-06-26 18:38:29.819,994.16,994.15,-0.60,-1.02,0.00,1.45,0.21,9.19,-0.00,-0.00,0.00,0.00
2026-06-26 18:38:29.821,994.16,994.15,-0.60,-1.02,0.00,1.45,0.21,9.19,-0.00,-0.00,0.00,0.00
2026-06-26 18:38:29.823,994.16,994.15,-0.60,-1.02,0.00,1.45,0.21,9.19,-0.00,-0.00,0.00,0.00
2026-06-26 18:38:29.829,994.16,994.15,-0.60,-1.02,0.00,1.45,0.21,9.19,-0.00,-0.00,0.00,0.00
2026-06-26 18:38:29.831,994.16,994.15,-0.60,-1.02,0.00,1.43,0.23,9.18,0.00,-0.00,0.00,0.00
2026-06-26 18:38:29.833,994.16,994.15,-0.60,-1.02,0.00,1.43,0.23,9.18,0.00,-0.00,0.00,0.00
2026-06-26 18:38:29.838,994.16,994.15,-0.60,-1.02,0.00,1.43,0.23,9.18,0.00,-0.00,0.00,0.00
2026-06-26 18:38:29.840,994.16,994.15,-0.60,-1.02,0.00,1.45,0.24,9.20,0.00,0.00,0.00,0.00
2026-06-26 18:38:29.842,994.16,994.15,-0.60,-1.02,0.00,1.45,0.24,9.20,0.00,0.00,0.00,0.00
2026-06-26 18:38:29.846,994.16,994.15,-0.60,-1.02,0.00,1.45,0.24,9.20,0.00,0.00,0.00,0.00
2026-06-26 18:38:29.849,994.16,994.15,-0.60,-1.02,0.00,1.45,0.24,9.20,0.00,-0.00,-0.00,0.00
2026-06-26 18:38:29.851,994.16,994.15,-0.60,-1.02,0.00,1.45,0.22,9.21,0.00,-0.00,-0.00,0.00
2026-06-26 18:38:29.853,994.16,994.15,-0.60,-1.02,0.00,1.45,0.22,9.21,0.00,-0.00,-0.00,0.00
2026-06-26 18:38:29.855,994.16,994.15,-0.60,-1.02,0.00,1.45,0.22,9.21,0.00,-0.00,-0.00,0.00
2026-06-26 18:38:29.858,994.16,994.15,-0.60,-1.02,0.00,1.45,0.22,9.21,0.00,-0.00,-0.00,0.00
2026-06-26 18:38:29.860,994.16,994.15,-0.60,-1.02,0.00,1.43,0.23,9.22,0.00,0.00,0.00,0.00
2026-06-26 18:38:29.862,994.16,994.15,-0.60,-1.02,0.00,1.43,0.23,9.22,0.00,0.00,0.00,0.00
2026-06-26 18:38:29.866,994.16,994.15,-0.60,-1.02,0.00,1.43,0.23,9.22,0.00,0.00,0.00,0.00
2026-06-26 18:38:29.869,994.16,994.15,-0.60,-1.02,0.00,1.43,0.23,9.22,0.00,-0.00,-0.00,0.00
2026-06-26 18:38:29.953,994.16,994.15,-0.18,-0.56,0.00,1.45,0.21,9.20,0.00,-0.00,-0.00,0.00
2026-06-26 18:38:29.955,994.16,994.15,-0.18,-0.56,0.00,1.45,0.21,9.20,0.00,-0.00,-0.00,0.00
2026-06-26 18:38:29.959,994.16,994.15,-0.18,-0.56,0.00,1.45,0.21,9.20,0.00,0.00,0.00,0.00
2026-06-26 18:38:29.961,994.16,994.15,-0.18,-0.56,0.00,1.45,0.22,9.21,0.00,0.00,0.00,0.00
2026-06-26 18:38:29.963,994.16,994.15,-0.18,-0.56,0.00,1.45,0.22,9.21,0.00,0.00,0.00,0.00
2026-06-26 18:38:29.969,994.16,994.15,-0.18,-0.56,0.00,1.45,0.22,9.21,0.00,0.00,0.00,0.00
2026-06-26 18:38:29.971,994.16,994.15,-0.18,-0.56,0.00,1.44,0.22,9.22,0.00,-0.00,0.00,0.00
2026-06-26 18:38:29.972,994.16,994.15,-0.18,-0.56,0.00,1.44,0.22,9.22,0.00,-0.00,0.00,0.00
2026-06-26 18:38:29.977,994.16,994.15,-0.18,-0.56,0.00,1.44,0.22,9.22,0.00,-0.00,0.00,0.00
2026-06-26 18:38:29.980,994.16,994.15,-0.18,-0.56,0.00,1.44,0.22,9.22,0.00,-0.00,0.00,0.00
2026-06-26 18:38:29.981,994.16,994.15,-0.18,-0.56,0.00,1.43,0.22,9.19,0.00,-0.00,0.00,0.00
2026-06-26 18:38:29.983,994.16,994.15,-0.18,-0.56,0.00,1.43,0.22,9.19,0.00,-0.00,0.00,0.00
2026-06-26 18:38:29.989,994.16,994.15,-0.18,-0.56,0.00,1.43,0.22,9.19,0.00,-0.00,0.00,0.00
2026-06-26 18:38:29.991,994.16,994.15,-0.18,-0.56,0.00,1.44,0.23,9.19,0.00,0.00,0.00,0.00
2026-06-26 18:38:29.992,994.16,994.15,-0.18,-0.56,0.00,1.44,0.23,9.19,0.00,0.00,0.00,0.00
2026-06-26 18:38:29.998,994.16,994.15,-0.18,-0.56,0.00,1.44,0.23,9.19,0.00,0.00,0.00,0.00
2026-06-26 18:38:29.000,994.16,994.15,-0.18,-0.56,0.00,1.42,0.21,9.22,0.00,0.00,0.00,0.00
2026-06-26 18:38:29.002,994.16,994.15,-0.18,-0.56,0.00,1.42,0.21,9.22,0.00,0.00,0.00,0.00
2026-06-26 18:38:30.004,994.16,994.15,-0.18,-0.56,0.00,1.42,0.21,9.22,0.00,0.00,0.00,0.00
2026-06-26 18:38:30.005,994.16,994.15,-0.18,-0.56,0.00,1.42,0.21,9.22,0.00,0.00,0.00,0.00
2026-06-26 18:38:30.008,994.16,994.15,-0.18,-0.56,0.00,1.42,0.21,9.22,0.00,0.00,0.00,0.00
2026-06-26 18:38:30.010,994.16,994.15,-0.18,-0.56,0.00,1.46,0.23,9.21,0.00,0.00,0.00,0.00
2026-06-26 18:38:30.012,994.16,994.15,-0.18,-0.56,0.00,1.46,0.23,9.21,0.00,0.00,0.00,0.00
2026-06-26 18:38:30.099,994.15,994.16,0.27,0.70,0.00,1.45,0.21,9.21,-0.00,0.00,0.00,0.00
2026-06-26 18:38:30.101,994.15,994.16,0.27,0.70,0.00,1.44,0.22,9.21,0.00,-0.00,-0.00,0.00
2026-06-26 18:38:30.103,994.15,994.16,0.27,0.70,0.00,1.44,0.22,9.21,0.00,-0.00,-0.00,0.00
2026-06-26 18:38:30.104,994.15,994.16,0.27,0.70,0.00,1.44,0.22,9.21,0.00,-0.00,-0.00,0.00
2026-06-26 18:38:30.106,994.15,994.16,0.27,0.70,0.00,1.44,0.22,9.21,0.00,-0.00,-0.00,0.00
2026-06-26 18:38:30.109,994.15,994.16,0.27,0.70,0.00,1.44,0.22,9.21,0.00,-0.00,-0.00,0.00
2026-06-26 18:38:30.111,994.15,994.16,0.27,0.70,0.00,1.43,0.23,9.19,-0.00,0.00,-0.00,0.00
2026-06-26 18:38:30.112,994.15,994.16,0.27,0.70,0.00,1.43,0.23,9.19,-0.00,0.00,-0.00,0.00
2026-06-26 18:38:30.114,994.15,994.16,0.27,0.70,0.00,1.43,0.23,9.19,-0.00,0.00,-0.00,0.00
2026-06-26 18:38:30.119,994.15,994.16,0.27,0.70,0.00,1.43,0.23,9.19,-0.00,0.00,-0.00,0.00
2026-06-26 18:38:30.121,994.15,994.16,0.27,0.70,0.00,1.45,0.22,9.20,0.00,0.00,-0.00,0.00
2026-06-26 18:38:30.122,994.15,994.16,0.27,0.70,0.00,1.45,0.22,9.20,0.00,0.00,-0.00,0.00
2026-06-26 18:38:30.124,994.15,994.16,0.27,0.70,0.00,1.45,0.22,9.20,0.00,0.00,-0.00,0.00
2026-06-26 18:38:30.129,994.15,994.16,0.27,0.70,0.00,1.45,0.22,9.20,0.00,0.00,-0.00,0.00
2026-06-26 18:38:30.131,994.15,994.16,0.27,0.70,0.00,1.42,0.22,9.20,0.00,0.00,-0.00,0.00
2026-06-26 18:38:30.132,994.15,994.16,0.27,0.70,0.00,1.42,0.22,9.20,0.00,0.00,-0.00,0.00
2026-06-26 18:38:30.134,994.15,994.16,0.27,0.70,0.00,1.42,0.22,9.20,0.00,0.00,-0.00,0.00
2026-06-26 18:38:30.139,994.15,994.16,0.27,0.70,0.00,1.42,0.22,9.20,0.00,0.00,-0.00,0.00
2026-06-26 18:38:30.140,994.15,994.16,0.27,0.70,0.00,1.46,0.22,9.21,0.00,0.00,0.00,0.00
2026-06-26 18:38:30.142,994.15,994.16,0.27,0.70,0.00,1.46,0.22,9.21,0.00,0.00,0.00,0.00
2026-06-26 18:38:30.143,994.15,994.16,0.27,0.70,0.00,1.46,0.22,9.21,0.00,0.00,0.00,0.00
2026-06-26 18:38:30.149,994.15,994.16,0.27,0.70,0.00,1.46,0.22,9.21,0.00,0.00,0.00,0.00
2026-06-26 18:38:30.151,994.15,994.16,0.27,0.70,0.00,1.45,0.21,9.21,0.00,-0.00,0.00,0.00
2026-06-26 18:38:30.153,994.15,994.16,0.27,0.70,0.00,1.45,0.21,9.21,0.00,-0.00,0.00,0.00
2026-06-26 18:38:30.154,994.15,994.16,0.27,0.70,0.00,1.45,0.21,9.21,0.00,-0.00,0.00,0.00
2026-06-26 18:38:30.234,994.15,994.15,-0.06,-0.34,0.00,1.45,0.23,9.18,0.00,0.00,-0.00,0.00
2026-06-26 18:38:30.239,994.15,994.15,-0.06,-0.34,0.00,1.45,0.23,9.18,0.00,0.00,-0.00,0.00
2026-06-26 18:38:30.241,994.15,994.15,-0.06,-0.34,0.00,1.47,0.21,9.21,0.00,0.00,-0.00,0.00
2026-06-26 18:38:30.243,994.15,994.15,-0.06,-0.34,0.00,1.47,0.21,9.21,0.00,0.00,-0.00,0.00
2026-06-26 18:38:30.249,994.15,994.15,-0.06,-0.34,0.00,1.47,0.21,9.21,0.00,0.00,-0.00,0.00
2026-06-26 18:38:30.251,994.15,994.15,-0.06,-0.34,0.00,1.47,0.22,9.23,0.00,0.01,0.00,0.00
2026-06-26 18:38:30.252,994.15,994.15,-0.06,-0.34,0.00,1.47,0.22,9.23,0.00,0.01,0.00,0.00
2026-06-26 18:38:30.254,994.15,994.15,-0.06,-0.34,0.00,1.47,0.22,9.23,0.00,0.01,0.00,0.00
2026-06-26 18:38:30.255,994.15,994.15,-0.06,-0.34,0.00,1.47,0.22,9.23,0.00,0.01,0.00,0.00
2026-06-26 18:38:30.257,994.15,994.15,-0.06,-0.34,0.00,1.47,0.22,9.23,0.00,0.01,0.00,0.00
2026-06-26 18:38:30.260,994.15,994.15,-0.06,-0.34,0.00,1.47,0.22,9.23,0.00,0.00,-0.00,0.00
2026-06-26 18:38:30.262,994.15,994.15,-0.06,-0.34,0.00,1.46,0.22,9.22,0.00,0.00,-0.00,0.00
2026-06-26 18:38:30.263,994.15,994.15,-0.06,-0.34,0.00,1.46,0.22,9.22,0.00,0.00,-0.00,0.00
2026-06-26 18:38:30.269,994.15,994.15,-0.06,-0.34,0.00,1.46,0.22,9.22,0.00,0.00,-0.00,0.00
2026-06-26 18:38:30.271,994.15,994.15,-0.06,-0.34,0.00,1.45,0.22,9.23,0.00,0.00,0.00,0.00
2026-06-26 18:38:30.272,994.15,994.15,-0.06,-0.34,0.00,1.45,0.22,9.23,0.00,0.00,0.00,0.00
2026-06-26 18:38:30.274,994.15,994.15,-0.06,-0.34,0.00,1.45,0.22,9.23,0.00,0.00,0.00,0.00
2026-06-26 18:38:30.279,994.15,994.15,-0.06,-0.34,0.00,1.45,0.22,9.23,0.00,0.00,0.00,0.00
2026-06-26 18:38:30.281,994.15,994.15,-0.06,-0.34,0.00,1.47,0.21,9.21,-0.00,0.01,0.00,0.00
2026-06-26 18:38:30.283,994.15,994.15,-0.06,-0.34,0.00,1.47,0.21,9.21,-0.00,0.01,0.00,0.00
2026-06-26 18:38:30.285,994.15,994.15,-0.06,-0.34,0.00,1.47,0.21,9.21,-0.00,0.01,0.00,0.00
2026-06-26 18:38:30.290,994.15,994.15,-0.06,-0.34,0.00,1.47,0.21,9.21,0.00,0.00,0.00,0.00
2026-06-26 18:38:30.291,994.15,994.15,-0.06,-0.34,0.00,1.43,0.21,9.21,0.00,0.00,0.00,0.00
2026-06-26 18:38:30.293,994.15,994.15,-0.06,-0.34,0.00,1.43,0.21,9.21,0.00,0.00,0.00,0.00
2026-06-26 18:38:30.296,994.15,994.15,-0.06,-0.34,0.00,1.43,0.21,9.21,0.00,0.00,0.00,0.00
2026-06-26 18:38:30.380,994.16,994.15,-0.58,-1.01,0.00,1.45,0.21,9.21,0.00,0.00,0.00,0.00
2026-06-26 18:38:30.382,994.16,994.15,-0.58,-1.01,0.00,1.47,0.19,9.19,0.00,0.00,0.00,0.00
2026-06-26 18:38:30.384,994.16,994.15,-0.58,-1.01,0.00,1.47,0.19,9.19,0.00,0.00,0.00,0.00
2026-06-26 18:38:30.390,994.16,994.15,-0.58,-1.01,0.00,1.47,0.19,9.19,0.00,0.00,0.00,0.00
2026-06-26 18:38:30.391,994.16,994.15,-0.58,-1.01,0.00,1.45,0.22,9.22,0.00,0.00,0.00,0.00
2026-06-26 18:38:30.393,994.16,994.15,-0.58,-1.01,0.00,1.45,0.22,9.22,0.00,0.00,0.00,0.00
2026-06-26 18:38:30.397,994.16,994.15,-0.58,-1.01,0.00,1.45,0.22,9.22,0.00,0.00,0.00,0.00
2026-06-26 18:38:30.401,994.16,994.15,-0.58,-1.01,0.00,1.45,0.22,9.22,0.00,0.00,0.00,0.00
2026-06-26 18:38:30.402,994.16,994.15,-0.58,-1.01,0.00,1.44,0.22,9.24,0.00,0.00,0.00,0.00
2026-06-26 18:38:30.406,994.16,994.15,-0.58,-1.01,0.00,1.44,0.22,9.24,0.00,0.00,0.00,0.00
2026-06-26 18:38:30.410,994.16,994.15,-0.58,-1.01,0.00,1.44,0.22,9.24,0.00,0.00,-0.00,0.00
2026-06-26 18:38:30.412,994.16,994.15,-0.58,-1.01,0.00,1.44,0.21,9.23,0.00,0.00,-0.00,0.00
2026-06-26 18:38:30.413,994.16,994.15,-0.58,-1.01,0.00,1.44,0.21,9.23,0.00,0.00,-0.00,0.00
2026-06-26 18:38:30.418,994.16,994.15,-0.58,-1.01,0.00,1.44,0.21,9.23,0.00,0.00,-0.00,0.00
2026-06-26 18:38:30.421,994.16,994.15,-0.58,-1.01,0.00,1.44,0.21,9.23,0.00,0.00,0.00,0.00
2026-06-26 18:38:30.422,994.16,994.15,-0.58,-1.01,0.00,1.42,0.20,9.23,0.00,0.00,0.00,0.00
2026-06-26 18:38:30.424,994.16,994.15,-0.58,-1.01,0.00,1.42,0.20,9.23,0.00,0.00,0.00,0.00
2026-06-26 18:38:30.430,994.16,994.15,-0.58,-1.01,0.00,1.42,0.20,9.23,0.00,0.00,0.00,0.00
2026-06-26 18:38:30.431,994.16,994.15,-0.58,-1.01,0.00,1.44,0.22,9.22,0.00,0.00,-0.00,0.00
2026-06-26 18:38:30.433,994.16,994.15,-0.58,-1.01,0.00,1.44,0.22,9.22,0.00,0.00,-0.00,0.00
2026-06-26 18:38:30.435,994.16,994.15,-0.58,-1.01,0.00,1.44,0.22,9.22,0.00,0.00,-0.00,0.00
2026-06-26 18:38:30.440,994.16,994.15,-0.58,-1.01,0.00,1.44,0.22,9.22,0.00,0.00,-0.00,0.00
2026-06-26 18:38:30.523,994.15,994.15,-0.34,-0.77,0.00,1.46,0.23,9.21,0.00,-0.01,-0.00,0.00
2026-06-26 18:38:30.526,994.15,994.15,-0.34,-0.77,0.00,1.46,0.23,9.21,0.00,-0.01,-0.00,0.00
2026-06-26 18:38:30.530,994.15,994.15,-0.34,-0.77,0.00,1.46,0.23,9.21,0.00,0.00,0.00,0.00
2026-06-26 18:38:30.532,994.15,994.15,-0.34,-0.77,0.00,1.45,0.21,9.21,0.00,0.00,0.00,0.00
2026-06-26 18:38:30.533,994.15,994.15,-0.34,-0.77,0.00,1.45,0.21,9.21,0.00,0.00,0.00,0.00
2026-06-26 18:38:30.535,994.15,994.15,-0.34,-0.77,0.00,1.45,0.21,9.21,0.00,0.00,0.00,0.00
2026-06-26 18:38:30.540,994.15,994.15,-0.34,-0.77,0.00,1.45,0.21,9.21,0.00,0.00,0.00,0.00
2026-06-26 18:38:30.542,994.15,994.15,-0.34,-0.77,0.00,1.43,0.21,9.21,-0.00,0.00,0.00,0.00
2026-06-26 18:38:30.543,994.15,994.15,-0.34,-0.77,0.00,1.43,0.21,9.21,-0.00,0.00,0.00,0.00
2026-06-26 18:38:30.546,994.15,994.15,-0.34,-0.77,0.00,1.43,0.21,9.21,-0.00,0.00,0.00,0.00
2026-06-26 18:38:30.551,994.15,994.15,-0.34,-0.77,0.00,1.43,0.21,9.21,0.00,0.00,0.00,0.00
2026-06-26 18:38:30.552,994.15,994.15,-0.34,-0.77,0.00,1.44,0.22,9.22,0.00,0.00,0.00,0.00
2026-06-26 18:38:30.554,994.15,994.15,-0.34,-0.77,0.00,1.44,0.22,9.22,0.00,0.00,0.00,0.00
2026-06-26 18:38:30.556,994.15,994.15,-0.34,-0.77,0.00,1.44,0.22,9.22,0.00,0.00,0.00,0.00
2026-06-26 18:38:30.558,994.15,994.15,-0.34,-0.77,0.00,1.44,0.22,9.22,0.00,0.00,0.00,0.00
2026-06-26 18:38:30.561,994.15,994.15,-0.34,-0.77,0.00,1.44,0.22,9.22,0.00,-0.00,-0.00,0.00
2026-06-26 18:38:30.563,994.15,994.15,-0.34,-0.77,0.00,1.44,0.22,9.21,0.00,-0.00,-0.00,0.00
2026-06-26 18:38:30.564,994.15,994.15,-0.34,-0.77,0.00,1.44,0.22,9.21,0.00,-0.00,-0.00,0.00
2026-06-26 18:38:30.570,994.15,994.15,-0.34,-0.77,0.00,1.44,0.22,9.21,0.00,-0.00,-0.00,0.00
2026-06-26 18:38:30.572,994.15,994.15,-0.34,-0.77,0.00,1.45,0.24,9.22,0.00,0.00,-0.00,0.00
2026-06-26 18:38:30.573,994.15,994.15,-0.34,-0.77,0.00,1.45,0.24,9.22,0.00,0.00,-0.00,0.00
2026-06-26 18:38:30.577,994.15,994.15,-0.34,-0.77,0.00,1.45,0.24,9.22,0.00,0.00,-0.00,0.00
2026-06-26 18:38:30.581,994.15,994.15,-0.34,-0.77,0.00,1.45,0.24,9.22,0.00,0.00,0.00,0.00
2026-06-26 18:38:30.666,994.15,994.15,-0.33,-0.76,0.00,1.43,0.23,9.20,-0.00,0.00,-0.00,0.00
2026-06-26 18:38:30.671,994.15,994.15,-0.33,-0.76,0.00,1.43,0.23,9.20,0.00,-0.00,-0.00,0.00
2026-06-26 18:38:30.672,994.15,994.15,-0.33,-0.76,0.00,1.44,0.22,9.22,0.00,-0.00,-0.00,0.00
2026-06-26 18:38:30.674,994.15,994.15,-0.33,-0.76,0.00,1.44,0.22,9.22,0.00,-0.00,-0.00,0.00
2026-06-26 18:38:30.680,994.15,994.15,-0.33,-0.76,0.00,1.44,0.22,9.22,0.00,-0.00,-0.00,0.00
2026-06-26 18:38:30.681,994.15,994.15,-0.33,-0.76,0.00,1.45,0.22,9.19,0.00,-0.00,-0.00,0.00
2026-06-26 18:38:30.683,994.15,994.15,-0.33,-0.76,0.00,1.45,0.22,9.19,0.00,-0.00,-0.00,0.00
2026-06-26 18:38:30.685,994.15,994.15,-0.33,-0.76,0.00,1.45,0.22,9.19,0.00,-0.00,-0.00,0.00
2026-06-26 18:38:30.690,994.15,994.15,-0.33,-0.76,0.00,1.45,0.22,9.19,0.00,-0.00,-0.00,0.00
2026-06-26 18:38:30.692,994.15,994.15,-0.33,-0.76,0.00,1.45,0.22,9.23,0.00,0.00,-0.00,0.00
2026-06-26 18:38:30.694,994.15,994.15,-0.33,-0.76,0.00,1.45,0.22,9.23,0.00,0.00,-0.00,0.00
2026-06-26 18:38:30.698,994.15,994.15,-0.33,-0.76,0.00,1.45,0.22,9.23,0.00,0.00,-0.00,0.00
2026-06-26 18:38:30.701,994.15,994.15,-0.33,-0.76,0.00,1.45,0.22,9.23,0.00,0.00,-0.00,0.00
2026-06-26 18:38:30.703,994.15,994.15,-0.33,-0.76,0.00,1.42,0.22,9.21,0.00,0.00,-0.00,0.00
2026-06-26 18:38:30.705,994.15,994.15,-0.33,-0.76,0.00,1.42,0.22,9.21,0.00,0.00,-0.00,0.00
2026-06-26 18:38:30.706,994.15,994.15,-0.33,-0.76,0.00,1.42,0.22,9.21,0.00,0.00,-0.00,0.00
2026-06-26 18:38:30.708,994.15,994.15,-0.33,-0.76,0.00,1.42,0.22,9.21,0.00,0.00,-0.00,0.00
2026-06-26 18:38:30.711,994.15,994.15,-0.33,-0.76,0.00,1.42,0.22,9.21,0.00,0.00,0.00,0.00
2026-06-26 18:38:30.713,994.15,994.15,-0.33,-0.76,0.00,1.43,0.23,9.23,0.00,0.00,0.00,0.00
2026-06-26 18:38:30.714,994.15,994.15,-0.33,-0.76,0.00,1.43,0.23,9.23,0.00,0.00,0.00,0.00
2026-06-26 18:38:30.720,994.15,994.15,-0.33,-0.76,0.00,1.43,0.23,9.23,0.00,0.00,0.00,0.00
2026-06-26 18:38:30.722,994.15,994.15,-0.33,-0.76,0.00,1.44,0.22,9.20,0.00,-0.00,-0.00,0.00
2026-06-26 18:38:30.805,994.15,994.14,-1.03,-1.35,0.00,1.46,0.23,9.22,0.00,0.00,0.00,0.00
2026-06-26 18:38:30.807,994.15,994.14,-1.03,-1.35,0.00,1.46,0.23,9.22,0.00,0.00,0.00,0.00
2026-06-26 18:38:30.952,994.15,994.14,-1.03,-1.34,0.00,1.46,0.23,9.23,0.00,0.00,-0.00,0.00
2026-06-26 18:38:30.954,994.15,994.14,-1.03,-1.34,0.00,1.46,0.23,9.23,0.00,0.00,-0.00,0.00
2026-06-26 18:38:30.956,994.15,994.14,-1.03,-1.34,0.00,1.46,0.23,9.23,0.00,0.00,-0.00,0.00
2026-06-26 18:38:30.958,994.15,994.14,-1.03,-1.34,0.00,1.46,0.23,9.23,0.00,0.00,-0.00,0.00
2026-06-26 18:38:30.961,994.15,994.14,-1.03,-1.34,0.00,1.46,0.23,9.23,0.00,0.00,-0.00,0.00
2026-06-26 18:38:30.963,994.15,994.14,-1.03,-1.34,0.00,1.45,0.23,9.22,-0.00,-0.00,0.00,0.00
2026-06-26 18:38:30.964,994.15,994.14,-1.03,-1.34,0.00,1.45,0.23,9.22,-0.00,-0.00,0.00,0.00
2026-06-26 18:38:30.970,994.15,994.14,-1.03,-1.34,0.00,1.45,0.23,9.22,-0.00,-0.00,0.00,0.00
2026-06-26 18:38:30.972,994.15,994.14,-1.03,-1.34,0.00,1.45,0.22,9.22,0.00,0.00,-0.00,0.00
2026-06-26 18:38:30.974,994.15,994.14,-1.03,-1.34,0.00,1.45,0.22,9.22,0.00,0.00,-0.00,0.00
2026-06-26 18:38:30.976,994.15,994.14,-1.03,-1.34,0.00,1.45,0.22,9.22,0.00,0.00,-0.00,0.00
2026-06-26 18:38:30.981,994.15,994.14,-1.03,-1.34,0.00,1.45,0.22,9.22,0.00,0.00,-0.00,0.00
2026-06-26 18:38:30.983,994.15,994.14,-1.03,-1.34,0.00,1.46,0.23,9.18,0.00,-0.00,-0.00,0.00
2026-06-26 18:38:30.985,994.15,994.14,-1.03,-1.34,0.00,1.46,0.23,9.18,0.00,-0.00,-0.00,0.00
2026-06-26 18:38:30.991,994.15,994.14,-1.03,-1.34,0.00,1.46,0.23,9.18,0.00,-0.00,-0.00,0.00
2026-06-26 18:38:30.993,994.15,994.14,-1.03,-1.34,0.00,1.47,0.23,9.21,0.00,0.00,0.00,0.00
2026-06-26 18:38:30.995,994.15,994.14,-1.03,-1.34,0.00,1.47,0.23,9.21,0.00,0.00,0.00,0.00
2026-06-26 18:38:30.000,994.15,994.14,-1.03,-1.34,0.00,1.47,0.23,9.21,0.00,0.00,0.00,0.00
2026-06-26 18:38:30.002,994.15,994.14,-1.03,-1.34,0.00,1.43,0.22,9.23,0.00,0.00,0.00,0.00
2026-06-26 18:38:31.004,994.15,994.14,-1.03,-1.34,0.00,1.43,0.22,9.23,0.00,0.00,0.00,0.00
2026-06-26 18:38:31.006,994.15,994.14,-1.03,-1.34,0.00,1.43,0.22,9.23,0.00,0.00,0.00,0.00
2026-06-26 18:38:31.008,994.15,994.14,-1.03,-1.34,0.00,1.43,0.22,9.23,0.00,0.00,0.00,0.00
2026-06-26 18:38:31.011,994.15,994.14,-1.03,-1.34,0.00,1.43,0.22,9.23,0.00,0.00,0.00,0.00
2026-06-26 18:38:31.094,994.15,994.14,-1.31,-1.52,0.00,1.44,0.22,9.21,0.00,-0.00,-0.00,0.00
2026-06-26 18:38:31.100,994.15,994.14,-1.31,-1.52,0.00,1.44,0.22,9.21,0.00,-0.00,-0.00,0.00
2026-06-26 18:38:31.103,994.15,994.14,-1.31,-1.52,0.00,1.45,0.22,9.24,0.00,-0.00,0.00,0.00
2026-06-26 18:38:31.104,994.15,994.14,-1.31,-1.52,0.00,1.45,0.22,9.24,0.00,-0.00,0.00,0.00
2026-06-26 18:38:31.106,994.15,994.14,-1.31,-1.52,0.00,1.45,0.22,9.24,0.00,-0.00,0.00,0.00
2026-06-26 18:38:31.108,994.15,994.14,-1.31,-1.52,0.00,1.45,0.22,9.24,0.00,-0.00,0.00,0.00
2026-06-26 18:38:31.111,994.15,994.14,-1.31,-1.52,0.00,1.45,0.22,9.24,0.00,-0.00,0.00,0.00
2026-06-26 18:38:31.113,994.15,994.14,-1.31,-1.52,0.00,1.46,0.22,9.21,0.00,-0.00,0.00,0.00
2026-06-26 18:38:31.114,994.15,994.14,-1.31,-1.52,0.00,1.46,0.22,9.21,0.00,-0.00,0.00,0.00
2026-06-26 18:38:31.116,994.15,994.14,-1.31,-1.52,0.00,1.46,0.22,9.21,0.00,-0.00,0.00,0.00
2026-06-26 18:38:31.121,994.15,994.14,-1.31,-1.52,0.00,1.46,0.22,9.21,0.00,-0.00,0.00,0.00
2026-06-26 18:38:31.123,994.15,994.14,-1.31,-1.52,0.00,1.43,0.22,9.21,-0.00,-0.00,0.00,0.00
2026-06-26 18:38:31.125,994.15,994.14,-1.31,-1.52,0.00,1.43,0.22,9.21,-0.00,-0.00,0.00,0.00
2026-06-26 18:38:31.128,994.15,994.14,-1.31,-1.52,0.00,1.43,0.22,9.21,-0.00,-0.00,0.00,0.00
2026-06-26 18:38:31.132,994.15,994.14,-1.31,-1.52,0.00,1.43,0.22,9.21,0.00,0.00,0.00,0.00
2026-06-26 18:38:31.134,994.15,994.14,-1.31,-1.52,0.00,1.45,0.22,9.21,0.00,0.00,0.00,0.00
2026-06-26 18:38:31.135,994.15,994.14,-1.31,-1.52,0.00,1.45,0.22,9.21,0.00,0.00,0.00,0.00
2026-06-26 18:38:31.139,994.15,994.14,-1.31,-1.52,0.00,1.45,0.22,9.21,0.00,0.00,0.00,0.00
2026-06-26 18:38:31.142,994.15,994.14,-1.31,-1.52,0.00,1.45,0.22,9.21,0.00,-0.00,0.00,0.00
2026-06-26 18:38:31.144,994.15,994.14,-1.31,-1.52,0.00,1.46,0.23,9.21,0.00,-0.00,0.00,0.00
2026-06-26 18:38:31.145,994.15,994.14,-1.31,-1.52,0.00,1.46,0.23,9.21,0.00,-0.00,0.00,0.00
2026-06-26 18:38:31.151,994.15,994.14,-1.31,-1.52,0.00,1.46,0.23,9.21,0.00,-0.00,0.00,0.00
2026-06-26 18:38:31.153,994.15,994.14,-1.31,-1.52,0.00,1.46,0.23,9.21,0.00,0.00,-0.00,0.00
2026-06-26 18:38:31.236,994.16,994.14,-1.65,-1.70,0.00,1.44,0.23,9.17,0.00,-0.00,-0.00,0.00
2026-06-26 18:38:31.242,994.16,994.14,-1.65,-1.70,0.00,1.44,0.23,9.17,0.00,-0.00,-0.00,0.00
2026-06-26 18:38:31.243,994.16,994.14,-1.65,-1.70,0.00,1.45,0.22,9.20,0.00,0.00,0.00,0.00
2026-06-26 18:38:31.245,994.16,994.14,-1.65,-1.70,0.00,1.45,0.22,9.20,0.00,0.00,0.00,0.00
2026-06-26 18:38:31.249,994.16,994.14,-1.65,-1.70,0.00,1.45,0.22,9.20,0.00,0.00,0.00,0.00
2026-06-26 18:38:31.252,994.16,994.14,-1.65,-1.70,0.00,1.45,0.22,9.20,0.00,-0.00,-0.00,0.00
2026-06-26 18:38:31.254,994.16,994.14,-1.65,-1.70,0.00,1.45,0.23,9.20,0.00,-0.00,-0.00,0.00
2026-06-26 18:38:31.256,994.16,994.14,-1.65,-1.70,0.00,1.45,0.23,9.20,0.00,-0.00,-0.00,0.00
2026-06-26 18:38:31.258,994.16,994.14,-1.65,-1.70,0.00,1.45,0.23,9.20,0.00,-0.00,-0.00,0.00
2026-06-26 18:38:31.260,994.16,994.14,-1.65,-1.70,0.00,1.45,0.23,9.20,0.00,-0.00,-0.00,0.00
2026-06-26 18:38:31.263,994.16,994.14,-1.65,-1.70,0.00,1.45,0.22,9.23,-0.00,0.00,0.00,0.00
2026-06-26 18:38:31.264,994.16,994.14,-1.65,-1.70,0.00,1.45,0.22,9.23,-0.00,0.00,0.00,0.00
2026-06-26 18:38:31.267,994.16,994.14,-1.65,-1.70,0.00,1.45,0.22,9.23,-0.00,0.00,0.00,0.00
2026-06-26 18:38:31.272,994.16,994.14,-1.65,-1.70,0.00,1.45,0.22,9.23,-0.00,0.00,0.00,0.00
2026-06-26 18:38:31.274,994.16,994.14,-1.65,-1.70,0.00,1.45,0.22,9.20,0.00,0.00,-0.00,0.00
2026-06-26 18:38:31.275,994.16,994.14,-1.65,-1.70,0.00,1.45,0.22,9.20,0.00,0.00,-0.00,0.00
2026-06-26 18:38:31.281,994.16,994.14,-1.65,-1.70,0.00,1.45,0.22,9.20,0.00,0.00,-0.00,0.00
2026-06-26 18:38:31.283,994.16,994.14,-1.65,-1.70,0.00,1.46,0.21,9.20,0.00,-0.00,0.00,0.00
2026-06-26 18:38:31.285,994.16,994.14,-1.65,-1.70,0.00,1.46,0.21,9.20,0.00,-0.00,0.00,0.00
2026-06-26 18:38:31.288,994.16,994.14,-1.65,-1.70,0.00,1.46,0.21,9.20,0.00,-0.00,0.00,0.00
2026-06-26 18:38:31.292,994.16,994.14,-1.65,-1.70,0.00,1.46,0.21,9.20,0.00,0.00,0.00,0.00
