timestamp,pressure_bag,pressure_bme,diff_pressure,v_wind_est,speed,accel_x,accel_y,accel_z,gyro_x,gyro_y,gyro_z,power
2026-06-27 17:33:19.990,-0.23,993.70,99393.10,4886.19,0.00,2.29,-0.27,9.39,-0.00,-0.00,-0.00,0
2026-06-27 17:33:20.000,-0.23,993.70,99393.10,4886.19,0.00,2.29,-0.27,9.39,-0.00,-0.00,-0.00,0
2026-06-27 17:33:20.010,-0.23,993.70,99393.10,4886.19,0.00,2.29,-0.28,9.40,-0.00,-0.00,-0.00,0
2026-06-27 17:33:20.020,-0.23,993.70,99393.10,4886.19,0.00,2.32,-0.28,9.39,-0.00,-0.00,0.00,0
2026-06-27 17:33:20.030,-0.23,993.70,99393.10,4886.19,0.00,2.32,-0.28,9.39,-0.00,-0.00,0.00,0
2026-06-27 17:33:20.040,-0.23,993.70,99393.10,4886.19,0.00,2.31,-0.27,9.40,-0.00,-0.00,0.00,0
2026-06-27 17:33:20.050,993.65,993.70,4.75,2.89,0.00,2.31,-0.27,9.40,-0.00,-0.00,0.00,0
2026-06-27 17:33:20.060,993.65,993.70,4.75,2.89,0.00,2.30,-0.27,9.37,-0.00,-0.00,0.00,0
2026-06-27 17:33:20.070,993.65,993.70,4.75,2.89,0.00,2.30,-0.27,9.37,-0.00,-0.00,0.00,0
2026-06-27 17:33:20.080,993.65,993.70,4.75,2.89,0.00,2.31,-0.29,9.38,-0.00,0.00,0.00,0
2026-06-27 17:33:20.090,993.65,993.70,4.75,2.89,0.00,2.31,-0.29,9.38,-0.00,0.00,0.00,0
2026-06-27 17:33:20.100,993.65,993.70,4.75,2.89,0.00,2.32,-0.30,9.36,-0.00,-0.00,-0.00,0
2026-06-27 17:33:20.110,993.65,993.70,4.75,2.89,0.00,2.34,-0.26,9.39,-0.00,-0.00,-0.00,0
2026-06-27 17:33:20.120,993.65,993.70,4.75,2.89,0.00,2.30,-0.30,9.38,-0.00,-0.00,0.00,0
2026-06-27 17:33:20.130,993.65,993.70,4.75,2.89,0.00,2.30,-0.30,9.38,-0.00,-0.00,0.00,0
2026-06-27 17:33:20.140,993.65,993.69,3.70,2.55,0.00,2.30,-0.28,9.38,-0.00,-0.00,0.00,0
2026-06-27 17:33:20.150,993.65,993.69,3.70,2.55,0.00,2.31,-0.28,9.40,-0.00,-0.00,-0.00,0
2026-06-27 17:33:20.160,993.65,993.69,3.70,2.55,0.00,2.31,-0.28,9.40,-0.00,-0.00,-0.00,0
2026-06-27 17:33:20.170,993.65,993.69,3.70,2.55,0.00,2.32,-0.28,9.38,-0.00,0.00,0.00,0
2026-06-27 17:33:20.180,993.65,993.69,3.70,2.55,0.00,2.32,-0.28,9.36,-0.00,0.00,-0.00,0
2026-06-27 17:33:20.190,993.65,993.69,3.70,2.55,0.00,2.32,-0.28,9.36,-0.00,0.00,-0.00,0
2026-06-27 17:33:20.200,993.65,993.69,3.70,2.55,0.00,2.32,-0.27,9.40,-0.01,0.00,0.00,0
2026-06-27 17:33:20.210,993.65,993.69,3.70,2.55,0.00,2.30,-0.29,9.39,-0.00,0.00,-0.00,0
2026-06-27 17:33:20.220,993.67,993.69,2.30,2.01,0.00,2.30,-0.29,9.39,-0.00,0.00,-0.00,0
2026-06-27 17:33:20.230,993.67,993.69,2.30,2.01,0.00,2.31,-0.27,9.37,-0.00,-0.00,0.00,0
2026-06-27 17:33:20.240,993.67,993.69,2.30,2.01,0.00,2.33,-0.28,9.39,-0.00,-0.00,0.00,0
2026-06-27 17:33:20.250,993.67,993.69,2.30,2.01,0.00,2.33,-0.28,9.39,-0.00,-0.00,0.00,0
2026-06-27 17:33:20.260,993.67,993.69,2.30,2.01,0.00,2.31,-0.29,9.38,-0.00,-0.00,-0.00,0
2026-06-27 17:33:20.270,993.67,993.69,2.30,2.01,0.00,2.31,-0.27,9.40,-0.00,0.00,-0.00,0
2026-06-27 17:33:20.280,993.67,993.69,2.30,2.01,0.00,2.31,-0.29,9.37,-0.00,-0.00,0.00,0
2026-06-27 17:33:20.290,993.67,993.69,2.30,2.01,0.00,2.31,-0.29,9.37,-0.00,-0.00,0.00,0
2026-06-27 17:33:20.300,993.67,993.69,2.30,2.01,0.00,2.31,-0.30,9.39,-0.00,-0.00,-0.00,0
2026-06-27 17:33:20.310,993.67,993.69,2.44,2.07,0.00,2.32,-0.28,9.37,-0.00,-0.00,0.00,0
2026-06-27 17:33:20.320,993.67,993.69,2.44,2.07,0.00,2.32,-0.28,9.37,-0.00,-0.00,0.00,0
2026-06-27 17:33:20.330,993.67,993.69,2.44,2.07,0.00,2.30,-0.29,9.38,-0.00,0.00,-0.00,0
2026-06-27 17:33:20.340,993.67,993.69,2.44,2.07,0.00,2.30,-0.26,9.40,-0.00,0.00,-0.00,0
2026-06-27 17:33:20.350,993.67,993.69,2.44,2.07,0.00,2.32,-0.28,9.38,-0.00,-0.00,0.00,0
2026-06-27 17:33:20.360,993.67,993.69,2.44,2.07,0.00,2.32,-0.28,9.38,-0.00,-0.00,0.00,0
2026-06-27 17:33:20.370,993.67,993.69,2.44,2.07,0.00,2.32,-0.29,9.37,-0.00,0.00,0.00,0
2026-06-27 17:33:20.380,993.67,993.69,2.44,2.07,0.00,2.31,-0.28,9.38,0.00,0.00,0.00,0
2026-06-27 17:33:20.390,993.64,993.69,4.79,2.91,0.00,2.32,-0.29,9.40,-0.00,-0.00,-0.00,0
2026-06-27 17:33:20.400,993.64,993.69,4.79,2.91,0.00,2.32,-0.29,9.40,-0.00,-0.00,-0.00,0
2026-06-27 17:33:20.410,993.64,993.69,4.79,2.91,0.00,2.31,-0.29,9.39,0.00,-0.00,0.00,0
2026-06-27 17:33:20.420,993.64,993.69,4.79,2.91,0.00,2.31,-0.27,9.39,-0.00,-0.00,-0.00,0
2026-06-27 17:33:20.430,993.64,993.69,4.79,2.91,0.00,2.31,-0.27,9.39,-0.00,-0.00,-0.00,0
2026-06-27 17:33:20.440,993.64,993.69,4.79,2.91,0.00,2.31,-0.26,9.39,-0.00,0.00,0.00,0
2026-06-27 17:33:20.450,993.64,993.69,4.79,2.91,0.00,2.30,-0.29,9.39,0.00,-0.00,-0.00,0
2026-06-27 17:33:20.460,993.64,993.69,4.79,2.91,0.00,2.30,-0.31,9.38,-0.00,0.00,0.00,0
2026-06-27 17:33:20.470,993.64,993.69,4.97,2.96,0.00,2.30,-0.31,9.38,-0.00,0.00,0.00,0
2026-06-27 17:33:20.480,993.64,993.69,4.97,2.96,0.00,2.33,-0.28,9.39,-0.00,-0.00,0.00,0
2026-06-27 17:33:20.490,993.64,993.69,4.97,2.96,0.00,2.32,-0.28,9.38,-0.00,-0.00,-0.00,0
2026-06-27 17:33:20.500,993.64,993.69,4.97,2.96,0.00,2.32,-0.28,9.38,-0.00,-0.00,-0.00,0
2026-06-27 17:33:20.510,993.64,993.69,4.97,2.96,0.00,2.29,-0.28,9.39,0.00,0.00,0.00,0
2026-06-27 17:33:20.520,993.64,993.69,4.97,2.96,0.00,2.32,-0.29,9.41,0.00,-0.00,0.00,0
2026-06-27 17:33:20.530,993.64,993.69,4.97,2.96,0.00,2.31,-0.28,9.38,-0.00,-0.00,-0.00,0
2026-06-27 17:33:20.540,993.64,993.69,4.97,2.96,0.00,2.31,-0.28,9.38,-0.00,-0.00,-0.00,0
2026-06-27 17:33:20.550,993.65,993.69,4.64,2.86,0.00,2.31,-0.27,9.38,-0.00,-0.00,-0.00,0
2026-06-27 17:33:20.560,993.65,993.69,4.64,2.86,0.00,2.32,-0.29,9.38,0.00,-0.00,-0.00,0
2026-06-27 17:33:20.570,993.65,993.69,4.64,2.86,0.00,2.31,-0.29,9.39,-0.00,-0.00,-0.00,0
2026-06-27 17:33:20.580,993.65,993.69,4.64,2.86,0.00,2.30,-0.30,9.38,-0.00,-0.00,0.00,0
2026-06-27 17:33:20.590,993.65,993.69,4.64,2.86,0.00,2.30,-0.30,9.38,-0.00,-0.00,0.00,0
2026-06-27 17:33:20.600,993.65,993.69,4.64,2.86,0.00,2.30,-0.27,9.39,-0.00,-0.00,-0.00,0
2026-06-27 17:33:20.610,993.65,993.69,4.64,2.86,0.00,2.30,-0.29,9.41,-0.00,-0.00,-0.00,0
2026-06-27 17:33:20.620,993.65,993.69,4.64,2.86,0.00,2.31,-0.29,9.39,0.00,0.00,0.00,0
2026-06-27 17:33:20.630,993.65,993.69,4.64,2.86,0.00,2.31,-0.29,9.39,0.00,0.00,0.00,0
2026-06-27 17:33:20.640,993.65,993.69,4.14,2.70,0.00,2.32,-0.28,9.39,0.00,-0.00,-0.00,0
2026-06-27 17:33:20.650,993.65,993.69,4.14,2.70,0.00,2.32,-0.28,9.38,-0.00,-0.00,0.00,0
2026-06-27 17:33:20.660,993.65,993.69,4.14,2.70,0.00,2.32,-0.30,9.40,0.00,-0.00,0.00,0
2026-06-27 17:33:20.670,993.65,993.69,4.14,2.70,0.00,2.32,-0.30,9.40,0.00,-0.00,0.00,0
2026-06-27 17:33:20.680,993.65,993.69,4.14,2.70,0.00,2.30,-0.29,9.38,-0.00,-0.00,-0.00,0
2026-06-27 17:33:20.690,993.65,993.69,4.14,2.70,0.00,2.31,-0.28,9.38,-0.00,-0.00,-0.00,0
2026-06-27 17:33:20.700,993.65,993.69,4.14,2.70,0.00,2.31,-0.29,9.37,0.00,0.00,-0.00,0
2026-06-27 17:33:20.710,993.66,993.69,3.29,2.41,0.00,2.31,-0.29,9.37,0.00,0.00,-0.00,0
2026-06-27 17:33:20.720,993.66,993.69,3.29,2.41,0.00,2.31,-0.28,9.38,-0.00,0.00,-0.00,0
2026-06-27 17:33:20.730,993.66,993.69,3.29,2.41,0.00,2.32,-0.29,9.38,0.00,0.00,0.00,0
2026-06-27 17:33:20.740,993.66,993.69,3.29,2.41,0.00,2.32,-0.29,9.38,0.00,0.00,0.00,0
2026-06-27 17:33:20.750,993.66,993.69,3.29,2.41,0.00,2.30,-0.29,9.40,-0.00,-0.01,-0.00,0
2026-06-27 17:33:20.760,993.66,993.69,3.29,2.41,0.00,2.32,-0.28,9.38,0.00,-0.00,0.00,0
2026-06-27 17:33:20.770,993.66,993.69,3.29,2.41,0.00,2.31,-0.27,9.38,0.00,-0.00,0.00,0
2026-06-27 17:33:20.780,993.66,993.69,3.29,2.41,0.00,2.31,-0.27,9.38,0.00,-0.00,0.00,0
2026-06-27 17:33:20.790,993.66,993.69,3.29,2.41,0.00,2.31,-0.27,9.38,0.00,-0.00,0.00,0
2026-06-27 17:33:20.800,993.66,993.69,3.40,2.45,0.00,2.32,-0.29,9.39,-0.00,0.00,0.00,0
2026-06-27 17:33:20.810,993.66,993.69,3.40,2.45,0.00,2.30,-0.29,9.38,0.00,-0.00,0.00,0
2026-06-27 17:33:20.820,993.66,993.69,3.40,2.45,0.00,2.30,-0.29,9.38,0.00,-0.00,0.00,0
2026-06-27 17:33:20.830,993.66,993.69,3.40,2.45,0.00,2.30,-0.29,9.39,0.00,-0.00,0.00,0
2026-06-27 17:33:20.840,993.66,993.69,3.40,2.45,0.00,2.32,-0.28,9.38,0.00,-0.00,-0.00,0
2026-06-27 17:33:20.850,993.66,993.69,3.40,2.45,0.00,2.32,-0.28,9.39,0.00,0.00,0.00,0
2026-06-27 17:33:20.860,993.66,993.69,3.40,2.45,0.00,2.32,-0.28,9.39,0.00,0.00,0.00,0
2026-06-27 17:33:20.870,993.66,993.69,3.40,2.45,0.00,2.31,-0.27,9.38,-0.00,-0.00,-0.00,0
2026-06-27 17:33:20.880,993.65,993.69,4.25,2.74,0.00,2.31,-0.27,9.40,-0.00,-0.00,-0.00,0
2026-06-27 17:33:20.890,993.65,993.69,4.25,2.74,0.00,2.32,-0.29,9.38,0.00,0.00,0.00,0
2026-06-27 17:33:20.900,993.65,993.69,4.25,2.74,0.00,2.32,-0.29,9.38,0.00,0.00,0.00,0
2026-06-27 17:33:20.910,993.65,993.69,4.25,2.74,0.00,2.30,-0.30,9.39,0.00,-0.00,-0.00,0
2026-06-27 17:33:20.920,993.65,993.69,4.25,2.74,0.00,2.32,-0.27,9.38,0.00,0.00,0.00,0
2026-06-27 17:33:20.930,993.65,993.69,4.25,2.74,0.00,2.32,-0.27,9.38,0.00,0.00,0.00,0
2026-06-27 17:33:20.940,993.65,993.69,4.25,2.74,0.00,2.31,-0.28,9.41,-0.00,-0.00,-0.00,0
2026-06-27 17:33:20.950,993.65,993.69,4.25,2.74,0.00,2.29,-0.29,9.37,-0.00,-0.00,-0.00,0
2026-06-27 17:33:20.960,993.65,993.71,6.17,3.30,0.00,2.29,-0.29,9.37,-0.00,-0.00,-0.00,0
2026-06-27 17:33:20.970,993.65,993.71,6.17,3.30,0.00,2.33,-0.27,9.40,0.00,0.00,0.00,0
2026-06-27 17:33:20.980,993.65,993.71,6.17,3.30,0.00,2.32,-0.29,9.38,0.00,-0.00,0.00,0
2026-06-27 17:33:20.990,993.65,993.71,6.17,3.30,0.00,2.32,-0.29,9.38,0.00,-0.00,0.00,0
2026-06-27 17:33:21.000,993.65,993.71,6.17,3.30,0.00,2.30,-0.27,9.39,-0.00,-0.00,-0.00,0
2026-06-27 17:33:21.010,993.65,993.71,6.17,3.30,0.00,2.32,-0.27,9.40,0.00,0.00,0.00,0
2026-06-27 17:33:21.020,993.65,993.71,6.17,3.30,0.00,2.29,-0.28,9.38,0.00,0.00,-0.00,0
2026-06-27 17:33:21.030,993.65,993.71,6.17,3.30,0.00,2.29,-0.28,9.38,0.00,0.00,-0.00,0
2026-06-27 17:33:21.040,993.64,993.71,6.86,3.48,0.00,2.31,-0.28,9.38,0.00,-0.00,0.00,0
2026-06-27 17:33:21.050,993.64,993.71,6.86,3.48,0.00,2.32,-0.28,9.40,0.00,-0.00,-0.00,0
2026-06-27 17:33:21.060,993.64,993.71,6.86,3.48,0.00,2.29,-0.28,9.39,-0.00,-0.00,-0.00,0
2026-06-27 17:33:21.070,993.64,993.71,6.86,3.48,0.00,2.29,-0.28,9.39,-0.00,-0.00,-0.00,0
2026-06-27 17:33:21.080,993.64,993.71,6.86,3.48,0.00,2.31,-0.29,9.40,0.00,-0.00,-0.00,0
2026-06-27 17:33:21.090,993.64,993.71,6.86,3.48,0.00,2.33,-0.29,9.40,-0.00,0.00,-0.00,0
2026-06-27 17:33:21.100,993.64,993.71,6.86,3.48,0.00,2.33,-0.29,9.40,-0.00,0.00,-0.00,0
2026-06-27 17:33:21.110,993.64,993.71,6.86,3.48,0.00,2.32,-0.32,9.39,-0.00,-0.00,-0.00,0
2026-06-27 17:33:21.120,993.64,993.70,5.79,3.19,0.00,2.30,-0.27,9.40,0.00,-0.00,0.00,0
2026-06-27 17:33:21.130,993.64,993.70,5.79,3.19,0.00,2.32,-0.31,9.40,-0.00,-0.00,0.00,0
2026-06-27 17:33:21.140,993.64,993.70,5.79,3.19,0.00,2.32,-0.31,9.40,-0.00,-0.00,0.00,0
2026-06-27 17:33:21.150,993.64,993.70,5.79,3.19,0.00,2.31,-0.28,9.40,-0.00,-0.00,-0.00,0
2026-06-27 17:33:21.160,993.64,993.70,5.79,3.19,0.00,2.32,-0.29,9.39,0.00,-0.00,-0.00,0
2026-06-27 17:33:21.170,993.64,993.70,5.79,3.19,0.00,2.32,-0.30,9.40,0.00,-0.00,0.00,0
2026-06-27 17:33:21.180,993.64,993.70,5.79,3.19,0.00,2.32,-0.30,9.40,0.00,-0.00,0.00,0
2026-06-27 17:33:21.190,993.64,993.70,5.79,3.19,0.00,2.30,-0.30,9.39,-0.00,-0.00,-0.00,0
2026-06-27 17:33:21.200,993.64,993.70,5.79,3.19,0.00,2.32,-0.29,9.39,-0.00,-0.00,-0.00,0
2026-06-27 17:33:21.210,993.63,993.70,6.60,3.41,0.00,2.32,-0.27,9.42,0.00,0.00,0.00,0
2026-06-27 17:33:21.220,993.63,993.70,6.60,3.41,0.00,2.32,-0.27,9.42,0.00,0.00,0.00,0
2026-06-27 17:33:21.230,993.63,993.70,6.60,3.41,0.00,2.31,-0.28,9.40,0.00,0.00,-0.00,0
2026-06-27 17:33:21.240,993.63,993.70,6.60,3.41,0.00,2.34,-0.28,9.40,0.00,0.00,-0.00,0
2026-06-27 17:33:21.250,993.63,993.70,6.60,3.41,0.00,2.30,-0.30,9.41,-0.00,-0.00,-0.00,0
2026-06-27 17:33:21.260,993.63,993.70,6.60,3.41,0.00,2.30,-0.30,9.41,-0.00,-0.00,-0.00,0
2026-06-27 17:33:21.270,993.63,993.70,6.60,3.41,0.00,2.31,-0.30,9.40,-0.00,-0.00,-0.00,0
2026-06-27 17:33:21.280,993.63,993.70,6.60,3.41,0.00,2.31,-0.28,9.40,-0.00,-0.00,-0.00,0
2026-06-27 17:33:21.290,993.63,993.70,6.86,3.48,0.00,2.32,-0.28,9.41,0.00,-0.00,0.00,0
2026-06-27 17:33:21.300,993.63,993.70,6.86,3.48,0.00,2.32,-0.28,9.41,0.00,-0.00,0.00,0
2026-06-27 17:33:21.310,993.63,993.70,6.86,3.48,0.00,2.31,-0.30,9.41,0.00,-0.00,-0.00,0
2026-06-27 17:33:21.320,993.63,993.70,6.86,3.48,0.00,2.32,-0.28,9.39,0.00,-0.00,0.00,0
2026-06-27 17:33:21.330,993.63,993.70,6.86,3.48,0.00,2.32,-0.30,9.41,-0.00,0.00,0.00,0
2026-06-27 17:33:21.340,993.63,993.70,6.86,3.48,0.00,2.32,-0.30,9.41,-0.00,0.00,0.00,0
2026-06-27 17:33:21.350,993.63,993.70,6.86,3.48,0.00,2.31,-0.32,9.40,0.00,-0.00,-0.00,0
2026-06-27 17:33:21.360,993.63,993.70,6.86,3.48,0.00,2.31,-0.28,9.40,0.00,-0.00,-0.00,0
2026-06-27 17:33:21.370,993.63,993.70,7.33,3.59,0.00,2.32,-0.28,9.39,-0.00,0.00,0.00,0
2026-06-27 17:33:21.380,993.63,993.70,7.33,3.59,0.00,2.32,-0.28,9.39,-0.00,0.00,0.00,0
2026-06-27 17:33:21.390,993.63,993.70,7.33,3.59,0.00,2.31,-0.30,9.41,0.00,0.01,-0.00,0
2026-06-27 17:33:21.400,993.63,993.70,7.33,3.59,0.00,2.30,-0.28,9.40,0.00,-0.00,-0.00,0
2026-06-27 17:33:21.410,993.63,993.70,7.33,3.59,0.00,2.30,-0.28,9.40,0.00,-0.00,-0.00,0
2026-06-27 17:33:21.420,993.63,993.70,7.33,3.59,0.00,2.32,-0.28,9.41,-0.00,-0.00,-0.00,0
2026-06-27 17:33:21.430,993.63,993.70,7.33,3.59,0.00,2.31,-0.30,9.40,-0.00,0.00,0.00,0
2026-06-27 17:33:21.440,993.63,993.70,7.33,3.59,0.00,2.31,-0.30,9.40,-0.00,0.00,0.00,0
2026-06-27 17:33:21.450,993.63,993.70,7.44,3.62,0.00,2.32,-0.29,9.39,0.00,-0.00,-0.00,0
2026-06-27 17:33:21.460,993.63,993.70,7.44,3.62,0.00,2.31,-0.30,9.42,0.00,-0.00,0.00,0
2026-06-27 17:33:21.470,993.63,993.70,7.44,3.62,0.00,2.31,-0.28,9.39,0.00,-0.00,-0.00,0
2026-06-27 17:33:21.480,993.63,993.70,7.44,3.62,0.00,2.30,-0.28,9.40,0.00,0.00,-0.00,0
2026-06-27 17:33:21.490,993.63,993.70,7.44,3.62,0.00,2.30,-0.28,9.40,0.00,0.00,-0.00,0
2026-06-27 17:33:21.500,993.63,993.70,7.44,3.62,0.00,2.32,-0.27,9.42,-0.00,0.00,-0.00,0
2026-06-27 17:33:21.510,993.63,993.70,7.44,3.62,0.00,2.31,-0.31,9.39,0.00,0.00,-0.00,0
2026-06-27 17:33:21.520,993.63,993.70,7.44,3.62,0.00,2.30,-0.28,9.39,-0.00,0.00,0.00,0
2026-06-27 17:33:21.530,993.63,993.70,7.44,3.62,0.00,2.30,-0.28,9.39,-0.00,0.00,0.00,0
2026-06-27 17:33:21.540,993.64,993.70,6.48,3.38,0.00,2.30,-0.27,9.40,0.00,0.00,0.00,0
2026-06-27 17:33:21.550,993.64,993.70,6.48,3.38,0.00,2.32,-0.28,9.39,0.00,0.00,-0.00,0
2026-06-27 17:33:21.560,993.64,993.70,6.48,3.38,0.00,2.31,-0.30,9.41,0.00,0.00,-0.00,0
2026-06-27 17:33:21.570,993.64,993.70,6.48,3.38,0.00,2.31,-0.30,9.41,0.00,0.00,-0.00,0
2026-06-27 17:33:21.580,993.64,993.70,6.48,3.38,0.00,2.33,-0.28,9.41,0.00,-0.00,0.00,0
2026-06-27 17:33:21.590,993.64,993.70,6.48,3.38,0.00,2.30,-0.29,9.41,-0.00,-0.00,0.00,0
2026-06-27 17:33:21.600,993.64,993.70,6.48,3.38,0.00,2.33,-0.30,9.42,-0.00,-0.00,-0.00,0
2026-06-27 17:33:21.610,993.64,993.70,6.48,3.38,0.00,2.33,-0.30,9.42,-0.00,-0.00,-0.00,0
2026-06-27 17:33:21.620,993.64,993.69,5.25,3.04,0.00,2.31,-0.28,9.40,-0.00,0.00,0.00,0
2026-06-27 17:33:21.630,993.64,993.69,5.25,3.04,0.00,2.33,-0.28,9.39,-0.00,-0.00,-0.00,0
2026-06-27 17:33:21.640,993.64,993.69,5.25,3.04,0.00,2.32,-0.29,9.41,-0.00,-0.00,0.00,0
2026-06-27 17:33:21.650,993.64,993.69,5.25,3.04,0.00,2.32,-0.29,9.41,-0.00,-0.00,0.00,0
2026-06-27 17:33:21.660,993.64,993.69,5.25,3.04,0.00,2.32,-0.28,9.40,0.00,-0.00,-0.00,0
2026-06-27 17:33:21.670,993.64,993.69,5.25,3.04,0.00,2.32,-0.28,9.41,0.00,0.00,0.00,0
2026-06-27 17:33:21.680,993.64,993.69,5.25,3.04,0.00,2.31,-0.30,9.41,0.00,0.00,0.00,0
2026-06-27 17:33:21.690,993.64,993.69,5.25,3.04,0.00,2.31,-0.30,9.41,0.00,0.00,0.00,0
2026-06-27 17:33:21.700,993.64,993.69,5.08,2.99,0.00,2.31,-0.29,9.42,0.00,0.00,0.00,0
2026-06-27 17:33:21.710,993.64,993.69,5.08,2.99,0.00,2.31,-0.30,9.41,0.00,0.00,-0.00,0
2026-06-27 17:33:21.720,993.64,993.69,5.08,2.99,0.00,2.31,-0.30,9.40,0.00,-0.00,0.00,0
2026-06-27 17:33:21.730,993.64,993.69,5.08,2.99,0.00,2.31,-0.30,9.40,0.00,-0.00,0.00,0
2026-06-27 17:33:21.740,993.64,993.69,5.08,2.99,0.00,2.32,-0.27,9.40,0.00,0.00,0.00,0
2026-06-27 17:33:21.750,993.64,993.69,5.08,2.99,0.00,2.31,-0.31,9.38,0.00,0.00,-0.00,0
2026-06-27 17:33:21.760,993.64,993.69,5.08,2.99,0.00,2.30,-0.29,9.39,0.00,0.00,0.00,0
2026-06-27 17:33:21.770,993.64,993.69,5.08,2.99,0.00,2.33,-0.27,9.39,0.00,0.00,0.00,0
2026-06-27 17:33:21.780,993.64,993.69,4.84,2.92,0.00,2.33,-0.27,9.39,0.00,0.00,0.00,0
2026-06-27 17:33:21.790,993.64,993.69,4.84,2.92,0.00,2.31,-0.29,9.41,-0.00,0.00,0.00,0
2026-06-27 17:33:21.800,993.64,993.69,4.84,2.92,0.00,2.32,-0.30,9.41,-0.00,-0.00,0.00,0
2026-06-27 17:33:21.810,993.64,993.69,4.84,2.92,0.00,2.32,-0.30,9.41,-0.00,-0.00,0.00,0
2026-06-27 17:33:21.820,993.64,993.69,4.84,2.92,0.00,2.31,-0.28,9.39,0.00,-0.00,0.00,0
2026-06-27 17:33:21.830,993.64,993.69,4.84,2.92,0.00,2.32,-0.29,9.39,0.00,-0.00,-0.00,0
2026-06-27 17:33:21.840,993.64,993.69,4.84,2.92,0.00,2.30,-0.28,9.39,0.00,-0.00,-0.00,0
2026-06-27 17:33:21.850,993.64,993.69,4.84,2.92,0.00,2.30,-0.28,9.39,0.00,-0.00,-0.00,0
2026-06-27 17:33:21.860,993.64,993.69,4.84,2.92,0.00,2.32,-0.27,9.39,-0.00,0.00,-0.00,0
2026-06-27 17:33:21.870,993.63,993.69,5.34,3.07,0.00,2.31,-0.27,9.40,-0.00,0.00,0.00,0
2026-06-27 17:33:21.880,993.63,993.69,5.34,3.07,0.00,2.32,-0.29,9.38,0.00,0.00,0.00,0
2026-06-27 17:33:21.890,993.63,993.69,5.34,3.07,0.00,2.32,-0.29,9.38,0.00,0.00,0.00,0
2026-06-27 17:33:21.900,993.63,993.69,5.34,3.07,0.00,2.31,-0.30,9.41,-0.00,-0.00,0.00,0
2026-06-27 17:33:21.910,993.63,993.69,5.34,3.07,0.00,2.30,-0.26,9.40,0.00,-0.00,0.00,0
2026-06-27 17:33:21.920,993.63,993.69,5.34,3.07,0.00,2.32,-0.29,9.40,0.00,0.00,0.00,0
2026-06-27 17:33:21.930,993.63,993.69,5.34,3.07,0.00,2.31,-0.27,9.39,0.00,-0.00,0.00,0
2026-06-27 17:33:21.940,993.63,993.69,5.34,3.07,0.00,2.31,-0.27,9.39,0.00,-0.00,0.00,0
2026-06-27 17:33:21.950,993.63,993.69,6.00,3.25,0.00,2.32,-0.26,9.39,0.00,-0.00,0.00,0
2026-06-27 17:33:21.960,993.63,993.69,6.00,3.25,0.00,2.31,-0.29,9.41,-0.00,0.00,0.00,0
2026-06-27 17:33:21.970,993.63,993.69,6.00,3.25,0.00,2.31,-0.29,9.41,-0.00,0.00,0.00,0
2026-06-27 17:33:21.980,993.63,993.69,6.00,3.25,0.00,2.32,-0.29,9.40,0.00,0.00,0.00,0
2026-06-27 17:33:21.990,993.63,993.69,6.00,3.25,0.00,2.32,-0.28,9.41,-0.00,0.00,-0.00,0
2026-06-27 17:33:22.000,993.63,993.69,6.00,3.25,0.00,2.31,-0.28,9.39,0.00,0.00,0.00,0
2026-06-27 17:33:22.010,993.63,993.69,6.00,3.25,0.00,2.32,-0.27,9.39,-0.00,-0.00,-0.00,0
2026-06-27 17:33:22.020,993.63,993.69,6.00,3.25,0.00,2.32,-0.27,9.39,-0.00,-0.00,-0.00,0
2026-06-27 17:33:22.030,993.63,993.69,6.00,3.25,0.00,2.30,-0.29,9.39,0.00,0.00,-0.00,0
2026-06-27 17:33:22.040,993.64,993.69,5.04,2.98,0.00,2.31,-0.28,9.38,-0.00,0.00,-0.00,0
2026-06-27 17:33:22.050,993.64,993.69,5.04,2.98,0.00,2.32,-0.29,9.39,0.00,-0.00,-0.00,0
2026-06-27 17:33:22.060,993.64,993.69,5.04,2.98,0.00,2.32,-0.29,9.39,0.00,-0.00,-0.00,0
2026-06-27 17:33:22.070,993.64,993.69,5.04,2.98,0.00,2.31,-0.27,9.39,-0.00,0.00,0.00,0
2026-06-27 17:33:22.080,993.64,993.69,5.04,2.98,0.00,2.28,-0.27,9.39,0.00,-0.00,0.00,0
2026-06-27 17:33:22.090,993.64,993.69,5.04,2.98,0.00,2.32,-0.28,9.41,0.00,0.00,-0.00,0
2026-06-27 17:33:22.100,993.64,993.69,5.04,2.98,0.00,2.32,-0.28,9.41,0.00,0.00,-0.00,0
2026-06-27 17:33:22.110,993.64,993.70,5.67,3.16,0.00,2.32,-0.29,9.41,-0.00,0.00,-0.00,0
2026-06-27 17:33:22.120,993.64,993.70,5.67,3.16,0.00,2.31,-0.27,9.39,-0.00,0.00,0.00,0
2026-06-27 17:33:22.130,993.64,993.70,5.67,3.16,0.00,2.30,-0.28,9.42,-0.00,-0.00,-0.00,0
2026-06-27 17:33:22.140,993.64,993.70,5.67,3.16,0.00,2.30,-0.28,9.42,-0.00,-0.00,-0.00,0
2026-06-27 17:33:22.150,993.64,993.70,5.67,3.16,0.00,2.30,-0.26,9.40,0.00,0.00,0.00,0
2026-06-27 17:33:22.160,993.64,993.70,5.67,3.16,0.00,2.30,-0.28,9.41,0.00,-0.00,0.00,0
2026-06-27 17:33:22.170,993.64,993.70,5.67,3.16,0.00,2.32,-0.31,9.39,0.00,0.00,-0.00,0
2026-06-27 17:33:22.180,993.64,993.70,5.67,3.16,0.00,2.32,-0.31,9.39,0.00,0.00,-0.00,0
2026-06-27 17:33:22.190,993.64,993.70,5.67,3.16,0.00,2.32,-0.28,9.38,0.00,0.00,0.00,0
2026-06-27 17:33:22.200,993.64,993.70,6.00,3.25,0.00,2.31,-0.28,9.41,0.00,0.00,0.00,0
2026-06-27 17:33:22.210,993.64,993.70,6.00,3.25,0.00,2.30,-0.31,9.40,-0.00,0.00,-0.00,0
2026-06-27 17:33:22.220,993.64,993.70,6.00,3.25,0.00,2.30,-0.31,9.40,-0.00,0.00,-0.00,0
2026-06-27 17:33:22.230,993.64,993.70,6.00,3.25,0.00,2.30,-0.29,9.42,0.00,-0.00,-0.00,0
2026-06-27 17:33:22.240,993.64,993.70,6.00,3.25,0.00,2.32,-0.28,9.43,0.00,0.00,0.00,0
2026-06-27 17:33:22.250,993.64,993.70,6.00,3.25,0.00,2.31,-0.27,9.42,0.00,0.00,0.00,0
2026-06-27 17:33:22.260,993.64,993.70,6.00,3.25,0.00,2.31,-0.27,9.42,0.00,0.00,0.00,0
2026-06-27 17:33:22.270,993.64,993.70,6.00,3.25,0.00,2.31,-0.25,9.38,0.00,0.00,0.00,0
2026-06-27 17:33:22.280,993.64,993.69,5.18,3.02,0.00,2.32,-0.31,9.41,-0.00,0.00,0.00,0
2026-06-27 17:33:22.290,993.64,993.69,5.18,3.02,0.00,2.32,-0.28,9.40,-0.00,-0.00,0.00,0
2026-06-27 17:33:22.300,993.64,993.69,5.18,3.02,0.00,2.32,-0.28,9.40,-0.00,-0.00,0.00,0
2026-06-27 17:33:22.310,993.64,993.69,5.18,3.02,0.00,2.32,-0.27,9.42,0.00,-0.00,-0.00,0
2026-06-27 17:33:22.320,993.64,993.69,5.18,3.02,0.00,2.30,-0.29,9.40,0.00,0.00,-0.00,0
2026-06-27 17:33:22.330,993.64,993.69,5.18,3.02,0.00,2.33,-0.27,9.39,-0.00,0.00,0.00,0
2026-06-27 17:33:22.340,993.64,993.69,5.18,3.02,0.00,2.33,-0.27,9.39,-0.00,0.00,0.00,0
2026-06-27 17:33:22.350,993.64,993.69,5.18,3.02,0.00,2.31,-0.29,9.40,-0.00,-0.00,-0.00,0
2026-06-27 17:33:22.360,993.64,993.69,5.18,3.02,0.00,2.31,-0.27,9.41,0.00,0.00,-0.00,0
2026-06-27 17:33:22.370,993.63,993.69,6.22,3.31,0.00,2.31,-0.30,9.42,-0.00,0.00,0.00,0
2026-06-27 17:33:22.380,993.63,993.69,6.22,3.31,0.00,2.31,-0.30,9.42,-0.00,0.00,0.00,0
2026-06-27 17:33:22.390,993.63,993.69,6.22,3.31,0.00,2.31,-0.29,9.41,0.00,-0.00,0.00,0
2026-06-27 17:33:22.400,993.63,993.69,6.22,3.31,0.00,2.31,-0.29,9.39,0.00,0.00,-0.00,0
2026-06-27 17:33:22.410,993.63,993.69,6.22,3.31,0.00,2.32,-0.29,9.42,0.00,-0.00,0.00,0
2026-06-27 17:33:22.420,993.63,993.69,6.22,3.31,0.00,2.32,-0.29,9.42,0.00,-0.00,0.00,0
2026-06-27 17:33:22.430,993.63,993.69,6.22,3.31,0.00,2.32,-0.26,9.41,-0.00,-0.00,-0.00,0
2026-06-27 17:33:22.440,993.63,993.71,8.09,3.78,0.00,2.32,-0.27,9.40,0.00,0.00,0.00,0
2026-06-27 17:33:22.450,993.63,993.71,8.09,3.78,0.00,2.30,-0.27,9.41,-0.00,-0.00,0.00,0
2026-06-27 17:33:22.460,993.63,993.71,8.09,3.78,0.00,2.30,-0.27,9.41,-0.00,-0.00,0.00,0
2026-06-27 17:33:22.470,993.63,993.71,8.09,3.78,0.00,2.29,-0.28,9.39,-0.00,0.00,-0.00,0
2026-06-27 17:33:22.480,993.63,993.71,8.09,3.78,0.00,2.30,-0.28,9.40,0.00,0.00,0.00,0
2026-06-27 17:33:22.490,993.63,993.71,8.09,3.78,0.00,2.31,-0.29,9.39,0.00,0.00,0.00,0
2026-06-27 17:33:22.500,993.63,993.71,8.09,3.78,0.00,2.31,-0.29,9.39,0.00,0.00,0.00,0
2026-06-27 17:33:22.510,993.63,993.71,8.09,3.78,0.00,2.31,-0.27,9.41,0.00,0.00,0.00,0
2026-06-27 17:33:22.520,993.63,993.71,8.09,3.78,0.00,2.32,-0.29,9.40,0.00,-0.00,0.00,0
2026-06-27 17:33:22.530,993.63,993.71,8.37,3.84,0.00,2.31,-0.28,9.40,0.00,0.00,0.00,0
2026-06-27 17:33:22.540,993.63,993.71,8.37,3.84,0.00,2.32,-0.28,9.40,0.00,-0.00,0.00,0
2026-06-27 17:33:22.550,993.63,993.71,8.37,3.84,0.00,2.32,-0.28,9.40,0.00,-0.00,0.00,0
2026-06-27 17:33:22.560,993.63,993.71,8.37,3.84,0.00,2.31,-0.30,9.39,0.00,-0.00,-0.00,0
2026-06-27 17:33:22.570,993.63,993.71,8.37,3.84,0.00,2.30,-0.28,9.39,0.00,0.00,-0.00,0
2026-06-27 17:33:22.580,993.63,993.71,8.37,3.84,0.00,2.31,-0.28,9.41,0.00,0.00,-0.00,0
2026-06-27 17:33:22.590,993.63,993.71,8.37,3.84,0.00,2.31,-0.28,9.41,0.00,0.00,-0.00,0
2026-06-27 17:33:22.600,993.63,993.71,8.37,3.84,0.00,2.32,-0.29,9.42,0.00,-0.00,0.00,0
2026-06-27 17:33:22.610,993.63,993.68,5.54,3.13,0.00,2.31,-0.31,9.40,-0.00,-0.00,-0.00,0
2026-06-27 17:33:22.620,993.63,993.68,5.54,3.13,0.00,2.32,-0.28,9.40,-0.00,0.00,0.00,0
2026-06-27 17:33:22.630,993.63,993.68,5.54,3.13,0.00,2.32,-0.28,9.40,-0.00,0.00,0.00,0
2026-06-27 17:33:22.640,993.63,993.68,5.54,3.13,0.00,2.33,-0.29,9.40,0.00,0.00,-0.00,0
2026-06-27 17:33:22.650,993.63,993.68,5.54,3.13,0.00,2.30,-0.28,9.39,0.00,-0.00,-0.00,0
2026-06-27 17:33:22.660,993.63,993.68,5.54,3.13,0.00,2.30,-0.28,9.39,0.00,-0.00,-0.00,0
2026-06-27 17:33:22.670,993.63,993.68,5.54,3.13,0.00,2.31,-0.26,9.40,-0.00,-0.00,-0.00,0
2026-06-27 17:33:22.680,993.63,993.68,5.54,3.13,0.00,2.30,-0.27,9.39,0.00,-0.00,0.00,0
2026-06-27 17:33:22.690,993.63,993.68,5.54,3.13,0.00,2.32,-0.29,9.39,0.00,-0.00,0.00,0
2026-06-27 17:33:22.700,993.63,993.68,5.70,3.17,0.00,2.32,-0.28,9.40,0.00,0.00,0.00,0
2026-06-27 17:33:22.710,993.63,993.68,5.70,3.17,0.00,2.32,-0.28,9.40,0.00,0.00,0.00,0
2026-06-27 17:33:22.720,993.63,993.68,5.70,3.17,0.00,2.32,-0.27,9.39,-0.00,-0.00,0.00,0
2026-06-27 17:33:22.730,993.63,993.68,5.70,3.17,0.00,2.33,-0.28,9.38,0.00,-0.00,-0.00,0
2026-06-27 17:33:22.740,993.63,993.68,5.70,3.17,0.00,2.31,-0.28,9.40,0.00,-0.00,0.00,0
2026-06-27 17:33:22.750,993.63,993.68,5.70,3.17,0.00,2.31,-0.28,9.40,0.00,-0.00,0.00,0
2026-06-27 17:33:22.760,993.63,993.68,5.70,3.17,0.00,2.30,-0.27,9.39,0.00,0.00,-0.00,0
2026-06-27 17:33:22.770,993.63,993.70,7.60,3.66,0.00,2.32,-0.29,9.41,0.00,-0.00,-0.00,0
2026-06-27 17:33:22.780,993.63,993.70,7.60,3.66,0.00,2.32,-0.29,9.41,0.00,-0.00,-0.00,0
2026-06-27 17:33:22.790,993.63,993.70,7.60,3.66,0.00,2.31,-0.30,9.41,0.00,-0.00,0.00,0
2026-06-27 17:33:22.800,993.63,993.70,7.60,3.66,0.00,2.31,-0.28,9.41,0.00,0.00,-0.00,0
2026-06-27 17:33:22.810,993.63,993.70,7.60,3.66,0.00,2.32,-0.29,9.41,-0.00,-0.00,-0.00,0
2026-06-27 17:33:22.820,993.63,993.70,7.60,3.66,0.00,2.32,-0.29,9.41,-0.00,-0.00,-0.00,0
2026-06-27 17:33:22.830,993.63,993.70,7.60,3.66,0.00,2.32,-0.28,9.41,-0.00,-0.00,-0.00,0
2026-06-27 17:33:22.840,993.63,993.70,7.60,3.66,0.00,2.30,-0.32,9.39,0.00,0.00,-0.00,0
2026-06-27 17:33:22.850,993.63,993.70,7.60,3.66,0.00,2.31,-0.27,9.42,0.00,0.00,-0.00,0
2026-06-27 17:33:22.860,993.63,993.70,7.33,3.60,0.00,2.30,-0.27,9.40,-0.00,-0.00,-0.00,0
2026-06-27 17:33:22.870,993.63,993.70,7.33,3.60,0.00,2.30,-0.27,9.40,-0.00,-0.00,-0.00,0
2026-06-27 17:33:22.880,993.63,993.70,7.33,3.60,0.00,2.31,-0.29,9.39,0.00,-0.00,-0.00,0
2026-06-27 17:33:22.890,993.63,993.70,7.33,3.60,0.00,2.31,-0.30,9.41,0.00,0.00,-0.00,0
2026-06-27 17:33:22.900,993.63,993.70,7.33,3.60,0.00,2.31,-0.30,9.42,-0.00,0.00,0.00,0
2026-06-27 17:33:22.910,993.63,993.70,7.33,3.60,0.00,2.31,-0.30,9.42,-0.00,0.00,0.00,0
2026-06-27 17:33:22.920,993.63,993.70,7.33,3.60,0.00,2.30,-0.27,9.41,-0.00,0.00,-0.00,0
2026-06-27 17:33:22.930,993.63,993.69,6.25,3.32,0.00,2.34,-0.29,9.37,-0.00,0.00,-0.00,0
2026-06-27 17:33:22.940,993.63,993.69,6.25,3.32,0.00,2.34,-0.29,9.37,-0.00,0.00,-0.00,0
2026-06-27 17:33:22.950,993.63,993.69,6.25,3.32,0.00,2.30,-0.29,9.41,-0.00,-0.00,0.00,0
2026-06-27 17:33:22.960,993.63,993.69,6.25,3.32,0.00,2.30,-0.28,9.39,0.00,0.00,0.00,0
2026-06-27 17:33:22.970,993.63,993.69,6.25,3.32,0.00,2.31,-0.28,9.39,0.00,-0.00,-0.00,0
2026-06-27 17:33:22.980,993.63,993.69,6.25,3.32,0.00,2.31,-0.28,9.39,0.00,-0.00,-0.00,0
2026-06-27 17:33:22.990,993.63,993.69,6.25,3.32,0.00,2.31,-0.28,9.39,-0.00,0.00,-0.00,0
2026-06-27 17:33:23.000,993.63,993.69,6.25,3.32,0.00,2.31,-0.26,9.41,-0.00,-0.00,-0.00,0
2026-06-27 17:33:23.010,993.63,993.69,6.25,3.32,0.00,2.34,-0.27,9.39,0.00,0.00,-0.00,0
2026-06-27 17:33:23.020,993.63,993.69,6.25,3.32,0.00,2.32,-0.25,9.40,-0.00,0.00,-0.00,0
2026-06-27 17:33:23.030,993.64,993.69,5.13,3.01,0.00,2.32,-0.25,9.40,-0.00,0.00,-0.00,0
2026-06-27 17:33:23.040,993.64,993.69,5.13,3.01,0.00,2.33,-0.30,9.40,-0.00,-0.00,-0.00,0
2026-06-27 17:33:23.050,993.64,993.69,5.13,3.01,0.00,2.32,-0.27,9.41,0.00,0.00,-0.00,0
2026-06-27 17:33:23.060,993.64,993.69,5.13,3.01,0.00,2.31,-0.28,9.41,0.00,0.00,0.00,0
2026-06-27 17:33:23.070,993.64,993.69,5.13,3.01,0.00,2.31,-0.28,9.41,0.00,0.00,0.00,0
2026-06-27 17:33:23.080,993.64,993.69,5.13,3.01,0.00,2.31,-0.31,9.40,-0.00,-0.00,-0.00,0
2026-06-27 17:33:23.090,993.64,993.69,5.10,3.00,0.00,2.32,-0.27,9.39,0.00,0.00,0.00,0
2026-06-27 17:33:23.100,993.64,993.69,5.10,3.00,0.00,2.32,-0.28,9.41,-0.00,-0.00,0.00,0
2026-06-27 17:33:23.110,993.64,993.69,5.10,3.00,0.00,2.32,-0.28,9.41,-0.00,-0.00,0.00,0
2026-06-27 17:33:23.120,993.64,993.69,5.10,3.00,0.00,2.30,-0.28,9.41,-0.00,-0.00,-0.00,0
2026-06-27 17:33:23.130,993.64,993.69,5.10,3.00,0.00,2.32,-0.29,9.39,-0.00,0.00,-0.00,0
2026-06-27 17:33:23.140,993.64,993.69,5.10,3.00,0.00,2.32,-0.31,9.40,-0.00,0.00,0.00,0
2026-06-27 17:33:23.150,993.64,993.69,5.10,3.00,0.00,2.32,-0.31,9.40,-0.00,0.00,0.00,0
2026-06-27 17:33:23.160,993.64,993.69,5.10,3.00,0.00,2.30,-0.30,9.40,-0.00,0.00,-0.00,0
2026-06-27 17:33:23.170,993.64,993.69,5.10,3.00,0.00,2.32,-0.27,9.40,-0.00,-0.00,-0.00,0
2026-06-27 17:33:23.180,993.64,993.69,5.10,3.00,0.00,2.32,-0.29,9.41,-0.00,-0.00,0.00,0
2026-06-27 17:33:23.190,993.64,993.69,5.10,3.00,0.00,2.32,-0.29,9.41,-0.00,-0.00,0.00,0
2026-06-27 17:33:23.200,993.64,993.69,4.60,2.85,0.00,2.32,-0.27,9.40,-0.00,-0.00,-0.00,0
2026-06-27 17:33:23.210,993.64,993.69,4.60,2.85,0.00,2.32,-0.28,9.40,-0.00,0.00,-0.00,0
2026-06-27 17:33:23.220,993.64,993.69,4.60,2.85,0.00,2.33,-0.29,9.39,0.00,0.00,0.00,0
2026-06-27 17:33:23.230,993.64,993.69,4.60,2.85,0.00,2.33,-0.29,9.39,0.00,0.00,0.00,0
2026-06-27 17:33:23.240,993.64,993.69,4.60,2.85,0.00,2.32,-0.24,9.41,-0.00,-0.00,0.00,0
2026-06-27 17:33:23.250,993.64,993.69,4.60,2.85,0.00,2.31,-0.28,9.39,-0.00,-0.00,-0.00,0
2026-06-27 17:33:23.260,993.64,993.66,2.07,1.91,0.00,2.31,-0.29,9.42,-0.00,-0.00,-0.00,0
2026-06-27 17:33:23.270,993.64,993.66,2.07,1.91,0.00,2.31,-0.29,9.42,-0.00,-0.00,-0.00,0
2026-06-27 17:33:23.280,993.64,993.66,2.07,1.91,0.00,2.31,-0.27,9.40,-0.00,0.00,-0.00,0
2026-06-27 17:33:23.290,993.64,993.66,2.07,1.91,0.00,2.30,-0.26,9.41,0.00,0.00,0.00,0
2026-06-27 17:33:23.300,993.64,993.66,2.07,1.91,0.00,2.32,-0.28,9.40,0.00,0.00,-0.00,0
2026-06-27 17:33:23.310,993.64,993.66,2.07,1.91,0.00,2.31,-0.29,9.39,0.00,0.00,-0.00,0
2026-06-27 17:33:23.320,993.64,993.66,2.07,1.91,0.00,2.31,-0.29,9.39,0.00,0.00,-0.00,0
2026-06-27 17:33:23.330,993.64,993.66,2.07,1.91,0.00,2.31,-0.28,9.37,-0.00,0.00,0.00,0
2026-06-27 17:33:23.340,993.64,993.66,2.07,1.91,0.00,2.32,-0.29,9.39,-0.00,-0.00,-0.00,0
2026-06-27 17:33:23.350,993.64,993.66,2.07,1.91,0.00,2.32,-0.28,9.41,-0.00,0.00,0.00,0
2026-06-27 17:33:23.360,993.62,993.66,4.66,2.86,0.00,2.32,-0.28,9.41,-0.00,0.00,0.00,0
2026-06-27 17:33:23.370,993.62,993.66,4.66,2.86,0.00,2.31,-0.27,9.41,-0.00,0.00,-0.00,0
2026-06-27 17:33:23.380,993.62,993.66,4.66,2.86,0.00,2.32,-0.26,9.43,-0.00,-0.00,-0.00,0
2026-06-27 17:33:23.390,993.62,993.66,4.66,2.86,0.00,2.32,-0.26,9.43,-0.00,-0.00,-0.00,0
2026-06-27 17:33:23.400,993.62,993.66,4.66,2.86,0.00,2.31,-0.28,9.42,-0.00,-0.00,0.00,0
2026-06-27 17:33:23.410,993.62,993.66,4.66,2.86,0.00,2.29,-0.27,9.39,-0.00,0.00,-0.00,0
2026-06-27 17:33:23.420,993.62,993.66,4.66,2.86,0.00,2.29,-0.27,9.39,-0.00,0.00,-0.00,0
2026-06-27 17:33:23.430,993.62,993.67,5.46,3.10,0.00,2.32,-0.28,9.42,0.00,0.00,-0.00,0
2026-06-27 17:33:23.440,993.62,993.67,5.46,3.10,0.00,2.32,-0.27,9.39,0.00,0.00,0.00,0
2026-06-27 17:33:23.450,993.62,993.67,5.46,3.10,0.00,2.32,-0.26,9.40,-0.00,-0.00,-0.00,0
2026-06-27 17:33:23.460,993.62,993.67,5.46,3.10,0.00,2.32,-0.26,9.40,-0.00,-0.00,-0.00,0
2026-06-27 17:33:23.470,993.62,993.67,5.46,3.10,0.00,2.32,-0.27,9.39,0.00,-0.00,-0.00,0
2026-06-27 17:33:23.480,993.62,993.67,5.46,3.10,0.00,2.32,-0.27,9.42,0.00,-0.00,0.00,0
2026-06-27 17:33:23.490,993.62,993.67,5.46,3.10,0.00,2.32,-0.30,9.38,0.00,-0.00,0.00,0
2026-06-27 17:33:23.500,993.62,993.67,5.46,3.10,0.00,2.32,-0.30,9.38,0.00,-0.00,0.00,0
2026-06-27 17:33:23.510,993.62,993.67,5.46,3.10,0.00,2.31,-0.28,9.41,0.00,-0.00,-0.00,0
2026-06-27 17:33:23.520,993.65,993.67,2.55,2.12,0.00,2.30,-0.30,9.40,-0.00,-0.00,-0.00,0
2026-06-27 17:33:23.530,993.65,993.67,2.55,2.12,0.00,2.30,-0.30,9.40,-0.00,-0.00,-0.00,0
2026-06-27 17:33:23.540,993.65,993.67,2.55,2.12,0.00,2.31,-0.26,9.40,-0.00,-0.00,-0.00,0
2026-06-27 17:33:23.550,993.65,993.67,2.55,2.12,0.00,2.32,-0.26,9.42,0.00,0.00,0.00,0
2026-06-27 17:33:23.560,993.65,993.67,2.55,2.12,0.00,2.31,-0.28,9.39,0.00,0.01,0.00,0
2026-06-27 17:33:23.570,993.65,993.67,2.55,2.12,0.00,2.31,-0.28,9.39,0.00,0.01,0.00,0
2026-06-27 17:33:23.580,993.65,993.67,2.55,2.12,0.00,2.31,-0.28,9.38,-0.00,-0.00,-0.00,0
2026-06-27 17:33:23.590,993.65,993.69,4.46,2.81,0.00,2.31,-0.30,9.39,0.00,0.00,-0.00,0
2026-06-27 17:33:23.600,993.65,993.69,4.46,2.81,0.00,2.31,-0.30,9.39,0.00,0.00,-0.00,0
2026-06-27 17:33:23.610,993.65,993.69,4.46,2.81,0.00,2.32,-0.26,9.42,-0.00,-0.00,-0.00,0
2026-06-27 17:33:23.620,993.65,993.69,4.46,2.81,0.00,2.29,-0.30,9.43,0.00,-0.00,-0.00,0
2026-06-27 17:33:23.630,993.65,993.69,4.46,2.81,0.00,2.29,-0.30,9.43,0.00,-0.00,-0.00,0
2026-06-27 17:33:23.640,993.65,993.69,4.46,2.81,0.00,2.31,-0.28,9.40,0.00,0.00,0.00,0
2026-06-27 17:33:23.650,993.65,993.69,4.46,2.81,0.00,2.30,-0.29,9.42,-0.00,-0.00,-0.00,0
2026-06-27 17:33:23.660,993.65,993.69,4.46,2.81,0.00,2.31,-0.28,9.39,-0.00,-0.00,-0.00,0
2026-06-27 17:33:23.670,993.65,993.69,4.46,2.81,0.00,2.31,-0.28,9.39,-0.00,-0.00,-0.00,0
2026-06-27 17:33:23.680,993.65,993.69,4.46,2.81,0.00,2.32,-0.29,9.39,-0.00,-0.00,-0.00,0
2026-06-27 17:33:23.690,993.64,993.69,4.97,2.96,0.00,2.31,-0.29,9.41,0.00,-0.00,0.00,0
2026-06-27 17:33:23.700,993.64,993.69,4.97,2.96,0.00,2.30,-0.28,9.41,0.00,0.00,0.00,0
2026-06-27 17:33:23.710,993.64,993.69,4.97,2.96,0.00,2.30,-0.28,9.41,0.00,0.00,0.00,0
2026-06-27 17:33:23.720,993.64,993.69,4.97,2.96,0.00,2.33,-0.29,9.40,0.00,-0.00,-0.00,0
2026-06-27 17:33:23.730,993.64,993.69,4.97,2.96,0.00,2.32,-0.28,9.39,-0.00,0.00,-0.00,0
2026-06-27 17:33:23.740,993.64,993.69,4.97,2.96,0.00,2.32,-0.28,9.39,-0.00,0.00,-0.00,0
2026-06-27 17:33:23.750,993.64,993.69,4.97,2.96,0.00,2.31,-0.27,9.43,-0.00,-0.00,-0.00,0
2026-06-27 17:33:23.760,993.64,993.68,3.59,2.52,0.00,2.30,-0.29,9.41,0.00,-0.00,-0.00,0
2026-06-27 17:33:23.770,993.64,993.68,3.59,2.52,0.00,2.30,-0.28,9.39,0.00,0.00,0.00,0
2026-06-27 17:33:23.780,993.64,993.68,3.59,2.52,0.00,2.30,-0.28,9.39,0.00,0.00,0.00,0
2026-06-27 17:33:23.790,993.64,993.68,3.59,2.52,0.00,2.32,-0.27,9.39,0.00,0.00,0.00,0
2026-06-27 17:33:23.800,993.64,993.68,3.59,2.52,0.00,2.32,-0.28,9.41,0.00,0.00,-0.00,0
2026-06-27 17:33:23.810,993.64,993.68,3.59,2.52,0.00,2.32,-0.28,9.41,0.00,0.00,-0.00,0
2026-06-27 17:33:23.820,993.64,993.68,3.59,2.52,0.00,2.31,-0.28,9.39,-0.00,-0.00,0.00,0
2026-06-27 17:33:23.830,993.64,993.68,3.59,2.52,0.00,2.32,-0.28,9.40,0.00,0.00,-0.00,0
2026-06-27 17:33:23.840,993.64,993.68,3.59,2.52,0.00,2.32,-0.28,9.39,-0.00,-0.00,-0.00,0
2026-06-27 17:33:23.850,993.64,993.68,3.59,2.52,0.00,2.32,-0.28,9.39,-0.00,-0.00,-0.00,0
2026-06-27 17:33:23.860,993.62,993.68,5.49,3.11,0.00,2.31,-0.29,9.41,0.00,-0.00,-0.00,0
2026-06-27 17:33:23.870,993.62,993.68,5.49,3.11,0.00,2.32,-0.29,9.40,0.00,0.00,0.00,0
2026-06-27 17:33:23.880,993.62,993.68,5.49,3.11,0.00,2.32,-0.29,9.40,0.00,0.00,0.00,0
