timestamp,pressure_bag,pressure_bme,diff_pressure,v_wind_est,speed,accel_x,accel_y,accel_z,gyro_x,gyro_y,gyro_z,power
2026-06-26 19:36:07.021,994.25,994.26,0.56,0.99,0.00,1.06,0.20,9.27,0.00,-0.00,-0.00,0.00
2026-06-26 19:36:07.023,994.25,994.26,0.56,0.99,0.00,1.06,0.22,9.27,0.00,0.00,-0.00,0.00
2026-06-26 19:36:07.024,994.25,994.26,0.56,0.99,0.00,1.06,0.22,9.27,0.00,0.00,-0.00,0.00
2026-06-26 19:36:07.025,994.25,994.26,0.56,0.99,0.00,1.06,0.22,9.27,0.00,0.00,-0.00,0.00
2026-06-26 19:36:07.028,994.25,994.26,0.56,0.99,0.00,1.06,0.22,9.27,0.00,0.00,-0.00,0.00
2026-06-26 19:36:07.032,994.25,994.26,0.56,0.99,0.00,1.06,0.22,9.27,-0.00,0.00,0.00,0.00
2026-06-26 19:36:07.033,994.25,994.26,0.56,0.99,0.00,1.06,0.25,9.23,-0.00,0.00,0.00,0.00
2026-06-26 19:36:07.036,994.25,994.26,0.56,0.99,0.00,1.06,0.25,9.23,-0.00,0.00,0.00,0.00
2026-06-26 19:36:07.042,994.25,994.26,0.56,0.99,0.00,1.06,0.25,9.23,-0.00,-0.00,0.00,0.00
2026-06-26 19:36:07.051,994.25,994.26,0.56,0.99,0.00,1.07,0.22,9.27,-0.00,-0.00,0.00,0.00
2026-06-26 19:36:07.053,994.25,994.26,0.56,0.99,0.00,1.05,0.21,9.26,-0.00,0.00,-0.00,0.00
2026-06-26 19:36:07.054,994.25,994.26,0.56,0.99,0.00,1.05,0.21,9.26,-0.00,0.00,-0.00,0.00
2026-06-26 19:36:07.056,994.25,994.26,0.56,0.99,0.00,1.05,0.21,9.26,-0.00,0.00,-0.00,0.00
2026-06-26 19:36:07.058,994.25,994.26,0.56,0.99,0.00,1.05,0.21,9.26,-0.00,0.00,-0.00,0.00
2026-06-26 19:36:07.062,994.25,994.26,0.56,0.99,0.00,1.05,0.21,9.26,-0.00,-0.00,0.00,0.00
2026-06-26 19:36:07.064,994.25,994.26,0.56,0.99,0.00,1.07,0.21,9.27,-0.00,-0.00,0.00,0.00
2026-06-26 19:36:07.066,994.25,994.26,0.56,0.99,0.00,1.07,0.21,9.27,-0.00,-0.00,0.00,0.00
2026-06-26 19:36:07.071,994.25,994.26,0.56,0.99,0.00,1.07,0.21,9.27,-0.00,-0.00,0.00,0.00
2026-06-26 19:36:07.073,994.25,994.26,0.56,0.99,0.00,1.07,0.22,9.28,-0.00,-0.00,0.00,0.00
2026-06-26 19:36:07.075,994.25,994.26,0.56,0.99,0.00,1.07,0.22,9.28,-0.00,-0.00,0.00,0.00
2026-06-26 19:36:07.122,994.25,994.26,0.26,0.68,0.00,1.06,0.23,9.28,-0.00,0.00,0.00,0.00
2026-06-26 19:36:07.163,994.26,994.26,0.00,0.09,0.00,1.05,0.22,9.27,-0.00,-0.00,0.00,0.00
2026-06-26 19:36:07.165,994.26,994.26,0.00,0.09,0.00,1.05,0.22,9.27,-0.00,-0.00,0.00,0.00
2026-06-26 19:36:07.166,994.26,994.26,0.00,0.09,0.00,1.05,0.22,9.27,-0.00,-0.00,0.00,0.00
2026-06-26 19:36:07.172,994.26,994.26,0.00,0.09,0.00,1.05,0.22,9.27,-0.00,-0.00,0.00,0.00
2026-06-26 19:36:07.174,994.26,994.26,0.00,0.09,0.00,1.08,0.24,9.26,0.00,-0.00,0.00,0.00
2026-06-26 19:36:07.175,994.26,994.26,0.00,0.09,0.00,1.08,0.24,9.26,0.00,-0.00,0.00,0.00
2026-06-26 19:36:07.180,994.26,994.26,0.00,0.09,0.00,1.08,0.24,9.26,0.00,-0.00,0.00,0.00
2026-06-26 19:36:07.183,994.26,994.26,0.00,0.09,0.00,1.08,0.24,9.26,-0.00,0.00,0.00,0.00
2026-06-26 19:36:07.186,994.26,994.26,0.00,0.09,0.00,1.07,0.23,9.23,-0.00,0.00,0.00,0.00
2026-06-26 19:36:07.190,994.26,994.26,0.00,0.09,0.00,1.07,0.23,9.23,-0.00,0.00,0.00,0.00
2026-06-26 19:36:07.193,994.26,994.26,0.00,0.09,0.00,1.07,0.22,9.26,-0.00,0.00,0.00,0.00
2026-06-26 19:36:07.194,994.26,994.26,0.00,0.09,0.00,1.07,0.22,9.26,-0.00,0.00,0.00,0.00
2026-06-26 19:36:07.197,994.26,994.26,0.00,0.09,0.00,1.07,0.22,9.26,-0.00,0.00,0.00,0.00
2026-06-26 19:36:07.202,994.26,994.26,0.00,0.09,0.00,1.07,0.22,9.26,-0.00,0.00,0.00,0.00
2026-06-26 19:36:07.203,994.26,994.26,0.00,0.09,0.00,1.05,0.23,9.28,-0.00,0.00,0.00,0.00
2026-06-26 19:36:07.205,994.26,994.26,0.00,0.09,0.00,1.05,0.23,9.28,-0.00,0.00,0.00,0.00
2026-06-26 19:36:07.206,994.26,994.26,0.00,0.09,0.00,1.05,0.23,9.28,-0.00,0.00,0.00,0.00
2026-06-26 19:36:07.207,994.26,994.26,0.00,0.09,0.00,1.05,0.23,9.28,-0.00,0.00,0.00,0.00
2026-06-26 19:36:07.208,994.26,994.26,0.00,0.09,0.00,1.05,0.23,9.28,-0.00,0.00,0.00,0.00
2026-06-26 19:36:07.211,994.26,994.26,0.00,0.09,0.00,1.05,0.23,9.28,-0.00,0.00,0.00,0.00
2026-06-26 19:36:07.213,994.26,994.26,0.00,0.09,0.00,1.07,0.22,9.26,0.00,-0.00,-0.00,0.00
2026-06-26 19:36:07.214,994.26,994.26,0.00,0.09,0.00,1.07,0.22,9.26,0.00,-0.00,-0.00,0.00
2026-06-26 19:36:07.215,994.26,994.26,0.00,0.09,0.00,1.07,0.22,9.26,0.00,-0.00,-0.00,0.00
2026-06-26 19:36:07.216,994.26,994.26,0.00,0.09,0.00,1.07,0.22,9.26,0.00,-0.00,-0.00,0.00
2026-06-26 19:36:07.263,994.26,994.26,0.10,0.42,0.00,1.08,0.22,9.26,0.00,-0.00,0.00,0.00
2026-06-26 19:36:07.303,994.26,994.26,0.19,0.57,0.00,1.08,0.22,9.29,0.00,0.00,0.00,0.00
2026-06-26 19:36:07.304,994.26,994.26,0.19,0.57,0.00,1.08,0.22,9.29,0.00,0.00,0.00,0.00
2026-06-26 19:36:07.306,994.26,994.26,0.19,0.57,0.00,1.08,0.22,9.29,0.00,0.00,0.00,0.00
2026-06-26 19:36:07.308,994.26,994.26,0.19,0.57,0.00,1.08,0.22,9.29,0.00,0.00,0.00,0.00
2026-06-26 19:36:07.312,994.26,994.26,0.19,0.57,0.00,1.08,0.22,9.29,0.00,0.00,0.00,0.00
2026-06-26 19:36:07.313,994.26,994.26,0.19,0.57,0.00,1.08,0.22,9.27,-0.00,-0.00,-0.00,0.00
2026-06-26 19:36:07.314,994.26,994.26,0.19,0.57,0.00,1.08,0.22,9.27,-0.00,-0.00,-0.00,0.00
2026-06-26 19:36:07.316,994.26,994.26,0.19,0.57,0.00,1.08,0.22,9.27,-0.00,-0.00,-0.00,0.00
2026-06-26 19:36:07.318,994.26,994.26,0.19,0.57,0.00,1.08,0.22,9.27,-0.00,-0.00,-0.00,0.00
2026-06-26 19:36:07.322,994.26,994.26,0.19,0.57,0.00,1.08,0.22,9.27,-0.00,0.00,0.00,0.00
2026-06-26 19:36:07.324,994.26,994.26,0.19,0.57,0.00,1.04,0.22,9.27,-0.00,0.00,0.00,0.00
2026-06-26 19:36:07.325,994.26,994.26,0.19,0.57,0.00,1.04,0.22,9.27,-0.00,0.00,0.00,0.00
2026-06-26 19:36:07.326,994.26,994.26,0.19,0.57,0.00,1.04,0.22,9.27,-0.00,0.00,0.00,0.00
2026-06-26 19:36:07.328,994.26,994.26,0.19,0.57,0.00,1.04,0.22,9.27,-0.00,0.00,0.00,0.00
2026-06-26 19:36:07.333,994.26,994.26,0.19,0.57,0.00,1.04,0.22,9.27,0.00,0.00,-0.00,0.00
2026-06-26 19:36:07.335,994.26,994.26,0.19,0.57,0.00,1.06,0.24,9.25,0.00,0.00,-0.00,0.00
2026-06-26 19:36:07.336,994.26,994.26,0.19,0.57,0.00,1.06,0.24,9.25,0.00,0.00,-0.00,0.00
2026-06-26 19:36:07.341,994.26,994.26,0.19,0.57,0.00,1.06,0.24,9.25,0.00,0.00,-0.00,0.00
2026-06-26 19:36:07.343,994.26,994.26,0.19,0.57,0.00,1.07,0.22,9.29,0.00,0.00,-0.00,0.00
2026-06-26 19:36:07.344,994.26,994.26,0.19,0.57,0.00,1.07,0.22,9.29,0.00,0.00,-0.00,0.00
2026-06-26 19:36:07.345,994.26,994.26,0.19,0.57,0.00,1.07,0.22,9.29,0.00,0.00,-0.00,0.00
2026-06-26 19:36:07.346,994.26,994.26,0.19,0.57,0.00,1.07,0.22,9.29,0.00,0.00,-0.00,0.00
2026-06-26 19:36:07.350,994.26,994.26,0.19,0.57,0.00,1.07,0.22,9.29,0.00,0.00,-0.00,0.00
2026-06-26 19:36:07.353,994.26,994.26,0.19,0.57,0.00,1.07,0.22,9.29,-0.00,0.00,0.00,0.00
2026-06-26 19:36:07.354,994.26,994.26,0.19,0.57,0.00,1.07,0.22,9.29,-0.00,0.00,0.00,0.00
2026-06-26 19:36:07.355,994.26,994.26,0.19,0.57,0.00,1.07,0.22,9.29,-0.00,0.00,0.00,0.00
2026-06-26 19:36:07.357,994.26,994.26,0.19,0.57,0.00,1.07,0.22,9.29,-0.00,0.00,0.00,0.00
2026-06-26 19:36:07.360,994.26,994.26,0.19,0.57,0.00,1.07,0.22,9.29,-0.00,0.00,0.00,0.00
2026-06-26 19:36:07.445,994.26,994.26,-0.08,-0.37,0.00,1.05,0.21,9.28,-0.00,0.00,0.00,0.00
2026-06-26 19:36:07.446,994.26,994.26,-0.08,-0.37,0.00,1.05,0.21,9.28,-0.00,0.00,0.00,0.00
2026-06-26 19:36:07.451,994.26,994.26,-0.08,-0.37,0.00,1.05,0.21,9.28,-0.00,0.00,0.00,0.00
2026-06-26 19:36:07.453,994.26,994.26,-0.08,-0.37,0.00,1.04,0.21,9.30,0.00,0.00,0.00,0.00
2026-06-26 19:36:07.454,994.26,994.26,-0.08,-0.37,0.00,1.04,0.21,9.30,0.00,0.00,0.00,0.00
2026-06-26 19:36:07.456,994.26,994.26,-0.08,-0.37,0.00,1.04,0.21,9.30,0.00,0.00,0.00,0.00
2026-06-26 19:36:07.457,994.26,994.26,-0.08,-0.37,0.00,1.04,0.21,9.30,0.00,0.00,0.00,0.00
2026-06-26 19:36:07.458,994.26,994.26,-0.08,-0.37,0.00,1.04,0.21,9.30,0.00,0.00,0.00,0.00
2026-06-26 19:36:07.459,994.26,994.26,-0.08,-0.37,0.00,1.04,0.21,9.30,0.00,0.00,0.00,0.00
2026-06-26 19:36:07.460,994.26,994.26,-0.08,-0.37,0.00,1.04,0.21,9.30,0.00,0.00,0.00,0.00
2026-06-26 19:36:07.463,994.26,994.26,-0.08,-0.37,0.00,1.04,0.21,9.30,0.00,0.00,0.00,0.00
2026-06-26 19:36:07.464,994.26,994.26,-0.08,-0.37,0.00,1.05,0.21,9.23,0.00,0.00,0.00,0.00
2026-06-26 19:36:07.465,994.26,994.26,-0.08,-0.37,0.00,1.05,0.21,9.23,0.00,0.00,0.00,0.00
2026-06-26 19:36:07.466,994.26,994.26,-0.08,-0.37,0.00,1.05,0.21,9.23,0.00,0.00,0.00,0.00
2026-06-26 19:36:07.468,994.26,994.26,-0.08,-0.37,0.00,1.05,0.21,9.23,0.00,0.00,0.00,0.00
2026-06-26 19:36:07.473,994.26,994.26,-0.08,-0.37,0.00,1.05,0.21,9.23,-0.00,0.00,-0.00,0.00
2026-06-26 19:36:07.474,994.26,994.26,-0.08,-0.37,0.00,1.07,0.22,9.30,-0.00,0.00,-0.00,0.00
2026-06-26 19:36:07.475,994.26,994.26,-0.08,-0.37,0.00,1.07,0.22,9.30,-0.00,0.00,-0.00,0.00
2026-06-26 19:36:07.476,994.26,994.26,-0.08,-0.37,0.00,1.07,0.22,9.30,-0.00,0.00,-0.00,0.00
2026-06-26 19:36:07.479,994.26,994.26,-0.08,-0.37,0.00,1.07,0.22,9.30,-0.00,0.00,-0.00,0.00
2026-06-26 19:36:07.483,994.26,994.26,-0.08,-0.37,0.00,1.07,0.22,9.30,-0.00,0.00,-0.00,0.00
2026-06-26 19:36:07.484,994.26,994.26,-0.08,-0.37,0.00,1.06,0.22,9.27,-0.00,0.00,-0.00,0.00
2026-06-26 19:36:07.485,994.26,994.26,-0.08,-0.37,0.00,1.06,0.22,9.27,-0.00,0.00,-0.00,0.00
2026-06-26 19:36:07.486,994.26,994.26,-0.08,-0.37,0.00,1.06,0.22,9.27,-0.00,0.00,-0.00,0.00
2026-06-26 19:36:07.487,994.26,994.26,-0.08,-0.37,0.00,1.06,0.22,9.27,-0.00,0.00,-0.00,0.00
2026-06-26 19:36:07.491,994.26,994.26,-0.08,-0.37,0.00,1.06,0.22,9.27,-0.00,0.00,-0.00,0.00
2026-06-26 19:36:07.493,994.26,994.26,-0.08,-0.37,0.00,1.07,0.22,9.25,-0.00,0.00,0.00,0.00
2026-06-26 19:36:07.494,994.26,994.26,-0.08,-0.37,0.00,1.07,0.22,9.25,-0.00,0.00,0.00,0.00
2026-06-26 19:36:07.497,994.26,994.26,-0.08,-0.37,0.00,1.07,0.22,9.25,-0.00,0.00,0.00,0.00
2026-06-26 19:36:07.500,994.26,994.26,-0.08,-0.37,0.00,1.07,0.22,9.25,-0.00,0.00,0.00,0.00
2026-06-26 19:36:07.503,994.26,994.26,-0.08,-0.37,0.00,1.07,0.22,9.25,-0.00,-0.00,0.00,0.00
2026-06-26 19:36:07.543,994.26,994.26,-0.03,-0.22,0.00,1.07,0.22,9.25,0.00,0.00,0.00,0.00
2026-06-26 19:36:07.544,994.26,994.26,-0.03,-0.22,0.00,1.06,0.23,9.28,0.00,0.00,0.00,0.00
2026-06-26 19:36:07.587,994.26,994.26,-0.42,-0.86,0.00,1.06,0.22,9.27,0.00,-0.00,0.00,0.00
2026-06-26 19:36:07.591,994.26,994.26,-0.42,-0.86,0.00,1.06,0.22,9.27,0.00,-0.00,0.00,0.00
2026-06-26 19:36:07.593,994.26,994.26,-0.42,-0.86,0.00,1.08,0.21,9.27,0.00,0.00,0.00,0.00
2026-06-26 19:36:07.594,994.26,994.26,-0.42,-0.86,0.00,1.08,0.21,9.27,0.00,0.00,0.00,0.00
2026-06-26 19:36:07.596,994.26,994.26,-0.42,-0.86,0.00,1.08,0.21,9.27,0.00,0.00,0.00,0.00
2026-06-26 19:36:07.597,994.26,994.26,-0.42,-0.86,0.00,1.08,0.21,9.27,0.00,0.00,0.00,0.00
2026-06-26 19:36:07.600,994.26,994.26,-0.42,-0.86,0.00,1.08,0.21,9.27,0.00,0.00,0.00,0.00
2026-06-26 19:36:07.603,994.26,994.26,-0.42,-0.86,0.00,1.08,0.21,9.27,0.00,-0.00,-0.00,0.00
2026-06-26 19:36:07.605,994.26,994.26,-0.42,-0.86,0.00,1.06,0.23,9.27,0.00,-0.00,-0.00,0.00
2026-06-26 19:36:07.606,994.26,994.26,-0.42,-0.86,0.00,1.06,0.23,9.27,0.00,-0.00,-0.00,0.00
2026-06-26 19:36:07.607,994.26,994.26,-0.42,-0.86,0.00,1.06,0.23,9.27,0.00,-0.00,-0.00,0.00
2026-06-26 19:36:07.608,994.26,994.26,-0.42,-0.86,0.00,1.06,0.23,9.27,0.00,-0.00,-0.00,0.00
2026-06-26 19:36:07.609,994.26,994.26,-0.42,-0.86,0.00,1.06,0.23,9.27,0.00,-0.00,-0.00,0.00
2026-06-26 19:36:07.611,994.26,994.26,-0.42,-0.86,0.00,1.06,0.23,9.27,0.00,-0.00,-0.00,0.00
2026-06-26 19:36:07.612,994.26,994.26,-0.42,-0.86,0.00,1.06,0.23,9.27,0.00,-0.00,-0.00,0.00
2026-06-26 19:36:07.614,994.26,994.26,-0.42,-0.86,0.00,1.07,0.21,9.26,0.00,0.00,-0.00,0.00
2026-06-26 19:36:07.615,994.26,994.26,-0.42,-0.86,0.00,1.07,0.21,9.26,0.00,0.00,-0.00,0.00
2026-06-26 19:36:07.616,994.26,994.26,-0.42,-0.86,0.00,1.07,0.21,9.26,0.00,0.00,-0.00,0.00
2026-06-26 19:36:07.617,994.26,994.26,-0.42,-0.86,0.00,1.07,0.21,9.26,0.00,0.00,-0.00,0.00
2026-06-26 19:36:07.623,994.26,994.26,-0.42,-0.86,0.00,1.07,0.21,9.26,0.00,0.00,-0.00,0.00
2026-06-26 19:36:07.624,994.26,994.26,-0.42,-0.86,0.00,1.05,0.22,9.27,-0.00,0.00,0.00,0.00
2026-06-26 19:36:07.625,994.26,994.26,-0.42,-0.86,0.00,1.05,0.22,9.27,-0.00,0.00,0.00,0.00
2026-06-26 19:36:07.626,994.26,994.26,-0.42,-0.86,0.00,1.05,0.22,9.27,-0.00,0.00,0.00,0.00
2026-06-26 19:36:07.627,994.26,994.26,-0.42,-0.86,0.00,1.05,0.22,9.27,-0.00,0.00,0.00,0.00
2026-06-26 19:36:07.633,994.26,994.26,-0.42,-0.86,0.00,1.05,0.22,9.27,-0.00,0.00,0.00,0.00
2026-06-26 19:36:07.634,994.26,994.26,-0.42,-0.86,0.00,1.06,0.23,9.27,-0.00,0.00,-0.00,0.00
2026-06-26 19:36:07.635,994.26,994.26,-0.42,-0.86,0.00,1.06,0.23,9.27,-0.00,0.00,-0.00,0.00
2026-06-26 19:36:07.636,994.26,994.26,-0.42,-0.86,0.00,1.06,0.23,9.27,-0.00,0.00,-0.00,0.00
2026-06-26 19:36:07.637,994.26,994.26,-0.42,-0.86,0.00,1.06,0.23,9.27,-0.00,0.00,-0.00,0.00
2026-06-26 19:36:07.643,994.26,994.26,-0.42,-0.86,0.00,1.06,0.23,9.27,-0.00,0.00,-0.00,0.00
2026-06-26 19:36:07.733,994.26,994.26,-0.16,-0.54,0.00,1.08,0.22,9.29,0.00,-0.00,0.00,0.00
2026-06-26 19:36:07.734,994.26,994.26,-0.16,-0.54,0.00,1.06,0.20,9.26,0.00,-0.00,0.00,0.00
2026-06-26 19:36:07.735,994.26,994.26,-0.16,-0.54,0.00,1.06,0.20,9.26,0.00,-0.00,0.00,0.00
2026-06-26 19:36:07.737,994.26,994.26,-0.16,-0.54,0.00,1.06,0.20,9.26,0.00,-0.00,0.00,0.00
2026-06-26 19:36:07.738,994.26,994.26,-0.16,-0.54,0.00,1.06,0.20,9.26,0.00,-0.00,0.00,0.00
2026-06-26 19:36:07.743,994.26,994.26,-0.16,-0.54,0.00,1.06,0.20,9.26,0.00,-0.00,0.00,0.00
2026-06-26 19:36:07.744,994.26,994.26,-0.16,-0.54,0.00,1.06,0.23,9.27,0.00,-0.00,0.00,0.00
2026-06-26 19:36:07.746,994.26,994.26,-0.16,-0.54,0.00,1.06,0.23,9.27,0.00,-0.00,0.00,0.00
2026-06-26 19:36:07.750,994.26,994.26,-0.16,-0.54,0.00,1.06,0.23,9.27,0.00,-0.00,0.00,0.00
2026-06-26 19:36:07.754,994.26,994.26,-0.16,-0.54,0.00,1.06,0.23,9.27,0.00,0.00,-0.00,0.00
2026-06-26 19:36:07.755,994.26,994.26,-0.16,-0.54,0.00,1.06,0.24,9.27,0.00,0.00,-0.00,0.00
2026-06-26 19:36:07.756,994.26,994.26,-0.16,-0.54,0.00,1.06,0.24,9.27,0.00,0.00,-0.00,0.00
2026-06-26 19:36:07.757,994.26,994.26,-0.16,-0.54,0.00,1.06,0.24,9.27,0.00,0.00,-0.00,0.00
2026-06-26 19:36:07.759,994.26,994.26,-0.16,-0.54,0.00,1.06,0.24,9.27,0.00,0.00,-0.00,0.00
2026-06-26 19:36:07.760,994.26,994.26,-0.16,-0.54,0.00,1.06,0.24,9.27,0.00,0.00,-0.00,0.00
2026-06-26 19:36:07.761,994.26,994.26,-0.16,-0.54,0.00,1.06,0.24,9.27,0.00,0.00,-0.00,0.00
2026-06-26 19:36:07.763,994.26,994.26,-0.16,-0.54,0.00,1.06,0.24,9.27,0.00,0.00,0.00,0.00
2026-06-26 19:36:07.765,994.26,994.26,-0.16,-0.54,0.00,1.06,0.22,9.27,0.00,0.00,0.00,0.00
2026-06-26 19:36:07.767,994.26,994.26,-0.16,-0.54,0.00,1.06,0.22,9.27,0.00,0.00,0.00,0.00
2026-06-26 19:36:07.771,994.26,994.26,-0.16,-0.54,0.00,1.06,0.22,9.27,0.00,0.00,0.00,0.00
2026-06-26 19:36:07.773,994.26,994.26,-0.16,-0.54,0.00,1.06,0.22,9.27,0.00,-0.00,0.00,0.00
2026-06-26 19:36:07.775,994.26,994.26,-0.16,-0.54,0.00,1.07,0.21,9.27,0.00,-0.00,0.00,0.00
2026-06-26 19:36:07.776,994.26,994.26,-0.16,-0.54,0.00,1.07,0.21,9.27,0.00,-0.00,0.00,0.00
2026-06-26 19:36:07.777,994.26,994.26,-0.16,-0.54,0.00,1.07,0.21,9.27,0.00,-0.00,0.00,0.00
2026-06-26 19:36:07.781,994.26,994.26,-0.16,-0.54,0.00,1.07,0.21,9.27,0.00,-0.00,0.00,0.00
2026-06-26 19:36:07.784,994.26,994.26,-0.16,-0.54,0.00,1.07,0.21,9.27,0.00,0.00,0.00,0.00
2026-06-26 19:36:07.785,994.26,994.26,-0.16,-0.54,0.00,1.07,0.21,9.25,0.00,0.00,0.00,0.00
2026-06-26 19:36:07.786,994.26,994.26,-0.16,-0.54,0.00,1.07,0.21,9.25,0.00,0.00,0.00,0.00
2026-06-26 19:36:07.874,994.26,994.26,-0.30,-0.73,0.00,1.06,0.21,9.27,-0.00,0.00,0.00,0.00
2026-06-26 19:36:07.876,994.26,994.26,-0.30,-0.73,0.00,1.06,0.22,9.29,-0.00,0.00,0.00,0.00
2026-06-26 19:36:07.877,994.26,994.26,-0.30,-0.73,0.00,1.06,0.22,9.29,-0.00,0.00,0.00,0.00
2026-06-26 19:36:07.882,994.26,994.26,-0.30,-0.73,0.00,1.06,0.22,9.29,-0.00,0.00,0.00,0.00
2026-06-26 19:36:07.884,994.26,994.26,-0.30,-0.73,0.00,1.07,0.23,9.27,-0.00,0.00,0.00,0.00
2026-06-26 19:36:07.885,994.26,994.26,-0.30,-0.73,0.00,1.07,0.23,9.27,-0.00,0.00,0.00,0.00
2026-06-26 19:36:07.887,994.26,994.26,-0.30,-0.73,0.00,1.07,0.23,9.27,-0.00,0.00,0.00,0.00
2026-06-26 19:36:07.893,994.26,994.26,-0.30,-0.73,0.00,1.07,0.23,9.27,-0.00,0.00,0.00,0.00
2026-06-26 19:36:07.895,994.26,994.26,-0.30,-0.73,0.00,1.06,0.23,9.25,0.00,0.00,-0.00,0.00
2026-06-26 19:36:07.896,994.26,994.26,-0.30,-0.73,0.00,1.06,0.23,9.25,0.00,0.00,-0.00,0.00
2026-06-26 19:36:07.897,994.26,994.26,-0.30,-0.73,0.00,1.06,0.23,9.25,0.00,0.00,-0.00,0.00
2026-06-26 19:36:07.899,994.26,994.26,-0.30,-0.73,0.00,1.06,0.23,9.25,0.00,0.00,-0.00,0.00
2026-06-26 19:36:07.904,994.26,994.26,-0.30,-0.73,0.00,1.06,0.23,9.25,0.00,0.00,-0.00,0.00
2026-06-26 19:36:07.905,994.26,994.26,-0.30,-0.73,0.00,1.04,0.23,9.25,0.00,0.00,-0.00,0.00
2026-06-26 19:36:07.906,994.26,994.26,-0.30,-0.73,0.00,1.04,0.23,9.25,0.00,0.00,-0.00,0.00
2026-06-26 19:36:07.907,994.26,994.26,-0.30,-0.73,0.00,1.04,0.23,9.25,0.00,0.00,-0.00,0.00
2026-06-26 19:36:07.909,994.26,994.26,-0.30,-0.73,0.00,1.04,0.23,9.25,0.00,0.00,-0.00,0.00
2026-06-26 19:36:07.910,994.26,994.26,-0.30,-0.73,0.00,1.04,0.23,9.25,0.00,0.00,-0.00,0.00
2026-06-26 19:36:07.911,994.26,994.26,-0.30,-0.73,0.00,1.04,0.23,9.25,0.00,0.00,-0.00,0.00
2026-06-26 19:36:07.913,994.26,994.26,-0.30,-0.73,0.00,1.04,0.23,9.25,0.00,0.00,-0.00,0.00
2026-06-26 19:36:07.914,994.26,994.26,-0.30,-0.73,0.00,1.07,0.21,9.30,-0.00,0.00,0.00,0.00
2026-06-26 19:36:07.916,994.26,994.26,-0.30,-0.73,0.00,1.07,0.21,9.30,-0.00,0.00,0.00,0.00
2026-06-26 19:36:07.917,994.26,994.26,-0.30,-0.73,0.00,1.07,0.21,9.30,-0.00,0.00,0.00,0.00
2026-06-26 19:36:07.918,994.26,994.26,-0.30,-0.73,0.00,1.07,0.21,9.30,-0.00,0.00,0.00,0.00
2026-06-26 19:36:07.922,994.26,994.26,-0.30,-0.73,0.00,1.07,0.21,9.30,-0.00,0.00,0.00,0.00
2026-06-26 19:36:07.924,994.26,994.26,-0.30,-0.73,0.00,1.05,0.23,9.27,0.00,0.00,0.00,0.00
2026-06-26 19:36:07.925,994.26,994.26,-0.30,-0.73,0.00,1.05,0.23,9.27,0.00,0.00,0.00,0.00
2026-06-26 19:36:07.926,994.26,994.26,-0.30,-0.73,0.00,1.05,0.23,9.27,0.00,0.00,0.00,0.00
2026-06-26 19:36:07.928,994.26,994.26,-0.30,-0.73,0.00,1.05,0.23,9.27,0.00,0.00,0.00,0.00
2026-06-26 19:36:07.973,994.26,994.26,-0.56,-0.99,0.00,1.04,0.23,9.30,0.00,-0.00,0.00,0.00
2026-06-26 19:36:08.015,994.26,994.26,-0.37,-0.80,0.00,1.07,0.22,9.27,0.00,-0.00,0.00,0.00
2026-06-26 19:36:08.016,994.26,994.26,-0.37,-0.80,0.00,1.07,0.22,9.27,0.00,-0.00,0.00,0.00
2026-06-26 19:36:08.017,994.26,994.26,-0.37,-0.80,0.00,1.07,0.22,9.27,0.00,-0.00,0.00,0.00
2026-06-26 19:36:08.021,994.26,994.26,-0.37,-0.80,0.00,1.07,0.22,9.27,0.00,-0.00,0.00,0.00
2026-06-26 19:36:08.024,994.26,994.26,-0.37,-0.80,0.00,1.07,0.22,9.27,0.00,0.00,-0.00,0.00
2026-06-26 19:36:08.025,994.26,994.26,-0.37,-0.80,0.00,1.07,0.22,9.27,0.00,0.00,-0.00,0.00
2026-06-26 19:36:08.027,994.26,994.26,-0.37,-0.80,0.00,1.07,0.22,9.27,0.00,0.00,-0.00,0.00
2026-06-26 19:36:08.028,994.26,994.26,-0.37,-0.80,0.00,1.07,0.22,9.27,0.00,0.00,-0.00,0.00
2026-06-26 19:36:08.031,994.26,994.26,-0.37,-0.80,0.00,1.07,0.22,9.27,0.00,0.00,-0.00,0.00
2026-06-26 19:36:08.034,994.26,994.26,-0.37,-0.80,0.00,1.07,0.22,9.27,-0.00,0.00,0.00,0.00
2026-06-26 19:36:08.035,994.26,994.26,-0.37,-0.80,0.00,1.05,0.25,9.25,-0.00,0.00,0.00,0.00
2026-06-26 19:36:08.037,994.26,994.26,-0.37,-0.80,0.00,1.05,0.25,9.25,-0.00,0.00,0.00,0.00
2026-06-26 19:36:08.038,994.26,994.26,-0.37,-0.80,0.00,1.05,0.25,9.25,-0.00,0.00,0.00,0.00
2026-06-26 19:36:08.041,994.26,994.26,-0.37,-0.80,0.00,1.05,0.25,9.25,-0.00,0.00,0.00,0.00
2026-06-26 19:36:08.044,994.26,994.26,-0.37,-0.80,0.00,1.05,0.25,9.25,0.00,-0.00,0.00,0.00
2026-06-26 19:36:08.045,994.26,994.26,-0.37,-0.80,0.00,1.07,0.22,9.25,0.00,-0.00,0.00,0.00
2026-06-26 19:36:08.047,994.26,994.26,-0.37,-0.80,0.00,1.07,0.22,9.25,0.00,-0.00,0.00,0.00
2026-06-26 19:36:08.048,994.26,994.26,-0.37,-0.80,0.00,1.07,0.22,9.25,0.00,-0.00,0.00,0.00
2026-06-26 19:36:08.051,994.26,994.26,-0.37,-0.80,0.00,1.07,0.22,9.25,0.00,-0.00,0.00,0.00
2026-06-26 19:36:08.054,994.26,994.26,-0.37,-0.80,0.00,1.07,0.22,9.25,0.00,0.00,0.00,0.00
2026-06-26 19:36:08.056,994.26,994.26,-0.37,-0.80,0.00,1.06,0.23,9.27,0.00,0.00,0.00,0.00
2026-06-26 19:36:08.057,994.26,994.26,-0.37,-0.80,0.00,1.06,0.23,9.27,0.00,0.00,0.00,0.00
2026-06-26 19:36:08.058,994.26,994.26,-0.37,-0.80,0.00,1.06,0.23,9.27,0.00,0.00,0.00,0.00
2026-06-26 19:36:08.059,994.26,994.26,-0.37,-0.80,0.00,1.06,0.23,9.27,0.00,0.00,0.00,0.00
2026-06-26 19:36:08.063,994.26,994.26,-0.37,-0.80,0.00,1.06,0.23,9.27,0.00,0.00,0.00,0.00
2026-06-26 19:36:08.064,994.26,994.26,-0.37,-0.80,0.00,1.05,0.22,9.27,0.00,-0.00,0.00,0.00
2026-06-26 19:36:08.066,994.26,994.26,-0.37,-0.80,0.00,1.05,0.22,9.27,0.00,-0.00,0.00,0.00
2026-06-26 19:36:08.067,994.26,994.26,-0.37,-0.80,0.00,1.05,0.22,9.27,0.00,-0.00,0.00,0.00
2026-06-26 19:36:08.068,994.26,994.26,-0.37,-0.80,0.00,1.05,0.22,9.27,0.00,-0.00,0.00,0.00
2026-06-26 19:36:08.114,994.26,994.26,-0.32,-0.75,0.00,1.06,0.21,9.26,0.00,0.00,0.00,0.00
2026-06-26 19:36:08.154,994.26,994.26,-0.23,-0.63,0.00,1.07,0.24,9.26,0.00,0.00,0.00,0.00
2026-06-26 19:36:08.156,994.26,994.26,-0.23,-0.63,0.00,1.07,0.22,9.28,0.00,0.00,0.00,0.00
2026-06-26 19:36:08.157,994.26,994.26,-0.23,-0.63,0.00,1.07,0.22,9.28,0.00,0.00,0.00,0.00
2026-06-26 19:36:08.158,994.26,994.26,-0.23,-0.63,0.00,1.07,0.22,9.28,0.00,0.00,0.00,0.00
2026-06-26 19:36:08.159,994.26,994.26,-0.23,-0.63,0.00,1.07,0.22,9.28,0.00,0.00,0.00,0.00
2026-06-26 19:36:08.161,994.26,994.26,-0.23,-0.63,0.00,1.07,0.22,9.28,0.00,0.00,0.00,0.00
2026-06-26 19:36:08.162,994.26,994.26,-0.23,-0.63,0.00,1.07,0.22,9.28,0.00,0.00,0.00,0.00
2026-06-26 19:36:08.164,994.26,994.26,-0.23,-0.63,0.00,1.07,0.22,9.28,-0.00,0.00,0.00,0.00
2026-06-26 19:36:08.165,994.26,994.26,-0.23,-0.63,0.00,1.04,0.23,9.29,-0.00,0.00,0.00,0.00
2026-06-26 19:36:08.167,994.26,994.26,-0.23,-0.63,0.00,1.04,0.23,9.29,-0.00,0.00,0.00,0.00
2026-06-26 19:36:08.172,994.26,994.26,-0.23,-0.63,0.00,1.04,0.23,9.29,-0.00,0.00,0.00,0.00
2026-06-26 19:36:08.176,994.26,994.26,-0.23,-0.63,0.00,1.06,0.21,9.27,0.00,0.00,0.00,0.00
2026-06-26 19:36:08.177,994.26,994.26,-0.23,-0.63,0.00,1.06,0.21,9.27,0.00,0.00,0.00,0.00
2026-06-26 19:36:08.179,994.26,994.26,-0.23,-0.63,0.00,1.06,0.21,9.27,0.00,0.00,0.00,0.00
2026-06-26 19:36:08.184,994.26,994.26,-0.23,-0.63,0.00,1.06,0.21,9.27,0.00,0.00,0.00,0.00
2026-06-26 19:36:08.185,994.26,994.26,-0.23,-0.63,0.00,1.06,0.22,9.30,0.00,-0.00,-0.00,0.00
2026-06-26 19:36:08.187,994.26,994.26,-0.23,-0.63,0.00,1.06,0.22,9.30,0.00,-0.00,-0.00,0.00
2026-06-26 19:36:08.189,994.26,994.26,-0.23,-0.63,0.00,1.06,0.22,9.30,0.00,-0.00,-0.00,0.00
2026-06-26 19:36:08.194,994.26,994.26,-0.23,-0.63,0.00,1.06,0.22,9.30,0.00,-0.00,-0.00,0.00
2026-06-26 19:36:08.195,994.26,994.26,-0.23,-0.63,0.00,1.07,0.23,9.28,-0.00,0.00,0.00,0.00
2026-06-26 19:36:08.196,994.26,994.26,-0.23,-0.63,0.00,1.07,0.23,9.28,-0.00,0.00,0.00,0.00
2026-06-26 19:36:08.197,994.26,994.26,-0.23,-0.63,0.00,1.07,0.23,9.28,-0.00,0.00,0.00,0.00
2026-06-26 19:36:08.199,994.26,994.26,-0.23,-0.63,0.00,1.07,0.23,9.28,-0.00,0.00,0.00,0.00
2026-06-26 19:36:08.204,994.26,994.26,-0.23,-0.63,0.00,1.07,0.23,9.28,-0.00,0.00,0.00,0.00
2026-06-26 19:36:08.206,994.26,994.26,-0.23,-0.63,0.00,1.07,0.22,9.26,0.00,-0.00,0.00,0.00
2026-06-26 19:36:08.207,994.26,994.26,-0.23,-0.63,0.00,1.07,0.22,9.26,0.00,-0.00,0.00,0.00
2026-06-26 19:36:08.208,994.26,994.26,-0.23,-0.63,0.00,1.07,0.22,9.26,0.00,-0.00,0.00,0.00
2026-06-26 19:36:08.209,994.26,994.26,-0.23,-0.63,0.00,1.07,0.22,9.26,0.00,-0.00,0.00,0.00
2026-06-26 19:36:08.210,994.26,994.26,-0.23,-0.63,0.00,1.07,0.22,9.26,0.00,-0.00,0.00,0.00
2026-06-26 19:36:08.288,994.26,994.26,-0.29,-0.71,0.00,1.05,0.21,9.29,0.00,0.00,0.00,0.00
2026-06-26 19:36:08.292,994.26,994.26,-0.29,-0.71,0.00,1.05,0.21,9.29,0.00,0.00,0.00,0.00
2026-06-26 19:36:08.295,994.26,994.26,-0.29,-0.71,0.00,1.05,0.21,9.29,-0.00,0.00,0.00,0.00
2026-06-26 19:36:08.296,994.26,994.26,-0.29,-0.71,0.00,1.07,0.22,9.27,-0.00,0.00,0.00,0.00
2026-06-26 19:36:08.297,994.26,994.26,-0.29,-0.71,0.00,1.07,0.22,9.27,-0.00,0.00,0.00,0.00
2026-06-26 19:36:08.298,994.26,994.26,-0.29,-0.71,0.00,1.07,0.22,9.27,-0.00,0.00,0.00,0.00
2026-06-26 19:36:08.301,994.26,994.26,-0.29,-0.71,0.00,1.07,0.22,9.27,-0.00,0.00,0.00,0.00
2026-06-26 19:36:08.305,994.26,994.26,-0.29,-0.71,0.00,1.07,0.22,9.27,0.00,0.00,0.00,0.00
2026-06-26 19:36:08.306,994.26,994.26,-0.29,-0.71,0.00,1.05,0.22,9.28,0.00,0.00,0.00,0.00
2026-06-26 19:36:08.307,994.26,994.26,-0.29,-0.71,0.00,1.05,0.22,9.28,0.00,0.00,0.00,0.00
2026-06-26 19:36:08.308,994.26,994.26,-0.29,-0.71,0.00,1.05,0.22,9.28,0.00,0.00,0.00,0.00
2026-06-26 19:36:08.310,994.26,994.26,-0.29,-0.71,0.00,1.05,0.22,9.28,0.00,0.00,0.00,0.00
2026-06-26 19:36:08.311,994.26,994.26,-0.29,-0.71,0.00,1.05,0.22,9.28,0.00,0.00,0.00,0.00
2026-06-26 19:36:08.312,994.26,994.26,-0.29,-0.71,0.00,1.05,0.22,9.28,0.00,0.00,0.00,0.00
2026-06-26 19:36:08.314,994.26,994.26,-0.29,-0.71,0.00,1.05,0.22,9.28,0.00,0.00,0.00,0.00
2026-06-26 19:36:08.315,994.26,994.26,-0.29,-0.71,0.00,1.07,0.22,9.26,-0.00,0.00,0.00,0.00
2026-06-26 19:36:08.316,994.26,994.26,-0.29,-0.71,0.00,1.07,0.22,9.26,-0.00,0.00,0.00,0.00
2026-06-26 19:36:08.318,994.26,994.26,-0.29,-0.71,0.00,1.07,0.22,9.26,-0.00,0.00,0.00,0.00
2026-06-26 19:36:08.319,994.26,994.26,-0.29,-0.71,0.00,1.07,0.22,9.26,-0.00,0.00,0.00,0.00
2026-06-26 19:36:08.324,994.26,994.26,-0.29,-0.71,0.00,1.07,0.22,9.26,-0.00,0.00,0.00,0.00
2026-06-26 19:36:08.325,994.26,994.26,-0.29,-0.71,0.00,1.08,0.22,9.27,-0.00,0.00,0.00,0.00
2026-06-26 19:36:08.326,994.26,994.26,-0.29,-0.71,0.00,1.08,0.22,9.27,-0.00,0.00,0.00,0.00
2026-06-26 19:36:08.328,994.26,994.26,-0.29,-0.71,0.00,1.08,0.22,9.27,-0.00,0.00,0.00,0.00
2026-06-26 19:36:08.329,994.26,994.26,-0.29,-0.71,0.00,1.08,0.22,9.27,-0.00,0.00,0.00,0.00
2026-06-26 19:36:08.334,994.26,994.26,-0.29,-0.71,0.00,1.08,0.22,9.27,-0.00,0.00,0.00,0.00
2026-06-26 19:36:08.337,994.26,994.26,-0.29,-0.71,0.00,1.05,0.23,9.25,0.00,0.00,0.00,0.00
2026-06-26 19:36:08.338,994.26,994.26,-0.29,-0.71,0.00,1.05,0.23,9.25,0.00,0.00,0.00,0.00
2026-06-26 19:36:08.344,994.26,994.26,-0.29,-0.71,0.00,1.05,0.23,9.25,0.00,0.00,0.00,0.00
2026-06-26 19:36:08.345,994.26,994.26,-0.29,-0.71,0.00,1.06,0.25,9.27,-0.00,-0.00,-0.00,0.00
2026-06-26 19:36:08.347,994.26,994.26,-0.29,-0.71,0.00,1.06,0.25,9.27,-0.00,-0.00,-0.00,0.00
2026-06-26 19:36:08.348,994.26,994.26,-0.29,-0.71,0.00,1.06,0.25,9.27,-0.00,-0.00,-0.00,0.00
2026-06-26 19:36:08.352,994.26,994.26,-0.29,-0.71,0.00,1.06,0.25,9.27,-0.00,-0.00,-0.00,0.00
2026-06-26 19:36:08.437,994.26,994.26,-0.60,-1.03,0.00,1.06,0.24,9.27,-0.00,-0.00,0.00,0.00
2026-06-26 19:36:08.439,994.26,994.26,-0.60,-1.03,0.00,1.06,0.24,9.27,-0.00,-0.00,0.00,0.00
2026-06-26 19:36:08.445,994.26,994.26,-0.60,-1.03,0.00,1.06,0.24,9.27,-0.00,-0.00,0.00,0.00
2026-06-26 19:36:08.446,994.26,994.26,-0.60,-1.03,0.00,1.06,0.21,9.28,0.00,-0.00,0.00,0.00
2026-06-26 19:36:08.451,994.26,994.26,-0.60,-1.03,0.00,1.06,0.21,9.28,0.00,-0.00,0.00,0.00
2026-06-26 19:36:08.455,994.26,994.26,-0.60,-1.03,0.00,1.06,0.21,9.28,0.00,0.00,0.00,0.00
2026-06-26 19:36:08.457,994.26,994.26,-0.60,-1.03,0.00,1.08,0.22,9.28,0.00,0.00,0.00,0.00
2026-06-26 19:36:08.459,994.26,994.26,-0.60,-1.03,0.00,1.08,0.22,9.28,0.00,0.00,0.00,0.00
2026-06-26 19:36:08.461,994.26,994.26,-0.60,-1.03,0.00,1.08,0.22,9.28,0.00,0.00,0.00,0.00
2026-06-26 19:36:08.462,994.26,994.26,-0.60,-1.03,0.00,1.08,0.22,9.28,0.00,0.00,0.00,0.00
2026-06-26 19:36:08.465,994.26,994.26,-0.60,-1.03,0.00,1.08,0.22,9.28,0.00,-0.00,0.00,0.00
2026-06-26 19:36:08.466,994.26,994.26,-0.60,-1.03,0.00,1.05,0.21,9.28,0.00,-0.00,0.00,0.00
2026-06-26 19:36:08.468,994.26,994.26,-0.60,-1.03,0.00,1.05,0.21,9.28,0.00,-0.00,0.00,0.00
2026-06-26 19:36:08.474,994.26,994.26,-0.60,-1.03,0.00,1.05,0.21,9.28,0.00,-0.00,0.00,0.00
2026-06-26 19:36:08.476,994.26,994.26,-0.60,-1.03,0.00,1.08,0.24,9.28,0.00,0.00,0.00,0.00
2026-06-26 19:36:08.478,994.26,994.26,-0.60,-1.03,0.00,1.08,0.24,9.28,0.00,0.00,0.00,0.00
2026-06-26 19:36:08.479,994.26,994.26,-0.60,-1.03,0.00,1.08,0.24,9.28,0.00,0.00,0.00,0.00
2026-06-26 19:36:08.483,994.26,994.26,-0.60,-1.03,0.00,1.08,0.24,9.28,0.00,0.00,0.00,0.00
2026-06-26 19:36:08.485,994.26,994.26,-0.60,-1.03,0.00,1.07,0.22,9.27,0.00,-0.00,-0.00,0.00
2026-06-26 19:36:08.487,994.26,994.26,-0.60,-1.03,0.00,1.07,0.22,9.27,0.00,-0.00,-0.00,0.00
2026-06-26 19:36:08.488,994.26,994.26,-0.60,-1.03,0.00,1.07,0.22,9.27,0.00,-0.00,-0.00,0.00
2026-06-26 19:36:08.489,994.26,994.26,-0.60,-1.03,0.00,1.07,0.22,9.27,0.00,-0.00,-0.00,0.00
2026-06-26 19:36:08.490,994.26,994.26,-0.60,-1.03,0.00,1.07,0.22,9.27,0.00,-0.00,-0.00,0.00
2026-06-26 19:36:08.495,994.26,994.26,-0.60,-1.03,0.00,1.07,0.22,9.27,0.00,-0.00,0.00,0.00
2026-06-26 19:36:08.535,994.26,994.26,-0.57,-1.00,0.00,1.04,0.22,9.27,0.00,0.00,0.00,0.00
2026-06-26 19:36:08.578,994.26,994.26,-0.69,-1.10,0.00,1.06,0.21,9.28,0.00,-0.00,0.00,0.00
2026-06-26 19:36:08.582,994.26,994.26,-0.69,-1.10,0.00,1.06,0.21,9.28,0.00,-0.00,0.00,0.00
2026-06-26 19:36:08.585,994.26,994.26,-0.69,-1.10,0.00,1.06,0.21,9.28,0.00,0.00,-0.00,0.00
2026-06-26 19:36:08.586,994.26,994.26,-0.69,-1.10,0.00,1.07,0.23,9.25,0.00,0.00,-0.00,0.00
2026-06-26 19:36:08.588,994.26,994.26,-0.69,-1.10,0.00,1.07,0.23,9.25,0.00,0.00,-0.00,0.00
2026-06-26 19:36:08.589,994.26,994.26,-0.69,-1.10,0.00,1.07,0.23,9.25,0.00,0.00,-0.00,0.00
2026-06-26 19:36:08.590,994.26,994.26,-0.69,-1.10,0.00,1.07,0.23,9.25,0.00,0.00,-0.00,0.00
2026-06-26 19:36:08.594,994.26,994.26,-0.69,-1.10,0.00,1.07,0.23,9.25,0.00,0.00,-0.00,0.00
2026-06-26 19:36:08.596,994.26,994.26,-0.69,-1.10,0.00,1.06,0.24,9.29,-0.00,0.00,-0.00,0.00
2026-06-26 19:36:08.597,994.26,994.26,-0.69,-1.10,0.00,1.06,0.24,9.29,-0.00,0.00,-0.00,0.00
2026-06-26 19:36:08.598,994.26,994.26,-0.69,-1.10,0.00,1.06,0.24,9.29,-0.00,0.00,-0.00,0.00
2026-06-26 19:36:08.599,994.26,994.26,-0.69,-1.10,0.00,1.06,0.24,9.29,-0.00,0.00,-0.00,0.00
2026-06-26 19:36:08.604,994.26,994.26,-0.69,-1.10,0.00,1.06,0.24,9.29,-0.00,0.00,-0.00,0.00
2026-06-26 19:36:08.607,994.26,994.26,-0.69,-1.10,0.00,1.03,0.23,9.28,0.00,0.00,0.00,0.00
2026-06-26 19:36:08.608,994.26,994.26,-0.69,-1.10,0.00,1.03,0.23,9.28,0.00,0.00,0.00,0.00
2026-06-26 19:36:08.609,994.26,994.26,-0.69,-1.10,0.00,1.03,0.23,9.28,0.00,0.00,0.00,0.00
2026-06-26 19:36:08.610,994.26,994.26,-0.69,-1.10,0.00,1.03,0.23,9.28,0.00,0.00,0.00,0.00
2026-06-26 19:36:08.612,994.26,994.26,-0.69,-1.10,0.00,1.03,0.23,9.28,0.00,0.00,0.00,0.00
2026-06-26 19:36:08.613,994.26,994.26,-0.69,-1.10,0.00,1.03,0.23,9.28,0.00,0.00,0.00,0.00
2026-06-26 19:36:08.615,994.26,994.26,-0.69,-1.10,0.00,1.03,0.23,9.28,0.00,-0.00,0.00,0.00
2026-06-26 19:36:08.616,994.26,994.26,-0.69,-1.10,0.00,1.07,0.22,9.27,0.00,-0.00,0.00,0.00
2026-06-26 19:36:08.635,994.26,994.26,-0.69,-1.10,0.00,1.05,0.24,9.27,-0.00,-0.00,0.00,0.00
2026-06-26 19:36:08.718,994.26,994.25,-1.28,-1.50,0.00,1.05,0.23,9.28,0.00,0.00,-0.00,0.00
2026-06-26 19:36:08.719,994.26,994.25,-1.28,-1.50,0.00,1.05,0.23,9.28,0.00,0.00,-0.00,0.00
2026-06-26 19:36:08.725,994.26,994.25,-1.28,-1.50,0.00,1.05,0.23,9.28,0.00,0.00,-0.00,0.00
2026-06-26 19:36:08.726,994.26,994.25,-1.28,-1.50,0.00,1.03,0.22,9.29,0.00,-0.00,-0.00,0.00
2026-06-26 19:36:08.729,994.26,994.25,-1.28,-1.50,0.00,1.03,0.22,9.29,0.00,-0.00,-0.00,0.00
2026-06-26 19:36:08.734,994.26,994.25,-1.28,-1.50,0.00,1.03,0.22,9.29,0.00,-0.00,-0.00,0.00
2026-06-26 19:36:08.736,994.26,994.25,-1.28,-1.50,0.00,1.05,0.23,9.26,-0.00,-0.00,0.00,0.00
2026-06-26 19:36:08.737,994.26,994.25,-1.28,-1.50,0.00,1.05,0.23,9.26,-0.00,-0.00,0.00,0.00
2026-06-26 19:36:08.738,994.26,994.25,-1.28,-1.50,0.00,1.05,0.23,9.26,-0.00,-0.00,0.00,0.00
2026-06-26 19:36:08.743,994.26,994.25,-1.28,-1.50,0.00,1.05,0.23,9.26,-0.00,-0.00,0.00,0.00
2026-06-26 19:36:08.746,994.26,994.25,-1.28,-1.50,0.00,1.05,0.23,9.26,0.00,0.00,-0.00,0.00
2026-06-26 19:36:08.747,994.26,994.25,-1.28,-1.50,0.00,1.05,0.22,9.26,0.00,0.00,-0.00,0.00
2026-06-26 19:36:08.748,994.26,994.25,-1.28,-1.50,0.00,1.05,0.22,9.26,0.00,0.00,-0.00,0.00
2026-06-26 19:36:08.749,994.26,994.25,-1.28,-1.50,0.00,1.05,0.22,9.26,0.00,0.00,-0.00,0.00
2026-06-26 19:36:08.753,994.26,994.25,-1.28,-1.50,0.00,1.05,0.22,9.26,0.00,0.00,-0.00,0.00
2026-06-26 19:36:08.756,994.26,994.25,-1.28,-1.50,0.00,1.05,0.22,9.26,-0.00,0.00,-0.00,0.00
2026-06-26 19:36:08.757,994.26,994.25,-1.28,-1.50,0.00,1.05,0.22,9.29,-0.00,0.00,-0.00,0.00
2026-06-26 19:36:08.758,994.26,994.25,-1.28,-1.50,0.00,1.05,0.22,9.29,-0.00,0.00,-0.00,0.00
2026-06-26 19:36:08.760,994.26,994.25,-1.28,-1.50,0.00,1.05,0.22,9.29,-0.00,0.00,-0.00,0.00
2026-06-26 19:36:08.761,994.26,994.25,-1.28,-1.50,0.00,1.05,0.22,9.29,-0.00,0.00,-0.00,0.00
2026-06-26 19:36:08.763,994.26,994.25,-1.28,-1.50,0.00,1.05,0.22,9.29,-0.00,0.00,-0.00,0.00
2026-06-26 19:36:08.766,994.26,994.25,-1.28,-1.50,0.00,1.05,0.22,9.29,0.00,-0.00,0.00,0.00
2026-06-26 19:36:08.767,994.26,994.25,-1.28,-1.50,0.00,1.05,0.23,9.26,0.00,-0.00,0.00,0.00
2026-06-26 19:36:08.768,994.26,994.25,-1.28,-1.50,0.00,1.05,0.23,9.26,0.00,-0.00,0.00,0.00
2026-06-26 19:36:08.769,994.26,994.25,-1.28,-1.50,0.00,1.05,0.23,9.26,0.00,-0.00,0.00,0.00
2026-06-26 19:36:08.773,994.26,994.25,-1.28,-1.50,0.00,1.05,0.23,9.26,0.00,-0.00,0.00,0.00
2026-06-26 19:36:08.776,994.26,994.25,-1.28,-1.50,0.00,1.05,0.23,9.26,0.00,-0.00,0.00,0.00
2026-06-26 19:36:08.777,994.26,994.25,-1.28,-1.50,0.00,1.05,0.23,9.28,0.00,-0.00,0.00,0.00
2026-06-26 19:36:08.779,994.26,994.25,-1.28,-1.50,0.00,1.05,0.23,9.28,0.00,-0.00,0.00,0.00
2026-06-26 19:36:08.780,994.26,994.25,-1.28,-1.50,0.00,1.05,0.23,9.28,0.00,-0.00,0.00,0.00
2026-06-26 19:36:08.866,994.26,994.25,-1.12,-1.40,0.00,1.06,0.23,9.27,0.00,0.00,0.00,0.00
2026-06-26 19:36:08.867,994.26,994.25,-1.12,-1.40,0.00,1.07,0.23,9.28,0.00,0.00,0.00,0.00
2026-06-26 19:36:08.869,994.26,994.25,-1.12,-1.40,0.00,1.07,0.23,9.28,0.00,0.00,0.00,0.00
2026-06-26 19:36:08.870,994.26,994.25,-1.12,-1.40,0.00,1.07,0.23,9.28,0.00,0.00,0.00,0.00
2026-06-26 19:36:08.875,994.26,994.25,-1.12,-1.40,0.00,1.07,0.23,9.28,0.00,0.00,0.00,0.00
2026-06-26 19:36:08.877,994.26,994.25,-1.12,-1.40,0.00,1.07,0.22,9.28,0.00,0.00,0.00,0.00
2026-06-26 19:36:08.878,994.26,994.25,-1.12,-1.40,0.00,1.07,0.22,9.28,0.00,0.00,0.00,0.00
2026-06-26 19:36:08.879,994.26,994.25,-1.12,-1.40,0.00,1.07,0.22,9.28,0.00,0.00,0.00,0.00
2026-06-26 19:36:08.881,994.26,994.25,-1.12,-1.40,0.00,1.07,0.22,9.28,0.00,0.00,0.00,0.00
2026-06-26 19:36:08.885,994.26,994.25,-1.12,-1.40,0.00,1.07,0.22,9.28,0.00,0.00,0.00,0.00
2026-06-26 19:36:08.887,994.26,994.25,-1.12,-1.40,0.00,1.07,0.24,9.27,-0.00,0.00,0.00,0.00
2026-06-26 19:36:08.888,994.26,994.25,-1.12,-1.40,0.00,1.07,0.24,9.27,-0.00,0.00,0.00,0.00
2026-06-26 19:36:08.889,994.26,994.25,-1.12,-1.40,0.00,1.07,0.24,9.27,-0.00,0.00,0.00,0.00
2026-06-26 19:36:08.890,994.26,994.25,-1.12,-1.40,0.00,1.07,0.24,9.27,-0.00,0.00,0.00,0.00
2026-06-26 19:36:08.893,994.26,994.25,-1.12,-1.40,0.00,1.07,0.24,9.27,-0.00,0.00,0.00,0.00
2026-06-26 19:36:08.896,994.26,994.25,-1.12,-1.40,0.00,1.07,0.24,9.27,0.00,-0.00,-0.00,0.00
2026-06-26 19:36:08.897,994.26,994.25,-1.12,-1.40,0.00,1.08,0.22,9.25,0.00,-0.00,-0.00,0.00
2026-06-26 19:36:08.898,994.26,994.25,-1.12,-1.40,0.00,1.08,0.22,9.25,0.00,-0.00,-0.00,0.00
2026-06-26 19:36:08.902,994.26,994.25,-1.12,-1.40,0.00,1.08,0.22,9.25,0.00,-0.00,-0.00,0.00
2026-06-26 19:36:08.906,994.26,994.25,-1.12,-1.40,0.00,1.08,0.22,9.25,-0.00,-0.00,0.00,0.00
2026-06-26 19:36:08.907,994.26,994.25,-1.12,-1.40,0.00,1.05,0.22,9.28,-0.00,-0.00,0.00,0.00
2026-06-26 19:36:08.909,994.26,994.25,-1.12,-1.40,0.00,1.05,0.22,9.28,-0.00,-0.00,0.00,0.00
2026-06-26 19:36:08.910,994.26,994.25,-1.12,-1.40,0.00,1.05,0.22,9.28,-0.00,-0.00,0.00,0.00
2026-06-26 19:36:08.911,994.26,994.25,-1.12,-1.40,0.00,1.05,0.22,9.28,-0.00,-0.00,0.00,0.00
2026-06-26 19:36:08.912,994.26,994.25,-1.12,-1.40,0.00,1.05,0.22,9.28,-0.00,-0.00,0.00,0.00
2026-06-26 19:36:08.913,994.26,994.25,-1.12,-1.40,0.00,1.05,0.22,9.28,-0.00,-0.00,0.00,0.00
2026-06-26 19:36:08.915,994.26,994.25,-1.12,-1.40,0.00,1.05,0.22,9.28,-0.00,-0.00,0.00,0.00
2026-06-26 19:36:08.917,994.26,994.25,-1.12,-1.40,0.00,1.04,0.23,9.30,0.00,0.00,-0.00,0.00
2026-06-26 19:36:08.919,994.26,994.25,-1.12,-1.40,0.00,1.04,0.23,9.30,0.00,0.00,-0.00,0.00
2026-06-26 19:36:08.926,994.26,994.25,-1.12,-1.40,0.00,1.04,0.23,9.30,0.00,0.00,-0.00,0.00
2026-06-26 19:36:09.011,994.26,994.25,-1.19,-1.44,0.00,1.04,0.23,9.28,0.00,0.00,0.00,0.00
2026-06-26 19:36:09.015,994.26,994.25,-1.19,-1.44,0.00,1.04,0.23,9.28,0.00,0.00,0.00,0.00
2026-06-26 19:36:09.017,994.26,994.25,-1.19,-1.44,0.00,1.06,0.23,9.28,0.00,0.00,-0.00,0.00
2026-06-26 19:36:09.018,994.26,994.25,-1.19,-1.44,0.00,1.06,0.23,9.28,0.00,0.00,-0.00,0.00
2026-06-26 19:36:09.019,994.26,994.25,-1.19,-1.44,0.00,1.06,0.23,9.28,0.00,0.00,-0.00,0.00
2026-06-26 19:36:09.021,994.26,994.25,-1.19,-1.44,0.00,1.06,0.23,9.28,0.00,0.00,-0.00,0.00
2026-06-26 19:36:09.026,994.26,994.25,-1.19,-1.44,0.00,1.06,0.23,9.28,0.00,0.00,-0.00,0.00
2026-06-26 19:36:09.027,994.26,994.25,-1.19,-1.44,0.00,1.07,0.22,9.29,0.00,0.00,0.00,0.00
2026-06-26 19:36:09.030,994.26,994.25,-1.19,-1.44,0.00,1.07,0.22,9.29,0.00,0.00,0.00,0.00
2026-06-26 19:36:09.035,994.26,994.25,-1.19,-1.44,0.00,1.07,0.22,9.29,0.00,0.00,0.00,0.00
2026-06-26 19:36:09.037,994.26,994.25,-1.19,-1.44,0.00,1.07,0.23,9.24,0.00,0.00,-0.00,0.00
2026-06-26 19:36:09.038,994.26,994.25,-1.19,-1.44,0.00,1.07,0.23,9.24,0.00,0.00,-0.00,0.00
2026-06-26 19:36:09.039,994.26,994.25,-1.19,-1.44,0.00,1.07,0.23,9.24,0.00,0.00,-0.00,0.00
2026-06-26 19:36:09.041,994.26,994.25,-1.19,-1.44,0.00,1.07,0.23,9.24,0.00,0.00,-0.00,0.00
2026-06-26 19:36:09.046,994.26,994.25,-1.19,-1.44,0.00,1.07,0.23,9.24,0.00,0.00,-0.00,0.00
2026-06-26 19:36:09.047,994.26,994.25,-1.19,-1.44,0.00,1.06,0.23,9.26,0.00,-0.00,0.00,0.00
2026-06-26 19:36:09.048,994.26,994.25,-1.19,-1.44,0.00,1.06,0.23,9.26,0.00,-0.00,0.00,0.00
2026-06-26 19:36:09.049,994.26,994.25,-1.19,-1.44,0.00,1.06,0.23,9.26,0.00,-0.00,0.00,0.00
2026-06-26 19:36:09.051,994.26,994.25,-1.19,-1.44,0.00,1.06,0.23,9.26,0.00,-0.00,0.00,0.00
2026-06-26 19:36:09.056,994.26,994.25,-1.19,-1.44,0.00,1.06,0.23,9.26,0.00,-0.00,-0.00,0.00
2026-06-26 19:36:09.058,994.26,994.25,-1.19,-1.44,0.00,1.06,0.21,9.29,0.00,-0.00,-0.00,0.00
2026-06-26 19:36:09.059,994.26,994.25,-1.19,-1.44,0.00,1.06,0.21,9.29,0.00,-0.00,-0.00,0.00
2026-06-26 19:36:09.060,994.26,994.25,-1.19,-1.44,0.00,1.06,0.21,9.29,0.00,-0.00,-0.00,0.00
2026-06-26 19:36:09.061,994.26,994.25,-1.19,-1.44,0.00,1.06,0.21,9.29,0.00,-0.00,-0.00,0.00
2026-06-26 19:36:09.063,994.26,994.25,-1.19,-1.44,0.00,1.06,0.21,9.29,0.00,-0.00,-0.00,0.00
2026-06-26 19:36:09.064,994.26,994.25,-1.19,-1.44,0.00,1.06,0.21,9.29,0.00,-0.00,-0.00,0.00
2026-06-26 19:36:09.066,994.26,994.25,-1.19,-1.44,0.00,1.06,0.21,9.29,0.00,-0.00,-0.00,0.00
2026-06-26 19:36:09.067,994.26,994.25,-1.19,-1.44,0.00,1.08,0.22,9.26,0.00,0.00,-0.00,0.00
2026-06-26 19:36:09.109,994.26,994.25,-1.70,-1.73,0.00,1.08,0.22,9.27,0.00,0.00,0.00,0.00
2026-06-26 19:36:09.156,994.26,994.25,-1.38,-1.55,0.00,1.09,0.22,9.28,0.00,0.00,0.00,0.00
2026-06-26 19:36:09.158,994.26,994.25,-1.38,-1.55,0.00,1.05,0.22,9.27,0.00,0.00,0.00,0.00
2026-06-26 19:36:09.159,994.26,994.25,-1.38,-1.55,0.00,1.05,0.22,9.27,0.00,0.00,0.00,0.00
2026-06-26 19:36:09.160,994.26,994.25,-1.38,-1.55,0.00,1.05,0.22,9.27,0.00,0.00,0.00,0.00
2026-06-26 19:36:09.161,994.26,994.25,-1.38,-1.55,0.00,1.05,0.22,9.27,0.00,0.00,0.00,0.00
2026-06-26 19:36:09.163,994.26,994.25,-1.38,-1.55,0.00,1.05,0.22,9.27,0.00,0.00,0.00,0.00
2026-06-26 19:36:09.166,994.26,994.25,-1.38,-1.55,0.00,1.05,0.22,9.27,0.00,0.00,0.00,0.00
2026-06-26 19:36:09.168,994.26,994.25,-1.38,-1.55,0.00,1.05,0.22,9.26,-0.00,-0.00,0.00,0.00
2026-06-26 19:36:09.170,994.26,994.25,-1.38,-1.55,0.00,1.05,0.22,9.26,-0.00,-0.00,0.00,0.00
2026-06-26 19:36:09.175,994.26,994.25,-1.38,-1.55,0.00,1.05,0.22,9.26,-0.00,-0.00,0.00,0.00
2026-06-26 19:36:09.177,994.26,994.25,-1.38,-1.55,0.00,1.07,0.20,9.28,-0.00,0.00,-0.00,0.00
2026-06-26 19:36:09.179,994.26,994.25,-1.38,-1.55,0.00,1.07,0.20,9.28,-0.00,0.00,-0.00,0.00
2026-06-26 19:36:09.187,994.26,994.25,-1.38,-1.55,0.00,1.07,0.20,9.28,-0.00,0.00,-0.00,0.00
2026-06-26 19:36:09.188,994.26,994.25,-1.38,-1.55,0.00,1.04,0.23,9.24,0.00,0.00,0.00,0.00
2026-06-26 19:36:09.189,994.26,994.25,-1.38,-1.55,0.00,1.04,0.23,9.24,0.00,0.00,0.00,0.00
2026-06-26 19:36:09.191,994.26,994.25,-1.38,-1.55,0.00,1.04,0.23,9.24,0.00,0.00,0.00,0.00
2026-06-26 19:36:09.192,994.26,994.25,-1.38,-1.55,0.00,1.04,0.23,9.24,0.00,0.00,0.00,0.00
2026-06-26 19:36:09.196,994.26,994.25,-1.38,-1.55,0.00,1.04,0.23,9.24,0.00,-0.00,0.00,0.00
2026-06-26 19:36:09.200,994.26,994.25,-1.38,-1.55,0.00,1.06,0.24,9.28,0.00,-0.00,0.00,0.00
2026-06-26 19:36:09.206,994.26,994.25,-1.38,-1.55,0.00,1.06,0.24,9.28,0.00,-0.00,0.00,0.00
2026-06-26 19:36:09.208,994.26,994.25,-1.38,-1.55,0.00,1.07,0.22,9.27,0.00,-0.00,-0.00,0.00
2026-06-26 19:36:09.209,994.26,994.25,-1.38,-1.55,0.00,1.07,0.22,9.27,0.00,-0.00,-0.00,0.00
2026-06-26 19:36:09.256,994.26,994.25,-1.33,-1.53,0.00,1.07,0.22,9.27,-0.00,0.00,-0.00,0.00
2026-06-26 19:36:09.298,994.26,994.25,-1.35,-1.54,0.00,1.08,0.22,9.27,0.00,0.00,0.00,0.00
2026-06-26 19:36:09.300,994.26,994.25,-1.35,-1.54,0.00,1.08,0.22,9.27,0.00,0.00,0.00,0.00
2026-06-26 19:36:09.302,994.26,994.25,-1.35,-1.54,0.00,1.08,0.22,9.27,0.00,0.00,0.00,0.00
2026-06-26 19:36:09.307,994.26,994.25,-1.35,-1.54,0.00,1.08,0.22,9.27,0.00,0.00,0.00,0.00
2026-06-26 19:36:09.308,994.26,994.25,-1.35,-1.54,0.00,1.06,0.22,9.27,0.00,-0.00,0.00,0.00
2026-06-26 19:36:09.309,994.26,994.25,-1.35,-1.54,0.00,1.06,0.22,9.27,0.00,-0.00,0.00,0.00
2026-06-26 19:36:09.310,994.26,994.25,-1.35,-1.54,0.00,1.06,0.22,9.27,0.00,-0.00,0.00,0.00
2026-06-26 19:36:09.312,994.26,994.25,-1.35,-1.54,0.00,1.06,0.22,9.27,0.00,-0.00,0.00,0.00
2026-06-26 19:36:09.313,994.26,994.25,-1.35,-1.54,0.00,1.06,0.22,9.27,0.00,-0.00,0.00,0.00
2026-06-26 19:36:09.315,994.26,994.25,-1.35,-1.54,0.00,1.06,0.22,9.27,0.00,-0.00,0.00,0.00
2026-06-26 19:36:09.317,994.26,994.25,-1.35,-1.54,0.00,1.06,0.22,9.29,-0.00,0.00,0.00,0.00
2026-06-26 19:36:09.319,994.26,994.25,-1.35,-1.54,0.00,1.06,0.22,9.29,-0.00,0.00,0.00,0.00
2026-06-26 19:36:09.320,994.26,994.25,-1.35,-1.54,0.00,1.06,0.22,9.29,-0.00,0.00,0.00,0.00
2026-06-26 19:36:09.321,994.26,994.25,-1.35,-1.54,0.00,1.06,0.22,9.29,-0.00,0.00,0.00,0.00
2026-06-26 19:36:09.326,994.26,994.25,-1.35,-1.54,0.00,1.06,0.22,9.29,-0.00,0.00,0.00,0.00
2026-06-26 19:36:09.328,994.26,994.25,-1.35,-1.54,0.00,1.05,0.23,9.31,0.00,-0.00,-0.00,0.00
2026-06-26 19:36:09.329,994.26,994.25,-1.35,-1.54,0.00,1.05,0.23,9.31,0.00,-0.00,-0.00,0.00
2026-06-26 19:36:09.330,994.26,994.25,-1.35,-1.54,0.00,1.05,0.23,9.31,0.00,-0.00,-0.00,0.00
2026-06-26 19:36:09.332,994.26,994.25,-1.35,-1.54,0.00,1.05,0.23,9.31,0.00,-0.00,-0.00,0.00
2026-06-26 19:36:09.336,994.26,994.25,-1.35,-1.54,0.00,1.05,0.23,9.31,0.00,-0.00,-0.00,0.00
2026-06-26 19:36:09.338,994.26,994.25,-1.35,-1.54,0.00,1.07,0.24,9.28,-0.00,0.00,-0.00,0.00
2026-06-26 19:36:09.339,994.26,994.25,-1.35,-1.54,0.00,1.07,0.24,9.28,-0.00,0.00,-0.00,0.00
2026-06-26 19:36:09.340,994.26,994.25,-1.35,-1.54,0.00,1.07,0.24,9.28,-0.00,0.00,-0.00,0.00
2026-06-26 19:36:09.341,994.26,994.25,-1.35,-1.54,0.00,1.07,0.24,9.28,-0.00,0.00,-0.00,0.00
2026-06-26 19:36:09.347,994.26,994.25,-1.35,-1.54,0.00,1.07,0.24,9.28,-0.00,0.00,-0.00,0.00
2026-06-26 19:36:09.348,994.26,994.25,-1.35,-1.54,0.00,1.06,0.22,9.23,-0.00,0.00,0.00,0.00
2026-06-26 19:36:09.349,994.26,994.25,-1.35,-1.54,0.00,1.06,0.22,9.23,-0.00,0.00,0.00,0.00
2026-06-26 19:36:09.351,994.26,994.25,-1.35,-1.54,0.00,1.06,0.22,9.23,-0.00,0.00,0.00,0.00
2026-06-26 19:36:09.395,994.26,994.25,-1.57,-1.66,0.00,1.05,0.22,9.24,0.00,0.00,0.00,0.00
2026-06-26 19:36:09.397,994.26,994.25,-1.57,-1.66,0.00,1.05,0.23,9.27,-0.00,0.00,0.00,0.00
2026-06-26 19:36:09.440,994.26,994.25,-1.56,-1.65,0.00,1.06,0.21,9.27,0.00,0.00,-0.00,0.00
2026-06-26 19:36:09.443,994.26,994.25,-1.56,-1.65,0.00,1.06,0.21,9.27,0.00,0.00,-0.00,0.00
2026-06-26 19:36:09.447,994.26,994.25,-1.56,-1.65,0.00,1.06,0.21,9.27,-0.00,0.00,0.00,0.00
2026-06-26 19:36:09.448,994.26,994.25,-1.56,-1.65,0.00,1.07,0.23,9.28,-0.00,0.00,0.00,0.00
2026-06-26 19:36:09.451,994.26,994.25,-1.56,-1.65,0.00,1.07,0.23,9.28,-0.00,0.00,0.00,0.00
2026-06-26 19:36:09.457,994.26,994.25,-1.56,-1.65,0.00,1.07,0.23,9.28,-0.00,0.00,0.00,0.00
2026-06-26 19:36:09.458,994.26,994.25,-1.56,-1.65,0.00,1.05,0.22,9.27,-0.00,0.00,-0.00,0.00
2026-06-26 19:36:09.459,994.26,994.25,-1.56,-1.65,0.00,1.05,0.22,9.27,-0.00,0.00,-0.00,0.00
2026-06-26 19:36:09.460,994.26,994.25,-1.56,-1.65,0.00,1.05,0.22,9.27,-0.00,0.00,-0.00,0.00
2026-06-26 19:36:09.462,994.26,994.25,-1.56,-1.65,0.00,1.05,0.22,9.27,-0.00,0.00,-0.00,0.00
2026-06-26 19:36:09.463,994.26,994.25,-1.56,-1.65,0.00,1.05,0.22,9.27,-0.00,0.00,-0.00,0.00
2026-06-26 19:36:09.465,994.26,994.25,-1.56,-1.65,0.00,1.05,0.22,9.27,-0.00,0.00,-0.00,0.00
2026-06-26 19:36:09.467,994.26,994.25,-1.56,-1.65,0.00,1.05,0.22,9.27,0.00,0.00,0.00,0.00
2026-06-26 19:36:09.469,994.26,994.25,-1.56,-1.65,0.00,1.06,0.24,9.26,0.00,0.00,0.00,0.00
2026-06-26 19:36:09.470,994.26,994.25,-1.56,-1.65,0.00,1.06,0.24,9.26,0.00,0.00,0.00,0.00
2026-06-26 19:36:09.471,994.26,994.25,-1.56,-1.65,0.00,1.06,0.24,9.26,0.00,0.00,0.00,0.00
2026-06-26 19:36:09.477,994.26,994.25,-1.56,-1.65,0.00,1.06,0.24,9.26,0.00,0.00,0.00,0.00
2026-06-26 19:36:09.478,994.26,994.25,-1.56,-1.65,0.00,1.05,0.22,9.28,0.00,-0.00,0.00,0.00
2026-06-26 19:36:09.479,994.26,994.25,-1.56,-1.65,0.00,1.05,0.22,9.28,0.00,-0.00,0.00,0.00
2026-06-26 19:36:09.481,994.26,994.25,-1.56,-1.65,0.00,1.05,0.22,9.28,0.00,-0.00,0.00,0.00
2026-06-26 19:36:09.484,994.26,994.25,-1.56,-1.65,0.00,1.05,0.22,9.28,0.00,-0.00,0.00,0.00
2026-06-26 19:36:09.487,994.26,994.25,-1.56,-1.65,0.00,1.05,0.22,9.28,-0.00,-0.00,0.00,0.00
2026-06-26 19:36:09.489,994.26,994.25,-1.56,-1.65,0.00,1.05,0.21,9.27,-0.00,-0.00,0.00,0.00
2026-06-26 19:36:09.490,994.26,994.25,-1.56,-1.65,0.00,1.05,0.21,9.27,-0.00,-0.00,0.00,0.00
2026-06-26 19:36:09.491,994.26,994.25,-1.56,-1.65,0.00,1.05,0.21,9.27,-0.00,-0.00,0.00,0.00
2026-06-26 19:36:09.537,994.26,994.25,-1.09,-1.39,0.00,1.05,0.22,9.29,-0.00,-0.00,0.00,0.00
2026-06-26 19:36:09.538,994.26,994.25,-1.09,-1.39,0.00,1.06,0.23,9.24,-0.00,-0.00,-0.00,0.00
2026-06-26 19:36:09.539,994.26,994.25,-1.09,-1.39,0.00,1.06,0.23,9.24,-0.00,-0.00,-0.00,0.00
2026-06-26 19:36:09.587,994.26,994.25,-1.08,-1.38,0.00,1.07,0.23,9.28,-0.00,-0.00,0.00,0.00
2026-06-26 19:36:09.589,994.26,994.25,-1.08,-1.38,0.00,1.06,0.23,9.27,-0.00,0.00,-0.00,0.00
2026-06-26 19:36:09.590,994.26,994.25,-1.08,-1.38,0.00,1.06,0.23,9.27,-0.00,0.00,-0.00,0.00
2026-06-26 19:36:09.591,994.26,994.25,-1.08,-1.38,0.00,1.06,0.23,9.27,-0.00,0.00,-0.00,0.00
2026-06-26 19:36:09.592,994.26,994.25,-1.08,-1.38,0.00,1.06,0.23,9.27,-0.00,0.00,-0.00,0.00
2026-06-26 19:36:09.596,994.26,994.25,-1.08,-1.38,0.00,1.06,0.23,9.27,-0.00,0.00,-0.00,0.00
2026-06-26 19:36:09.598,994.26,994.25,-1.08,-1.38,0.00,1.07,0.23,9.27,-0.00,0.00,0.00,0.00
2026-06-26 19:36:09.599,994.26,994.25,-1.08,-1.38,0.00,1.07,0.23,9.27,-0.00,0.00,0.00,0.00
2026-06-26 19:36:09.600,994.26,994.25,-1.08,-1.38,0.00,1.07,0.23,9.27,-0.00,0.00,0.00,0.00
2026-06-26 19:36:09.601,994.26,994.25,-1.08,-1.38,0.00,1.07,0.23,9.27,-0.00,0.00,0.00,0.00
2026-06-26 19:36:09.605,994.26,994.25,-1.08,-1.38,0.00,1.07,0.23,9.27,-0.00,0.00,0.00,0.00
2026-06-26 19:36:09.609,994.26,994.25,-1.08,-1.38,0.00,1.07,0.23,9.27,-0.00,-0.00,0.00,0.00
2026-06-26 19:36:09.611,994.26,994.25,-1.08,-1.38,0.00,1.08,0.22,9.29,-0.00,-0.00,0.00,0.00
2026-06-26 19:36:09.612,994.26,994.25,-1.08,-1.38,0.00,1.08,0.22,9.29,-0.00,-0.00,0.00,0.00
2026-06-26 19:36:09.613,994.26,994.25,-1.08,-1.38,0.00,1.08,0.22,9.29,-0.00,-0.00,0.00,0.00
2026-06-26 19:36:09.614,994.26,994.25,-1.08,-1.38,0.00,1.08,0.22,9.29,-0.00,-0.00,0.00,0.00
2026-06-26 19:36:09.616,994.26,994.25,-1.08,-1.38,0.00,1.08,0.22,9.29,-0.00,-0.00,0.00,0.00
2026-06-26 19:36:09.618,994.26,994.25,-1.08,-1.38,0.00,1.05,0.22,9.27,0.00,0.00,0.00,0.00
2026-06-26 19:36:09.619,994.26,994.25,-1.08,-1.38,0.00,1.05,0.22,9.27,0.00,0.00,0.00,0.00
2026-06-26 19:36:09.620,994.26,994.25,-1.08,-1.38,0.00,1.05,0.22,9.27,0.00,0.00,0.00,0.00
2026-06-26 19:36:09.622,994.26,994.25,-1.08,-1.38,0.00,1.05,0.22,9.27,0.00,0.00,0.00,0.00
2026-06-26 19:36:09.625,994.26,994.25,-1.08,-1.38,0.00,1.05,0.22,9.27,0.00,0.00,0.00,0.00
2026-06-26 19:36:09.628,994.26,994.25,-1.08,-1.38,0.00,1.05,0.22,9.27,-0.00,0.00,-0.00,0.00
2026-06-26 19:36:09.629,994.26,994.25,-1.08,-1.38,0.00,1.08,0.22,9.28,-0.00,0.00,-0.00,0.00
2026-06-26 19:36:09.630,994.26,994.25,-1.08,-1.38,0.00,1.08,0.22,9.28,-0.00,0.00,-0.00,0.00
2026-06-26 19:36:09.631,994.26,994.25,-1.08,-1.38,0.00,1.08,0.22,9.28,-0.00,0.00,-0.00,0.00
2026-06-26 19:36:09.677,994.26,994.25,-0.99,-1.31,0.00,1.06,0.23,9.28,-0.00,0.00,-0.00,0.00
2026-06-26 19:36:09.679,994.26,994.25,-0.99,-1.31,0.00,1.08,0.23,9.30,0.00,-0.00,-0.00,0.00
2026-06-26 19:36:09.681,994.26,994.25,-0.99,-1.31,0.00,1.08,0.23,9.30,0.00,-0.00,-0.00,0.00
2026-06-26 19:36:09.727,994.26,994.25,-1.01,-1.33,0.00,1.06,0.22,9.29,0.00,0.00,0.00,0.00
2026-06-26 19:36:09.729,994.26,994.25,-1.01,-1.33,0.00,1.06,0.23,9.27,-0.00,0.00,0.00,0.00
2026-06-26 19:36:09.730,994.26,994.25,-1.01,-1.33,0.00,1.06,0.23,9.27,-0.00,0.00,0.00,0.00
2026-06-26 19:36:09.731,994.26,994.25,-1.01,-1.33,0.00,1.06,0.23,9.27,-0.00,0.00,0.00,0.00
2026-06-26 19:36:09.734,994.26,994.25,-1.01,-1.33,0.00,1.06,0.23,9.27,-0.00,0.00,0.00,0.00
2026-06-26 19:36:09.738,994.26,994.25,-1.01,-1.33,0.00,1.06,0.23,9.27,0.00,0.00,0.00,0.00
2026-06-26 19:36:09.739,994.26,994.25,-1.01,-1.33,0.00,1.06,0.23,9.26,0.00,0.00,0.00,0.00
2026-06-26 19:36:09.740,994.26,994.25,-1.01,-1.33,0.00,1.06,0.23,9.26,0.00,0.00,0.00,0.00
2026-06-26 19:36:09.741,994.26,994.25,-1.01,-1.33,0.00,1.06,0.23,9.26,0.00,0.00,0.00,0.00
2026-06-26 19:36:09.743,994.26,994.25,-1.01,-1.33,0.00,1.06,0.23,9.26,0.00,0.00,0.00,0.00
2026-06-26 19:36:09.747,994.26,994.25,-1.01,-1.33,0.00,1.06,0.23,9.26,0.00,0.00,0.00,0.00
2026-06-26 19:36:09.749,994.26,994.25,-1.01,-1.33,0.00,1.07,0.23,9.28,0.00,-0.00,0.00,0.00
2026-06-26 19:36:09.750,994.26,994.25,-1.01,-1.33,0.00,1.07,0.23,9.28,0.00,-0.00,0.00,0.00
2026-06-26 19:36:09.758,994.26,994.25,-1.01,-1.33,0.00,1.07,0.23,9.28,0.00,-0.00,0.00,0.00
2026-06-26 19:36:09.759,994.26,994.25,-1.01,-1.33,0.00,1.08,0.23,9.25,0.00,0.00,0.00,0.00
2026-06-26 19:36:09.762,994.26,994.25,-1.01,-1.33,0.00,1.08,0.23,9.25,0.00,0.00,0.00,0.00
2026-06-26 19:36:09.763,994.26,994.25,-1.01,-1.33,0.00,1.08,0.23,9.25,0.00,0.00,0.00,0.00
2026-06-26 19:36:09.764,994.26,994.25,-1.01,-1.33,0.00,1.08,0.23,9.25,0.00,0.00,0.00,0.00
2026-06-26 19:36:09.767,994.26,994.25,-1.01,-1.33,0.00,1.08,0.23,9.25,0.00,0.00,0.00,0.00
2026-06-26 19:36:09.768,994.26,994.25,-1.01,-1.33,0.00,1.09,0.24,9.29,-0.00,0.00,0.00,0.00
2026-06-26 19:36:09.770,994.26,994.25,-1.01,-1.33,0.00,1.09,0.24,9.29,-0.00,0.00,0.00,0.00
2026-06-26 19:36:09.771,994.26,994.25,-1.01,-1.33,0.00,1.09,0.24,9.29,-0.00,0.00,0.00,0.00
2026-06-26 19:36:09.772,994.26,994.25,-1.01,-1.33,0.00,1.09,0.24,9.29,-0.00,0.00,0.00,0.00
2026-06-26 19:36:09.815,994.26,994.25,-1.44,-1.59,0.00,1.05,0.22,9.28,0.00,-0.00,-0.00,0.00
2026-06-26 19:36:09.819,994.26,994.25,-1.44,-1.59,0.00,1.07,0.24,9.31,-0.00,0.00,0.00,0.00
2026-06-26 19:36:09.820,994.26,994.25,-1.44,-1.59,0.00,1.07,0.24,9.31,-0.00,0.00,0.00,0.00
2026-06-26 19:36:09.822,994.26,994.25,-1.44,-1.59,0.00,1.07,0.24,9.31,-0.00,0.00,0.00,0.00
2026-06-26 19:36:09.827,994.26,994.25,-1.44,-1.59,0.00,1.07,0.24,9.31,-0.00,0.00,0.00,0.00
2026-06-26 19:36:09.872,994.26,994.25,-1.36,-1.54,0.00,1.07,0.21,9.26,0.00,0.00,0.00,0.00
2026-06-26 19:36:09.878,994.26,994.25,-1.36,-1.54,0.00,1.07,0.21,9.26,0.00,0.00,0.00,0.00
2026-06-26 19:36:09.881,994.26,994.25,-1.36,-1.54,0.00,1.05,0.23,9.26,0.00,0.00,0.00,0.00
2026-06-26 19:36:09.882,994.26,994.25,-1.36,-1.54,0.00,1.05,0.23,9.26,0.00,0.00,0.00,0.00
2026-06-26 19:36:09.888,994.26,994.25,-1.36,-1.54,0.00,1.05,0.23,9.26,0.00,0.00,0.00,0.00
2026-06-26 19:36:09.889,994.26,994.25,-1.36,-1.54,0.00,1.06,0.23,9.26,-0.00,0.00,0.00,0.00
2026-06-26 19:36:09.890,994.26,994.25,-1.36,-1.54,0.00,1.06,0.23,9.26,-0.00,0.00,0.00,0.00
2026-06-26 19:36:09.891,994.26,994.25,-1.36,-1.54,0.00,1.06,0.23,9.26,-0.00,0.00,0.00,0.00
2026-06-26 19:36:09.893,994.26,994.25,-1.36,-1.54,0.00,1.06,0.23,9.26,-0.00,0.00,0.00,0.00
2026-06-26 19:36:09.895,994.26,994.25,-1.36,-1.54,0.00,1.06,0.23,9.26,-0.00,0.00,0.00,0.00
2026-06-26 19:36:09.898,994.26,994.25,-1.36,-1.54,0.00,1.06,0.23,9.26,0.00,0.00,-0.00,0.00
2026-06-26 19:36:09.899,994.26,994.25,-1.36,-1.54,0.00,1.05,0.24,9.27,0.00,0.00,-0.00,0.00
2026-06-26 19:36:09.901,994.26,994.25,-1.36,-1.54,0.00,1.05,0.24,9.27,0.00,0.00,-0.00,0.00
2026-06-26 19:36:09.907,994.26,994.25,-1.36,-1.54,0.00,1.05,0.24,9.27,0.00,0.00,-0.00,0.00
2026-06-26 19:36:09.909,994.26,994.25,-1.36,-1.54,0.00,1.06,0.22,9.27,0.00,0.00,-0.00,0.00
2026-06-26 19:36:09.910,994.26,994.25,-1.36,-1.54,0.00,1.06,0.22,9.27,0.00,0.00,-0.00,0.00
2026-06-26 19:36:09.911,994.26,994.25,-1.36,-1.54,0.00,1.06,0.22,9.27,0.00,0.00,-0.00,0.00
2026-06-26 19:36:09.912,994.26,994.25,-1.36,-1.54,0.00,1.06,0.22,9.27,0.00,0.00,-0.00,0.00
2026-06-26 19:36:09.914,994.26,994.25,-1.36,-1.54,0.00,1.06,0.22,9.27,0.00,0.00,-0.00,0.00
2026-06-26 19:36:09.958,994.26,994.25,-0.85,-1.22,0.00,1.07,0.23,9.26,0.00,0.00,0.00,0.00
2026-06-26 19:36:09.960,994.26,994.25,-0.85,-1.22,0.00,1.05,0.21,9.28,0.00,0.00,0.00,0.00
2026-06-26 19:36:09.961,994.26,994.25,-0.85,-1.22,0.00,1.05,0.21,9.28,0.00,0.00,0.00,0.00
2026-06-26 19:36:09.962,994.26,994.25,-0.85,-1.22,0.00,1.05,0.21,9.28,0.00,0.00,0.00,0.00
2026-06-26 19:36:09.963,994.26,994.25,-0.85,-1.22,0.00,1.05,0.21,9.28,0.00,0.00,0.00,0.00
2026-06-26 19:36:09.964,994.26,994.25,-0.85,-1.22,0.00,1.05,0.21,9.28,0.00,0.00,0.00,0.00
2026-06-26 19:36:09.966,994.26,994.25,-0.85,-1.22,0.00,1.05,0.21,9.28,0.00,0.00,0.00,0.00
2026-06-26 19:36:09.968,994.26,994.25,-0.85,-1.22,0.00,1.05,0.21,9.28,0.00,0.00,0.00,0.00
2026-06-26 19:36:09.970,994.26,994.25,-0.85,-1.22,0.00,1.07,0.23,9.28,0.00,0.00,-0.00,0.00
2026-06-26 19:36:10.013,994.26,994.25,-1.18,-1.44,0.00,1.05,0.21,9.29,0.00,0.00,0.00,0.00
2026-06-26 19:36:10.014,994.26,994.25,-1.18,-1.44,0.00,1.05,0.21,9.29,0.00,0.00,0.00,0.00
2026-06-26 19:36:10.015,994.26,994.25,-1.18,-1.44,0.00,1.05,0.21,9.29,0.00,0.00,0.00,0.00
2026-06-26 19:36:10.018,994.26,994.25,-1.18,-1.44,0.00,1.05,0.21,9.29,0.00,0.00,0.00,0.00
2026-06-26 19:36:10.020,994.26,994.25,-1.18,-1.44,0.00,1.05,0.22,9.25,0.00,0.00,0.00,0.00
2026-06-26 19:36:10.021,994.26,994.25,-1.18,-1.44,0.00,1.05,0.22,9.25,0.00,0.00,0.00,0.00
2026-06-26 19:36:10.022,994.26,994.25,-1.18,-1.44,0.00,1.05,0.22,9.25,0.00,0.00,0.00,0.00
2026-06-26 19:36:10.024,994.26,994.25,-1.18,-1.44,0.00,1.05,0.22,9.25,0.00,0.00,0.00,0.00
2026-06-26 19:36:10.028,994.26,994.25,-1.18,-1.44,0.00,1.05,0.22,9.25,0.00,0.00,0.00,0.00
2026-06-26 19:36:10.029,994.26,994.25,-1.18,-1.44,0.00,1.04,0.22,9.28,0.00,0.00,0.00,0.00
2026-06-26 19:36:10.031,994.26,994.25,-1.18,-1.44,0.00,1.04,0.22,9.28,0.00,0.00,0.00,0.00
2026-06-26 19:36:10.034,994.26,994.25,-1.18,-1.44,0.00,1.04,0.22,9.28,0.00,0.00,0.00,0.00
2026-06-26 19:36:10.039,994.26,994.25,-1.18,-1.44,0.00,1.04,0.22,9.28,0.00,0.00,0.00,0.00
2026-06-26 19:36:10.040,994.26,994.25,-1.18,-1.44,0.00,1.06,0.23,9.24,0.00,0.00,0.00,0.00
2026-06-26 19:36:10.041,994.26,994.25,-1.18,-1.44,0.00,1.06,0.23,9.24,0.00,0.00,0.00,0.00
2026-06-26 19:36:10.043,994.26,994.25,-1.18,-1.44,0.00,1.06,0.23,9.24,0.00,0.00,0.00,0.00
2026-06-26 19:36:10.047,994.26,994.25,-1.18,-1.44,0.00,1.06,0.23,9.24,0.00,0.00,0.00,0.00
2026-06-26 19:36:10.049,994.26,994.25,-1.18,-1.44,0.00,1.07,0.24,9.28,0.00,0.00,-0.00,0.00
2026-06-26 19:36:10.050,994.26,994.25,-1.18,-1.44,0.00,1.07,0.24,9.28,0.00,0.00,-0.00,0.00
2026-06-26 19:36:10.051,994.26,994.25,-1.18,-1.44,0.00,1.07,0.24,9.28,0.00,0.00,-0.00,0.00
2026-06-26 19:36:10.053,994.26,994.25,-1.18,-1.44,0.00,1.07,0.24,9.28,0.00,0.00,-0.00,0.00
2026-06-26 19:36:10.058,994.26,994.25,-1.18,-1.44,0.00,1.07,0.24,9.28,0.00,0.00,-0.00,0.00
2026-06-26 19:36:10.100,994.26,994.26,-0.73,-1.13,0.00,1.06,0.23,9.27,0.00,0.00,-0.00,0.00
2026-06-26 19:36:10.101,994.26,994.26,-0.73,-1.13,0.00,1.06,0.23,9.27,0.00,0.00,-0.00,0.00
2026-06-26 19:36:10.102,994.26,994.26,-0.73,-1.13,0.00,1.06,0.23,9.27,0.00,0.00,-0.00,0.00
2026-06-26 19:36:10.105,994.26,994.26,-0.73,-1.13,0.00,1.06,0.23,9.27,0.00,0.00,-0.00,0.00
2026-06-26 19:36:10.109,994.26,994.26,-0.73,-1.13,0.00,1.06,0.23,9.27,0.00,-0.00,0.00,0.00
2026-06-26 19:36:10.110,994.26,994.26,-0.73,-1.13,0.00,1.04,0.23,9.29,0.00,-0.00,0.00,0.00
2026-06-26 19:36:10.111,994.26,994.26,-0.73,-1.13,0.00,1.04,0.23,9.29,0.00,-0.00,0.00,0.00
2026-06-26 19:36:10.155,994.26,994.26,-0.58,-1.01,0.00,1.06,0.24,9.26,0.00,-0.00,0.00,0.00
2026-06-26 19:36:10.159,994.26,994.26,-0.58,-1.01,0.00,1.06,0.24,9.26,0.00,0.00,-0.00,0.00
2026-06-26 19:36:10.160,994.26,994.26,-0.58,-1.01,0.00,1.06,0.24,9.28,0.00,0.00,-0.00,0.00
2026-06-26 19:36:10.161,994.26,994.26,-0.58,-1.01,0.00,1.06,0.24,9.28,0.00,0.00,-0.00,0.00
2026-06-26 19:36:10.163,994.26,994.26,-0.58,-1.01,0.00,1.06,0.24,9.28,0.00,0.00,-0.00,0.00
2026-06-26 19:36:10.164,994.26,994.26,-0.58,-1.01,0.00,1.06,0.24,9.28,0.00,0.00,-0.00,0.00
2026-06-26 19:36:10.165,994.26,994.26,-0.58,-1.01,0.00,1.06,0.24,9.28,0.00,0.00,-0.00,0.00
2026-06-26 19:36:10.166,994.26,994.26,-0.58,-1.01,0.00,1.06,0.24,9.28,0.00,0.00,-0.00,0.00
2026-06-26 19:36:10.168,994.26,994.26,-0.58,-1.01,0.00,1.06,0.24,9.28,0.00,0.00,0.00,0.00
2026-06-26 19:36:10.170,994.26,994.26,-0.58,-1.01,0.00,1.07,0.21,9.29,0.00,0.00,0.00,0.00
2026-06-26 19:36:10.171,994.26,994.26,-0.58,-1.01,0.00,1.07,0.21,9.29,0.00,0.00,0.00,0.00
2026-06-26 19:36:10.172,994.26,994.26,-0.58,-1.01,0.00,1.07,0.21,9.29,0.00,0.00,0.00,0.00
2026-06-26 19:36:10.174,994.26,994.26,-0.58,-1.01,0.00,1.07,0.21,9.29,0.00,0.00,0.00,0.00
2026-06-26 19:36:10.179,994.26,994.26,-0.58,-1.01,0.00,1.07,0.21,9.29,0.00,-0.00,-0.00,0.00
2026-06-26 19:36:10.180,994.26,994.26,-0.58,-1.01,0.00,1.04,0.20,9.28,0.00,-0.00,-0.00,0.00
2026-06-26 19:36:10.182,994.26,994.26,-0.58,-1.01,0.00,1.04,0.20,9.28,0.00,-0.00,-0.00,0.00
2026-06-26 19:36:10.188,994.26,994.26,-0.58,-1.01,0.00,1.04,0.20,9.28,0.00,-0.00,-0.00,0.00
2026-06-26 19:36:10.190,994.26,994.26,-0.58,-1.01,0.00,1.04,0.23,9.27,0.00,0.00,0.00,0.00
2026-06-26 19:36:10.191,994.26,994.26,-0.58,-1.01,0.00,1.04,0.23,9.27,0.00,0.00,0.00,0.00
2026-06-26 19:36:10.192,994.26,994.26,-0.58,-1.01,0.00,1.04,0.23,9.27,0.00,0.00,0.00,0.00
2026-06-26 19:36:10.193,994.26,994.26,-0.58,-1.01,0.00,1.04,0.23,9.27,0.00,0.00,0.00,0.00
2026-06-26 19:36:10.195,994.26,994.26,-0.58,-1.01,0.00,1.04,0.23,9.27,0.00,0.00,0.00,0.00
2026-06-26 19:36:10.199,994.26,994.26,-0.58,-1.01,0.00,1.04,0.23,9.27,0.00,0.00,-0.00,0.00
