timestamp,pressure_bag,pressure_bme,diff_pressure,v_wind_est,speed,accel_x,accel_y,accel_z,gyro_x,gyro_y,gyro_z,power
2026-06-27 11:44:46.727,994.46,994.45,-0.17,-0.55,0.00,1.14,-0.15,9.64,-0.00,-0.00,0.00,0
2026-06-27 11:44:46.729,994.46,994.45,-0.17,-0.55,0.00,1.14,-0.16,9.64,-0.00,-0.00,0.00,0
2026-06-27 11:44:46.736,994.46,994.45,-0.17,-0.55,0.00,1.14,-0.16,9.64,-0.00,-0.00,0.00,0
2026-06-27 11:44:46.737,994.46,994.45,-0.17,-0.55,0.00,1.13,-0.17,9.61,-0.00,-0.00,0.00,0
2026-06-27 11:44:46.739,994.46,994.45,-0.17,-0.55,0.00,1.13,-0.17,9.61,-0.00,-0.00,0.00,0
2026-06-27 11:44:46.745,994.46,994.45,-0.17,-0.55,0.00,1.13,-0.17,9.61,-0.00,-0.00,0.00,0
2026-06-27 11:44:46.747,994.46,994.45,-0.17,-0.55,0.00,1.14,-0.15,9.65,-0.00,-0.00,0.00,0
2026-06-27 11:44:46.749,994.46,994.45,-0.17,-0.55,0.00,1.14,-0.15,9.65,-0.00,-0.00,0.00,0
2026-06-27 11:44:46.753,994.46,994.45,-0.17,-0.55,0.00,1.14,-0.15,9.65,-0.00,-0.00,0.00,0
2026-06-27 11:44:46.756,994.46,994.45,-0.17,-0.55,0.00,1.14,-0.15,9.65,-0.00,-0.00,0.00,0
2026-06-27 11:44:46.763,994.46,994.45,-0.17,-0.55,0.00,1.15,-0.17,9.63,-0.00,-0.00,0.00,0
2026-06-27 11:44:46.906,994.47,994.45,-1.44,-1.59,0.00,1.14,-0.13,9.63,-0.00,-0.00,-0.00,0
2026-06-27 11:44:46.908,994.47,994.45,-1.44,-1.59,0.00,1.16,-0.17,9.63,-0.00,-0.00,-0.00,0
2026-06-27 11:44:46.909,994.47,994.45,-1.44,-1.59,0.00,1.16,-0.17,9.63,-0.00,-0.00,-0.00,0
2026-06-27 11:44:46.913,994.47,994.45,-1.44,-1.59,0.00,1.16,-0.17,9.63,-0.00,-0.00,-0.00,0
2026-06-27 11:44:46.916,994.47,994.45,-1.44,-1.59,0.00,1.16,-0.17,9.63,-0.01,-0.00,0.00,0
2026-06-27 11:44:46.918,994.47,994.45,-1.44,-1.59,0.00,1.14,-0.14,9.63,-0.01,-0.00,0.00,0
2026-06-27 11:44:46.919,994.47,994.45,-1.44,-1.59,0.00,1.14,-0.14,9.63,-0.01,-0.00,0.00,0
2026-06-27 11:44:46.920,994.47,994.45,-1.44,-1.59,0.00,1.14,-0.14,9.63,-0.01,-0.00,0.00,0
2026-06-27 11:44:46.926,994.47,994.45,-1.44,-1.59,0.00,1.14,-0.14,9.63,-0.01,-0.00,0.00,0
2026-06-27 11:44:46.927,994.47,994.45,-1.44,-1.59,0.00,1.14,-0.16,9.66,-0.00,0.00,-0.00,0
2026-06-27 11:44:46.928,994.47,994.45,-1.44,-1.59,0.00,1.14,-0.16,9.66,-0.00,0.00,-0.00,0
2026-06-27 11:44:46.930,994.47,994.45,-1.44,-1.59,0.00,1.14,-0.16,9.66,-0.00,0.00,-0.00,0
2026-06-27 11:44:46.931,994.47,994.45,-1.44,-1.59,0.00,1.14,-0.16,9.66,-0.00,0.00,-0.00,0
2026-06-27 11:44:46.936,994.47,994.45,-1.44,-1.59,0.00,1.14,-0.16,9.66,-0.00,0.00,-0.00,0
2026-06-27 11:44:46.937,994.47,994.45,-1.44,-1.59,0.00,1.15,-0.16,9.62,-0.00,-0.00,0.00,0
2026-06-27 11:44:46.938,994.47,994.45,-1.44,-1.59,0.00,1.15,-0.16,9.62,-0.00,-0.00,0.00,0
2026-06-27 11:44:46.940,994.47,994.45,-1.44,-1.59,0.00,1.15,-0.16,9.62,-0.00,-0.00,0.00,0
2026-06-27 11:44:47.079,994.46,994.47,0.78,1.17,0.00,1.15,-0.14,9.63,0.00,-0.00,0.00,0
2026-06-27 11:44:47.082,994.46,994.47,0.78,1.17,0.00,1.15,-0.14,9.63,0.00,-0.00,0.00,0
2026-06-27 11:44:47.087,994.46,994.47,0.78,1.17,0.00,1.15,-0.14,9.63,-0.00,0.00,-0.00,0
2026-06-27 11:44:47.089,994.46,994.47,0.78,1.17,0.00,1.15,-0.14,9.62,-0.00,0.00,-0.00,0
2026-06-27 11:44:47.094,994.46,994.47,0.78,1.17,0.00,1.15,-0.14,9.62,-0.00,0.00,-0.00,0
2026-06-27 11:44:47.097,994.46,994.47,0.78,1.17,0.00,1.15,-0.14,9.62,-0.00,0.00,-0.00,0
2026-06-27 11:44:47.098,994.46,994.47,0.78,1.17,0.00,1.15,-0.14,9.61,-0.00,0.00,-0.00,0
2026-06-27 11:44:47.100,994.46,994.47,0.78,1.17,0.00,1.15,-0.14,9.61,-0.00,0.00,-0.00,0
2026-06-27 11:44:47.103,994.46,994.47,0.78,1.17,0.00,1.15,-0.14,9.61,-0.00,0.00,-0.00,0
2026-06-27 11:44:47.107,994.46,994.47,0.78,1.17,0.00,1.15,-0.14,9.61,-0.00,0.00,0.00,0
2026-06-27 11:44:47.112,994.46,994.47,0.78,1.17,0.00,1.14,-0.16,9.63,-0.00,0.00,0.00,0
2026-06-27 11:44:47.116,994.46,994.47,0.78,1.17,0.00,1.14,-0.16,9.63,-0.00,0.00,-0.00,0
2026-06-27 11:44:47.257,994.47,994.45,-1.88,-1.81,0.00,1.14,-0.17,9.62,0.00,-0.00,0.00,0
2026-06-27 11:44:47.258,994.47,994.45,-1.88,-1.81,0.00,1.14,-0.16,9.63,0.00,-0.00,0.00,0
2026-06-27 11:44:47.260,994.47,994.45,-1.88,-1.81,0.00,1.14,-0.16,9.63,0.00,-0.00,0.00,0
2026-06-27 11:44:47.264,994.47,994.45,-1.88,-1.81,0.00,1.14,-0.16,9.63,0.00,-0.00,0.00,0
2026-06-27 11:44:47.267,994.47,994.45,-1.88,-1.81,0.00,1.14,-0.16,9.63,-0.00,-0.00,-0.00,0
2026-06-27 11:44:47.269,994.47,994.45,-1.88,-1.81,0.00,1.15,-0.15,9.64,-0.00,-0.00,-0.00,0
2026-06-27 11:44:47.270,994.47,994.45,-1.88,-1.81,0.00,1.15,-0.15,9.64,-0.00,-0.00,-0.00,0
2026-06-27 11:44:47.274,994.47,994.45,-1.88,-1.81,0.00,1.15,-0.15,9.64,-0.00,-0.00,-0.00,0
2026-06-27 11:44:47.277,994.47,994.45,-1.88,-1.81,0.00,1.15,-0.15,9.64,-0.00,-0.00,-0.00,0
2026-06-27 11:44:47.278,994.47,994.45,-1.88,-1.81,0.00,1.17,-0.15,9.62,-0.00,-0.00,-0.00,0
2026-06-27 11:44:47.280,994.47,994.45,-1.88,-1.81,0.00,1.17,-0.15,9.62,-0.00,-0.00,-0.00,0
2026-06-27 11:44:47.281,994.47,994.45,-1.88,-1.81,0.00,1.17,-0.15,9.62,-0.00,-0.00,-0.00,0
2026-06-27 11:44:47.287,994.47,994.45,-1.88,-1.81,0.00,1.17,-0.15,9.62,-0.00,-0.00,-0.00,0
2026-06-27 11:44:47.288,994.47,994.45,-1.88,-1.81,0.00,1.16,-0.15,9.66,-0.00,-0.00,0.00,0
2026-06-27 11:44:47.289,994.47,994.45,-1.88,-1.81,0.00,1.16,-0.15,9.66,-0.00,-0.00,0.00,0
2026-06-27 11:44:47.291,994.47,994.45,-1.88,-1.81,0.00,1.16,-0.15,9.66,-0.00,-0.00,0.00,0
2026-06-27 11:44:47.435,994.45,994.45,0.02,0.20,0.00,1.14,-0.15,9.64,0.00,0.00,-0.00,0
2026-06-27 11:44:47.438,994.45,994.45,0.02,0.20,0.00,1.16,-0.15,9.64,-0.00,-0.00,0.00,0
2026-06-27 11:44:47.439,994.45,994.45,0.02,0.20,0.00,1.16,-0.15,9.64,-0.00,-0.00,0.00,0
2026-06-27 11:44:47.441,994.45,994.45,0.02,0.20,0.00,1.16,-0.15,9.64,-0.00,-0.00,0.00,0
2026-06-27 11:44:47.446,994.45,994.45,0.02,0.20,0.00,1.16,-0.15,9.64,-0.00,-0.00,0.00,0
2026-06-27 11:44:47.448,994.45,994.45,0.02,0.20,0.00,1.14,-0.14,9.62,-0.00,0.00,0.00,0
2026-06-27 11:44:47.450,994.45,994.45,0.02,0.20,0.00,1.14,-0.14,9.62,-0.00,0.00,0.00,0
2026-06-27 11:44:47.454,994.45,994.45,0.02,0.20,0.00,1.14,-0.14,9.62,-0.00,0.00,0.00,0
2026-06-27 11:44:47.458,994.45,994.45,0.02,0.20,0.00,1.14,-0.14,9.62,-0.00,-0.00,0.00,0
2026-06-27 11:44:47.459,994.45,994.45,0.02,0.20,0.00,1.14,-0.17,9.60,-0.00,-0.00,0.00,0
2026-06-27 11:44:47.460,994.45,994.45,0.02,0.20,0.00,1.14,-0.17,9.60,-0.00,-0.00,0.00,0
2026-06-27 11:44:47.463,994.45,994.45,0.02,0.20,0.00,1.14,-0.17,9.60,-0.00,-0.00,0.00,0
2026-06-27 11:44:47.467,994.45,994.45,0.02,0.20,0.00,1.14,-0.17,9.60,0.00,0.00,-0.00,0
2026-06-27 11:44:47.608,994.47,994.47,0.40,0.84,0.00,1.14,-0.15,9.65,0.00,0.00,-0.00,0
2026-06-27 11:44:47.609,994.47,994.47,0.40,0.84,0.00,1.12,-0.16,9.64,0.00,0.00,-0.00,0
2026-06-27 11:44:47.610,994.47,994.47,0.40,0.84,0.00,1.12,-0.16,9.64,0.00,0.00,-0.00,0
2026-06-27 11:44:47.613,994.47,994.47,0.40,0.84,0.00,1.12,-0.16,9.64,0.00,0.00,-0.00,0
2026-06-27 11:44:47.618,994.47,994.47,0.40,0.84,0.00,1.12,-0.16,9.64,0.00,-0.00,-0.00,0
2026-06-27 11:44:47.619,994.47,994.47,0.40,0.84,0.00,1.14,-0.15,9.63,0.00,-0.00,-0.00,0
2026-06-27 11:44:47.620,994.47,994.47,0.40,0.84,0.00,1.14,-0.15,9.63,0.00,-0.00,-0.00,0
2026-06-27 11:44:47.622,994.47,994.47,0.40,0.84,0.00,1.14,-0.15,9.63,0.00,-0.00,-0.00,0
2026-06-27 11:44:47.627,994.47,994.47,0.40,0.84,0.00,1.14,-0.15,9.63,0.00,-0.00,-0.00,0
2026-06-27 11:44:47.629,994.47,994.47,0.40,0.84,0.00,1.14,-0.13,9.65,-0.00,0.00,-0.00,0
2026-06-27 11:44:47.630,994.47,994.47,0.40,0.84,0.00,1.14,-0.13,9.65,-0.00,0.00,-0.00,0
2026-06-27 11:44:47.631,994.47,994.47,0.40,0.84,0.00,1.14,-0.13,9.65,-0.00,0.00,-0.00,0
2026-06-27 11:44:47.632,994.47,994.47,0.40,0.84,0.00,1.14,-0.13,9.65,-0.00,0.00,-0.00,0
2026-06-27 11:44:47.637,994.47,994.47,0.40,0.84,0.00,1.14,-0.13,9.65,-0.00,0.00,-0.00,0
2026-06-27 11:44:47.639,994.47,994.47,0.40,0.84,0.00,1.15,-0.17,9.64,0.00,-0.01,-0.00,0
2026-06-27 11:44:47.640,994.47,994.47,0.40,0.84,0.00,1.15,-0.17,9.64,0.00,-0.01,-0.00,0
2026-06-27 11:44:47.641,994.47,994.47,0.40,0.84,0.00,1.15,-0.17,9.64,0.00,-0.01,-0.00,0
2026-06-27 11:44:47.779,994.45,994.45,0.31,0.74,0.00,1.15,-0.15,9.63,-0.00,-0.00,-0.00,0
2026-06-27 11:44:47.781,994.45,994.45,0.31,0.74,0.00,1.15,-0.15,9.63,-0.00,-0.00,-0.00,0
2026-06-27 11:44:47.783,994.45,994.45,0.31,0.74,0.00,1.15,-0.15,9.63,-0.00,-0.00,-0.00,0
2026-06-27 11:44:47.788,994.45,994.45,0.31,0.74,0.00,1.15,-0.15,9.63,0.00,-0.00,0.00,0
2026-06-27 11:44:47.789,994.45,994.45,0.31,0.74,0.00,1.13,-0.16,9.63,0.00,-0.00,0.00,0
2026-06-27 11:44:47.791,994.45,994.45,0.31,0.74,0.00,1.13,-0.16,9.63,0.00,-0.00,0.00,0
2026-06-27 11:44:47.794,994.45,994.45,0.31,0.74,0.00,1.13,-0.16,9.63,0.00,-0.00,0.00,0
2026-06-27 11:44:47.798,994.45,994.45,0.31,0.74,0.00,1.13,-0.16,9.63,-0.00,-0.00,-0.00,0
2026-06-27 11:44:47.799,994.45,994.45,0.31,0.74,0.00,1.15,-0.14,9.62,-0.00,-0.00,-0.00,0
2026-06-27 11:44:47.801,994.45,994.45,0.31,0.74,0.00,1.15,-0.14,9.62,-0.00,-0.00,-0.00,0
2026-06-27 11:44:47.803,994.45,994.45,0.31,0.74,0.00,1.15,-0.14,9.62,-0.00,-0.00,-0.00,0
2026-06-27 11:44:47.808,994.45,994.45,0.31,0.74,0.00,1.15,-0.14,9.62,-0.00,-0.00,-0.00,0
2026-06-27 11:44:47.809,994.45,994.45,0.31,0.74,0.00,1.13,-0.14,9.65,0.00,-0.00,-0.00,0
2026-06-27 11:44:47.810,994.45,994.45,0.31,0.74,0.00,1.13,-0.14,9.65,0.00,-0.00,-0.00,0
2026-06-27 11:44:47.812,994.45,994.45,0.31,0.74,0.00,1.13,-0.14,9.65,0.00,-0.00,-0.00,0
2026-06-27 11:44:47.818,994.45,994.45,0.31,0.74,0.00,1.13,-0.14,9.65,0.00,-0.00,-0.00,0
2026-06-27 11:44:47.958,994.46,994.46,0.38,0.82,0.00,1.13,-0.18,9.63,0.00,-0.00,-0.00,0
2026-06-27 11:44:47.960,994.46,994.46,0.38,0.82,0.00,1.13,-0.16,9.66,0.00,-0.00,-0.00,0
2026-06-27 11:44:47.961,994.46,994.46,0.38,0.82,0.00,1.13,-0.16,9.66,0.00,-0.00,-0.00,0
2026-06-27 11:44:47.965,994.46,994.46,0.38,0.82,0.00,1.13,-0.16,9.66,0.00,-0.00,-0.00,0
2026-06-27 11:44:47.968,994.46,994.46,0.38,0.82,0.00,1.13,-0.16,9.66,-0.00,-0.00,-0.00,0
2026-06-27 11:44:47.970,994.46,994.46,0.38,0.82,0.00,1.16,-0.15,9.64,-0.00,-0.00,-0.00,0
2026-06-27 11:44:47.971,994.46,994.46,0.38,0.82,0.00,1.16,-0.15,9.64,-0.00,-0.00,-0.00,0
2026-06-27 11:44:47.975,994.46,994.46,0.38,0.82,0.00,1.16,-0.15,9.64,-0.00,-0.00,-0.00,0
2026-06-27 11:44:47.979,994.46,994.46,0.38,0.82,0.00,1.16,-0.15,9.64,0.00,0.00,-0.00,0
2026-06-27 11:44:47.981,994.46,994.46,0.38,0.82,0.00,1.14,-0.15,9.62,0.00,0.00,-0.00,0
2026-06-27 11:44:47.984,994.46,994.46,0.38,0.82,0.00,1.14,-0.15,9.62,0.00,0.00,-0.00,0
2026-06-27 11:44:47.988,994.46,994.46,0.38,0.82,0.00,1.14,-0.15,9.62,-0.00,-0.00,-0.00,0
2026-06-27 11:44:47.990,994.46,994.46,0.38,0.82,0.00,1.13,-0.14,9.62,-0.00,-0.00,-0.00,0
2026-06-27 11:44:47.991,994.46,994.46,0.38,0.82,0.00,1.13,-0.14,9.62,-0.00,-0.00,-0.00,0
2026-06-27 11:44:47.993,994.46,994.46,0.38,0.82,0.00,1.13,-0.14,9.62,-0.00,-0.00,-0.00,0
2026-06-27 11:44:48.131,994.47,994.45,-2.20,-1.97,0.00,1.14,-0.16,9.64,0.00,-0.00,0.00,0
2026-06-27 11:44:48.132,994.47,994.45,-2.20,-1.97,0.00,1.14,-0.16,9.64,0.00,-0.00,0.00,0
2026-06-27 11:44:48.138,994.47,994.45,-2.20,-1.97,0.00,1.14,-0.16,9.64,0.00,-0.00,0.00,0
2026-06-27 11:44:48.140,994.47,994.45,-2.20,-1.97,0.00,1.16,-0.16,9.62,0.00,-0.00,0.00,0
2026-06-27 11:44:48.141,994.47,994.45,-2.20,-1.97,0.00,1.16,-0.16,9.62,0.00,-0.00,0.00,0
2026-06-27 11:44:48.142,994.47,994.45,-2.20,-1.97,0.00,1.16,-0.16,9.62,0.00,-0.00,0.00,0
2026-06-27 11:44:48.148,994.47,994.45,-2.20,-1.97,0.00,1.16,-0.16,9.62,0.00,-0.00,0.00,0
2026-06-27 11:44:48.150,994.47,994.45,-2.20,-1.97,0.00,1.14,-0.16,9.64,-0.00,0.00,0.00,0
2026-06-27 11:44:48.151,994.47,994.45,-2.20,-1.97,0.00,1.14,-0.16,9.64,-0.00,0.00,0.00,0
2026-06-27 11:44:48.155,994.47,994.45,-2.20,-1.97,0.00,1.14,-0.16,9.64,-0.00,0.00,0.00,0
2026-06-27 11:44:48.159,994.47,994.45,-2.20,-1.97,0.00,1.14,-0.16,9.64,-0.00,0.00,-0.00,0
2026-06-27 11:44:48.160,994.47,994.45,-2.20,-1.97,0.00,1.13,-0.16,9.65,-0.00,0.00,-0.00,0
2026-06-27 11:44:48.161,994.47,994.45,-2.20,-1.97,0.00,1.13,-0.16,9.65,-0.00,0.00,-0.00,0
2026-06-27 11:44:48.163,994.47,994.45,-2.20,-1.97,0.00,1.13,-0.16,9.65,-0.00,0.00,-0.00,0
2026-06-27 11:44:48.168,994.47,994.45,-2.20,-1.97,0.00,1.13,-0.16,9.65,-0.00,0.00,-0.00,0
2026-06-27 11:44:48.310,994.47,994.47,0.28,0.70,0.00,1.14,-0.16,9.65,0.00,-0.00,0.00,0
2026-06-27 11:44:48.311,994.47,994.47,0.28,0.70,0.00,1.14,-0.16,9.62,0.00,-0.00,0.00,0
2026-06-27 11:44:48.312,994.47,994.47,0.28,0.70,0.00,1.14,-0.16,9.62,0.00,-0.00,0.00,0
2026-06-27 11:44:48.318,994.47,994.47,0.28,0.70,0.00,1.14,-0.16,9.62,0.00,-0.00,0.00,0
2026-06-27 11:44:48.320,994.47,994.47,0.28,0.70,0.00,1.14,-0.15,9.66,-0.00,0.00,-0.00,0
2026-06-27 11:44:48.321,994.47,994.47,0.28,0.70,0.00,1.14,-0.15,9.66,-0.00,0.00,-0.00,0
2026-06-27 11:44:48.322,994.47,994.47,0.28,0.70,0.00,1.14,-0.15,9.66,-0.00,0.00,-0.00,0
2026-06-27 11:44:48.328,994.47,994.47,0.28,0.70,0.00,1.14,-0.15,9.66,-0.00,0.00,-0.00,0
2026-06-27 11:44:48.330,994.47,994.47,0.28,0.70,0.00,1.17,-0.14,9.62,0.00,0.00,-0.00,0
2026-06-27 11:44:48.331,994.47,994.47,0.28,0.70,0.00,1.17,-0.14,9.62,0.00,0.00,-0.00,0
2026-06-27 11:44:48.332,994.47,994.47,0.28,0.70,0.00,1.17,-0.14,9.62,0.00,0.00,-0.00,0
2026-06-27 11:44:48.333,994.47,994.47,0.28,0.70,0.00,1.17,-0.14,9.62,0.00,0.00,-0.00,0
2026-06-27 11:44:48.339,994.47,994.47,0.28,0.70,0.00,1.17,-0.14,9.62,0.00,0.00,-0.00,0
2026-06-27 11:44:48.342,994.47,994.47,0.28,0.70,0.00,1.16,-0.17,9.61,-0.00,0.00,0.00,0
2026-06-27 11:44:48.346,994.47,994.47,0.28,0.70,0.00,1.16,-0.17,9.61,-0.00,0.00,0.00,0
2026-06-27 11:44:48.489,994.46,994.46,0.48,0.92,0.00,1.15,-0.17,9.60,-0.00,-0.00,-0.00,0
2026-06-27 11:44:48.491,994.46,994.46,0.48,0.92,0.00,1.15,-0.16,9.63,0.00,-0.00,0.00,0
2026-06-27 11:44:48.507,994.46,994.46,0.48,0.92,0.00,1.15,-0.16,9.63,0.00,-0.00,0.00,0
2026-06-27 11:44:48.511,994.46,994.46,0.48,0.92,0.00,1.15,-0.14,9.62,-0.00,0.00,-0.00,0
2026-06-27 11:44:48.520,994.46,994.46,0.48,0.92,0.00,1.15,-0.14,9.62,-0.00,0.00,-0.00,0
2026-06-27 11:44:48.522,994.46,994.46,0.48,0.92,0.00,1.13,-0.14,9.62,0.00,-0.00,-0.00,0
2026-06-27 11:44:48.662,994.46,994.46,0.21,0.61,0.00,1.13,-0.16,9.63,0.00,0.00,-0.00,0
2026-06-27 11:44:48.664,994.46,994.46,0.21,0.61,0.00,1.13,-0.16,9.63,0.00,0.00,-0.00,0
2026-06-27 11:44:48.670,994.46,994.46,0.21,0.61,0.00,1.13,-0.16,9.63,-0.00,-0.00,0.00,0
2026-06-27 11:44:48.673,994.46,994.46,0.21,0.61,0.00,1.15,-0.14,9.65,-0.00,-0.00,0.00,0
2026-06-27 11:44:48.679,994.46,994.46,0.21,0.61,0.00,1.15,-0.14,9.65,-0.00,-0.00,0.00,0
2026-06-27 11:44:48.681,994.46,994.46,0.21,0.61,0.00,1.14,-0.15,9.62,0.00,-0.00,-0.00,0
2026-06-27 11:44:48.682,994.46,994.46,0.21,0.61,0.00,1.14,-0.15,9.62,0.00,-0.00,-0.00,0
2026-06-27 11:44:48.683,994.46,994.46,0.21,0.61,0.00,1.14,-0.15,9.62,0.00,-0.00,-0.00,0
2026-06-27 11:44:48.690,994.46,994.46,0.21,0.61,0.00,1.14,-0.15,9.62,0.00,-0.00,-0.00,0
2026-06-27 11:44:48.691,994.46,994.46,0.21,0.61,0.00,1.14,-0.14,9.63,-0.00,0.00,-0.00,0
2026-06-27 11:44:48.692,994.46,994.46,0.21,0.61,0.00,1.14,-0.14,9.63,-0.00,0.00,-0.00,0
2026-06-27 11:44:48.695,994.46,994.46,0.21,0.61,0.00,1.14,-0.14,9.63,-0.00,0.00,-0.00,0
2026-06-27 11:44:48.700,994.46,994.46,0.21,0.61,0.00,1.14,-0.14,9.63,-0.00,0.00,-0.00,0
2026-06-27 11:44:48.840,994.46,994.45,-1.47,-1.61,0.00,1.15,-0.14,9.63,0.00,0.00,-0.00,0
2026-06-27 11:44:48.842,994.46,994.45,-1.47,-1.61,0.00,1.14,-0.17,9.62,0.00,0.00,-0.00,0
2026-06-27 11:44:48.843,994.46,994.45,-1.47,-1.61,0.00,1.14,-0.17,9.62,0.00,0.00,-0.00,0
2026-06-27 11:44:48.847,994.46,994.45,-1.47,-1.61,0.00,1.14,-0.17,9.62,0.00,0.00,-0.00,0
2026-06-27 11:44:48.850,994.46,994.45,-1.47,-1.61,0.00,1.14,-0.17,9.62,0.00,0.00,-0.00,0
2026-06-27 11:44:48.852,994.46,994.45,-1.47,-1.61,0.00,1.13,-0.14,9.63,0.00,0.00,-0.00,0
2026-06-27 11:44:48.857,994.46,994.45,-1.47,-1.61,0.00,1.13,-0.14,9.63,0.00,0.00,-0.00,0
2026-06-27 11:44:48.860,994.46,994.45,-1.47,-1.61,0.00,1.13,-0.14,9.63,0.00,0.00,0.00,0
2026-06-27 11:44:48.862,994.46,994.45,-1.47,-1.61,0.00,1.14,-0.15,9.64,0.00,0.00,0.00,0
2026-06-27 11:44:48.863,994.46,994.45,-1.47,-1.61,0.00,1.14,-0.15,9.64,0.00,0.00,0.00,0
2026-06-27 11:44:48.866,994.46,994.45,-1.47,-1.61,0.00,1.14,-0.15,9.64,0.00,0.00,0.00,0
2026-06-27 11:44:48.870,994.46,994.45,-1.47,-1.61,0.00,1.14,-0.15,9.64,-0.00,0.00,0.00,0
2026-06-27 11:44:48.872,994.46,994.45,-1.47,-1.61,0.00,1.15,-0.13,9.61,-0.00,0.00,0.00,0
2026-06-27 11:44:48.873,994.46,994.45,-1.47,-1.61,0.00,1.15,-0.13,9.61,-0.00,0.00,0.00,0
2026-06-27 11:44:48.876,994.46,994.45,-1.47,-1.61,0.00,1.15,-0.13,9.61,-0.00,0.00,0.00,0
2026-06-27 11:44:49.013,994.44,994.46,1.46,1.60,0.00,1.14,-0.16,9.65,-0.00,-0.00,0.00,0
2026-06-27 11:44:49.019,994.44,994.46,1.46,1.60,0.00,1.14,-0.16,9.65,-0.00,-0.00,0.00,0
2026-06-27 11:44:49.021,994.44,994.46,1.46,1.60,0.00,1.14,-0.14,9.65,0.00,0.00,0.00,0
2026-06-27 11:44:49.022,994.44,994.46,1.46,1.60,0.00,1.14,-0.14,9.65,0.00,0.00,0.00,0
2026-06-27 11:44:49.024,994.44,994.46,1.46,1.60,0.00,1.14,-0.14,9.65,0.00,0.00,0.00,0
2026-06-27 11:44:49.025,994.44,994.46,1.46,1.60,0.00,1.14,-0.14,9.65,0.00,0.00,0.00,0
2026-06-27 11:44:49.031,994.44,994.46,1.46,1.60,0.00,1.14,-0.14,9.65,0.00,0.00,0.00,0
2026-06-27 11:44:49.032,994.44,994.46,1.46,1.60,0.00,1.13,-0.15,9.63,0.00,0.00,-0.00,0
2026-06-27 11:44:49.033,994.44,994.46,1.46,1.60,0.00,1.13,-0.15,9.63,0.00,0.00,-0.00,0
2026-06-27 11:44:49.035,994.44,994.46,1.46,1.60,0.00,1.13,-0.15,9.63,0.00,0.00,-0.00,0
2026-06-27 11:44:49.040,994.44,994.46,1.46,1.60,0.00,1.13,-0.15,9.63,0.00,0.00,-0.00,0
2026-06-27 11:44:49.042,994.44,994.46,1.46,1.60,0.00,1.15,-0.15,9.64,-0.00,0.00,0.00,0
2026-06-27 11:44:49.043,994.44,994.46,1.46,1.60,0.00,1.15,-0.15,9.64,-0.00,0.00,0.00,0
2026-06-27 11:44:49.044,994.44,994.46,1.46,1.60,0.00,1.15,-0.15,9.64,-0.00,0.00,0.00,0
2026-06-27 11:44:49.050,994.44,994.46,1.46,1.60,0.00,1.15,-0.15,9.64,-0.00,0.00,0.00,0
2026-06-27 11:44:49.191,994.47,994.46,-0.75,-1.14,0.00,1.16,-0.15,9.65,-0.00,-0.00,-0.00,0
2026-06-27 11:44:49.192,994.47,994.46,-0.75,-1.14,0.00,1.14,-0.16,9.63,-0.00,-0.00,0.00,0
2026-06-27 11:44:49.194,994.47,994.46,-0.75,-1.14,0.00,1.14,-0.16,9.63,-0.00,-0.00,0.00,0
2026-06-27 11:44:49.197,994.47,994.46,-0.75,-1.14,0.00,1.14,-0.16,9.63,-0.00,-0.00,0.00,0
2026-06-27 11:44:49.201,994.47,994.46,-0.75,-1.14,0.00,1.14,-0.16,9.63,0.00,0.00,0.00,0
2026-06-27 11:44:49.202,994.47,994.46,-0.75,-1.14,0.00,1.15,-0.15,9.61,0.00,0.00,0.00,0
2026-06-27 11:44:49.204,994.47,994.46,-0.75,-1.14,0.00,1.15,-0.15,9.61,0.00,0.00,0.00,0
2026-06-27 11:44:49.207,994.47,994.46,-0.75,-1.14,0.00,1.15,-0.15,9.61,0.00,0.00,0.00,0
2026-06-27 11:44:49.211,994.47,994.46,-0.75,-1.14,0.00,1.15,-0.15,9.61,0.00,0.00,0.00,0
2026-06-27 11:44:49.212,994.47,994.46,-0.75,-1.14,0.00,1.14,-0.16,9.64,0.00,0.00,0.00,0
2026-06-27 11:44:49.214,994.47,994.46,-0.75,-1.14,0.00,1.14,-0.16,9.64,0.00,0.00,0.00,0
2026-06-27 11:44:49.215,994.47,994.46,-0.75,-1.14,0.00,1.14,-0.16,9.64,0.00,0.00,0.00,0
2026-06-27 11:44:49.221,994.47,994.46,-0.75,-1.14,0.00,1.14,-0.16,9.64,0.00,0.00,0.00,0
2026-06-27 11:44:49.222,994.47,994.46,-0.75,-1.14,0.00,1.13,-0.16,9.66,-0.00,0.00,-0.00,0
2026-06-27 11:44:49.223,994.47,994.46,-0.75,-1.14,0.00,1.13,-0.16,9.66,-0.00,0.00,-0.00,0
2026-06-27 11:44:49.362,994.45,994.43,-2.47,-2.08,0.00,1.14,-0.15,9.64,0.00,-0.00,0.00,0
2026-06-27 11:44:49.363,994.45,994.43,-2.47,-2.08,0.00,1.14,-0.15,9.63,0.00,-0.00,0.00,0
2026-06-27 11:44:49.365,994.45,994.43,-2.47,-2.08,0.00,1.14,-0.15,9.63,0.00,-0.00,0.00,0
2026-06-27 11:44:49.371,994.45,994.43,-2.47,-2.08,0.00,1.14,-0.15,9.63,0.00,-0.00,0.00,0
2026-06-27 11:44:49.372,994.45,994.43,-2.47,-2.08,0.00,1.14,-0.15,9.65,0.00,-0.00,-0.00,0
2026-06-27 11:44:49.373,994.45,994.43,-2.47,-2.08,0.00,1.14,-0.15,9.65,0.00,-0.00,-0.00,0
2026-06-27 11:44:49.375,994.45,994.43,-2.47,-2.08,0.00,1.14,-0.15,9.65,0.00,-0.00,-0.00,0
2026-06-27 11:44:49.381,994.45,994.43,-2.47,-2.08,0.00,1.14,-0.15,9.65,0.00,-0.00,-0.00,0
2026-06-27 11:44:49.382,994.45,994.43,-2.47,-2.08,0.00,1.16,-0.16,9.62,-0.00,-0.00,0.00,0
2026-06-27 11:44:49.383,994.45,994.43,-2.47,-2.08,0.00,1.16,-0.16,9.62,-0.00,-0.00,0.00,0
2026-06-27 11:44:49.385,994.45,994.43,-2.47,-2.08,0.00,1.16,-0.16,9.62,-0.00,-0.00,0.00,0
2026-06-27 11:44:49.390,994.45,994.43,-2.47,-2.08,0.00,1.16,-0.16,9.62,-0.00,-0.00,0.00,0
2026-06-27 11:44:49.392,994.45,994.43,-2.47,-2.08,0.00,1.16,-0.15,9.63,0.00,-0.00,-0.00,0
2026-06-27 11:44:49.395,994.45,994.43,-2.47,-2.08,0.00,1.16,-0.15,9.63,0.00,-0.00,-0.00,0
2026-06-27 11:44:49.401,994.45,994.43,-2.47,-2.08,0.00,1.16,-0.15,9.63,0.00,-0.00,-0.00,0
2026-06-27 11:44:49.542,994.45,994.45,-0.14,-0.50,0.00,1.15,-0.15,9.64,-0.00,-0.00,-0.00,0
2026-06-27 11:44:49.543,994.45,994.45,-0.14,-0.50,0.00,1.16,-0.16,9.62,-0.00,-0.00,-0.00,0
2026-06-27 11:44:49.544,994.45,994.45,-0.14,-0.50,0.00,1.16,-0.16,9.62,-0.00,-0.00,-0.00,0
2026-06-27 11:44:49.548,994.45,994.45,-0.14,-0.50,0.00,1.16,-0.16,9.62,-0.00,-0.00,-0.00,0
2026-06-27 11:44:49.552,994.45,994.45,-0.14,-0.50,0.00,1.16,-0.16,9.62,-0.00,0.00,0.00,0
2026-06-27 11:44:49.553,994.45,994.45,-0.14,-0.50,0.00,1.14,-0.15,9.62,-0.00,0.00,0.00,0
2026-06-27 11:44:49.554,994.45,994.45,-0.14,-0.50,0.00,1.14,-0.15,9.62,-0.00,0.00,0.00,0
2026-06-27 11:44:49.557,994.45,994.45,-0.14,-0.50,0.00,1.14,-0.15,9.62,-0.00,0.00,0.00,0
2026-06-27 11:44:49.562,994.45,994.45,-0.14,-0.50,0.00,1.14,-0.15,9.62,-0.00,0.00,0.00,0
2026-06-27 11:44:49.563,994.45,994.45,-0.14,-0.50,0.00,1.15,-0.15,9.61,-0.00,0.00,0.00,0
2026-06-27 11:44:49.564,994.45,994.45,-0.14,-0.50,0.00,1.15,-0.15,9.61,-0.00,0.00,0.00,0
2026-06-27 11:44:49.566,994.45,994.45,-0.14,-0.50,0.00,1.15,-0.15,9.61,-0.00,0.00,0.00,0
2026-06-27 11:44:49.571,994.45,994.45,-0.14,-0.50,0.00,1.15,-0.15,9.61,-0.00,0.00,0.00,0
2026-06-27 11:44:49.577,994.45,994.45,-0.14,-0.50,0.00,1.14,-0.14,9.65,0.00,-0.00,-0.00,0
2026-06-27 11:44:49.718,994.46,994.46,-0.39,-0.83,0.00,1.14,-0.15,9.64,0.00,-0.00,0.00,0
2026-06-27 11:44:49.722,994.46,994.46,-0.39,-0.83,0.00,1.14,-0.15,9.64,0.00,0.00,-0.00,0
2026-06-27 11:44:49.724,994.46,994.46,-0.39,-0.83,0.00,1.13,-0.15,9.64,0.00,0.00,-0.00,0
2026-06-27 11:44:49.725,994.46,994.46,-0.39,-0.83,0.00,1.13,-0.15,9.64,0.00,0.00,-0.00,0
2026-06-27 11:44:49.728,994.46,994.46,-0.39,-0.83,0.00,1.13,-0.15,9.64,0.00,0.00,-0.00,0
2026-06-27 11:44:49.732,994.46,994.46,-0.39,-0.83,0.00,1.13,-0.15,9.64,0.00,-0.00,0.00,0
2026-06-27 11:44:49.733,994.46,994.46,-0.39,-0.83,0.00,1.14,-0.14,9.65,0.00,-0.00,0.00,0
2026-06-27 11:44:49.735,994.46,994.46,-0.39,-0.83,0.00,1.14,-0.14,9.65,0.00,-0.00,0.00,0
2026-06-27 11:44:49.736,994.46,994.46,-0.39,-0.83,0.00,1.14,-0.14,9.65,0.00,-0.00,0.00,0
2026-06-27 11:44:49.742,994.46,994.46,-0.39,-0.83,0.00,1.14,-0.14,9.65,0.00,-0.00,0.00,0
2026-06-27 11:44:49.743,994.46,994.46,-0.39,-0.83,0.00,1.13,-0.15,9.61,0.00,0.00,0.00,0
2026-06-27 11:44:49.745,994.46,994.46,-0.39,-0.83,0.00,1.13,-0.15,9.61,0.00,0.00,0.00,0
2026-06-27 11:44:49.748,994.46,994.46,-0.39,-0.83,0.00,1.13,-0.15,9.61,0.00,0.00,0.00,0
2026-06-27 11:44:49.752,994.46,994.46,-0.39,-0.83,0.00,1.13,-0.15,9.61,0.00,0.00,0.00,0
2026-06-27 11:44:49.893,994.47,994.46,-1.63,-1.69,0.00,1.33,-0.09,9.66,-0.00,0.00,0.00,0
2026-06-27 11:44:49.894,994.47,994.46,-1.63,-1.69,0.00,1.22,-0.14,9.70,-0.00,0.00,0.00,0
2026-06-27 11:44:49.896,994.47,994.46,-1.63,-1.69,0.00,1.22,-0.14,9.70,-0.00,0.00,0.00,0
2026-06-27 11:44:49.898,994.47,994.46,-1.63,-1.69,0.00,1.22,-0.14,9.70,-0.00,0.00,0.00,0
2026-06-27 11:44:49.902,994.47,994.46,-1.63,-1.69,0.00,1.22,-0.14,9.70,-0.00,0.00,0.00,0
2026-06-27 11:44:49.904,994.47,994.46,-1.63,-1.69,0.00,1.20,-0.07,9.59,-0.00,0.00,0.00,0
2026-06-27 11:44:49.905,994.47,994.46,-1.63,-1.69,0.00,1.20,-0.07,9.59,-0.00,0.00,0.00,0
2026-06-27 11:44:49.906,994.47,994.46,-1.63,-1.69,0.00,1.20,-0.07,9.59,-0.00,0.00,0.00,0
2026-06-27 11:44:49.910,994.47,994.46,-1.63,-1.69,0.00,1.20,-0.07,9.59,-0.00,0.00,0.00,0
2026-06-27 11:44:49.913,994.47,994.46,-1.63,-1.69,0.00,1.20,-0.07,9.59,-0.00,0.00,-0.00,0
2026-06-27 11:44:49.914,994.47,994.46,-1.63,-1.69,0.00,1.16,-0.09,9.59,-0.00,0.00,-0.00,0
2026-06-27 11:44:49.916,994.47,994.46,-1.63,-1.69,0.00,1.16,-0.09,9.59,-0.00,0.00,-0.00,0
2026-06-27 11:44:49.922,994.47,994.46,-1.63,-1.69,0.00,1.16,-0.09,9.59,-0.00,0.00,-0.00,0
2026-06-27 11:44:49.924,994.47,994.46,-1.63,-1.69,0.00,1.05,-0.19,9.65,0.00,0.00,-0.00,0
2026-06-27 11:44:49.925,994.47,994.46,-1.63,-1.69,0.00,1.05,-0.19,9.65,0.00,0.00,-0.00,0
2026-06-27 11:44:49.926,994.47,994.46,-1.63,-1.69,0.00,1.05,-0.19,9.65,0.00,0.00,-0.00,0
2026-06-27 11:44:49.931,994.47,994.46,-1.63,-1.69,0.00,1.05,-0.19,9.65,0.00,0.00,-0.00,0
2026-06-27 11:44:50.073,994.46,994.46,-0.18,-0.56,0.00,1.11,-0.17,9.62,0.00,0.01,-0.00,0
2026-06-27 11:44:50.075,994.46,994.46,-0.18,-0.56,0.00,1.13,-0.12,9.68,0.00,0.01,-0.00,0
2026-06-27 11:44:50.082,994.46,994.46,-0.18,-0.56,0.00,1.13,-0.12,9.68,0.00,0.01,-0.00,0
2026-06-27 11:44:50.085,994.46,994.46,-0.18,-0.56,0.00,1.07,-0.14,9.63,0.00,0.01,-0.01,0
2026-06-27 11:44:50.086,994.46,994.46,-0.18,-0.56,0.00,1.07,-0.14,9.63,0.00,0.01,-0.01,0
2026-06-27 11:44:50.093,994.46,994.46,-0.18,-0.56,0.00,1.07,-0.14,9.63,0.00,0.01,-0.01,0
2026-06-27 11:44:50.094,994.46,994.46,-0.18,-0.56,0.00,1.12,-0.14,9.66,0.00,0.00,-0.01,0
2026-06-27 11:44:50.096,994.46,994.46,-0.18,-0.56,0.00,1.12,-0.14,9.66,0.00,0.00,-0.01,0
2026-06-27 11:44:50.102,994.46,994.46,-0.18,-0.56,0.00,1.12,-0.14,9.66,0.00,0.00,-0.01,0
2026-06-27 11:44:50.104,994.46,994.46,-0.18,-0.56,0.00,1.17,-0.10,9.60,0.00,0.01,-0.01,0
2026-06-27 11:44:50.106,994.46,994.46,-0.18,-0.56,0.00,1.17,-0.10,9.60,0.00,0.01,-0.01,0
2026-06-27 11:44:50.253,994.45,994.44,-1.53,-1.64,0.00,1.30,-0.12,9.55,0.01,0.05,-0.01,0
2026-06-27 11:44:50.255,994.45,994.44,-1.53,-1.64,0.00,1.24,-0.11,9.77,0.01,0.06,-0.01,0
2026-06-27 11:44:50.257,994.45,994.44,-1.53,-1.64,0.00,1.24,-0.11,9.77,0.01,0.06,-0.01,0
2026-06-27 11:44:50.263,994.45,994.44,-1.53,-1.64,0.00,1.24,-0.11,9.77,0.01,0.06,-0.01,0
2026-06-27 11:44:50.265,994.45,994.44,-1.53,-1.64,0.00,1.17,-0.09,9.70,0.01,0.06,-0.01,0
2026-06-27 11:44:50.267,994.45,994.44,-1.53,-1.64,0.00,1.17,-0.09,9.70,0.01,0.06,-0.01,0
2026-06-27 11:44:50.273,994.45,994.44,-1.53,-1.64,0.00,1.17,-0.09,9.70,0.01,0.06,-0.01,0
2026-06-27 11:44:50.275,994.45,994.44,-1.53,-1.64,0.00,1.26,-0.08,9.56,0.01,0.08,-0.01,0
2026-06-27 11:44:50.277,994.45,994.44,-1.53,-1.64,0.00,1.26,-0.08,9.56,0.01,0.08,-0.01,0
2026-06-27 11:44:50.283,994.45,994.44,-1.53,-1.64,0.00,1.26,-0.08,9.56,0.01,0.08,-0.01,0
2026-06-27 11:44:50.423,994.46,994.46,0.04,0.27,0.00,1.00,-0.09,9.67,0.01,0.08,-0.01,0
2026-06-27 11:44:50.425,994.46,994.46,0.04,0.27,0.00,0.98,-0.11,9.65,0.01,0.08,-0.00,0
2026-06-27 11:44:50.427,994.46,994.46,0.04,0.27,0.00,0.98,-0.11,9.65,0.01,0.08,-0.00,0
2026-06-27 11:44:50.432,994.46,994.46,0.04,0.27,0.00,0.98,-0.11,9.65,0.01,0.08,-0.00,0
2026-06-27 11:44:50.434,994.46,994.46,0.04,0.27,0.00,1.04,-0.11,9.67,0.01,0.07,-0.00,0
2026-06-27 11:44:50.436,994.46,994.46,0.04,0.27,0.00,1.04,-0.11,9.67,0.01,0.07,-0.00,0
2026-06-27 11:44:50.438,994.46,994.46,0.04,0.27,0.00,1.04,-0.11,9.67,0.01,0.07,-0.00,0
2026-06-27 11:44:50.443,994.46,994.46,0.04,0.27,0.00,1.04,-0.11,9.67,0.01,0.07,-0.00,0
2026-06-27 11:44:50.445,994.46,994.46,0.04,0.27,0.00,1.02,-0.11,9.62,0.01,0.07,-0.00,0
2026-06-27 11:44:50.447,994.46,994.46,0.04,0.27,0.00,1.02,-0.11,9.62,0.01,0.07,-0.00,0
2026-06-27 11:44:50.451,994.46,994.46,0.04,0.27,0.00,1.02,-0.11,9.62,0.01,0.07,-0.00,0
2026-06-27 11:44:50.455,994.46,994.46,0.04,0.27,0.00,1.01,-0.11,9.64,0.01,0.07,-0.00,0
2026-06-27 11:44:50.598,994.47,994.46,-0.67,-1.09,0.00,0.96,-0.12,9.64,0.01,0.09,0.01,0
2026-06-27 11:44:50.604,994.47,994.46,-0.67,-1.09,0.00,0.96,-0.12,9.64,0.01,0.09,0.00,0
2026-06-27 11:44:50.606,994.47,994.46,-0.67,-1.09,0.00,0.95,-0.11,9.71,0.01,0.09,0.00,0
2026-06-27 11:44:50.608,994.47,994.46,-0.67,-1.09,0.00,0.95,-0.11,9.71,0.01,0.09,0.00,0
2026-06-27 11:44:50.614,994.47,994.46,-0.67,-1.09,0.00,0.95,-0.11,9.71,0.01,0.09,0.00,0
2026-06-27 11:44:50.616,994.47,994.46,-0.67,-1.09,0.00,0.88,-0.13,9.65,0.01,0.09,0.00,0
2026-06-27 11:44:50.617,994.47,994.46,-0.67,-1.09,0.00,0.88,-0.13,9.65,0.01,0.09,0.00,0
2026-06-27 11:44:50.621,994.47,994.46,-0.67,-1.09,0.00,0.88,-0.13,9.65,0.01,0.09,0.00,0
2026-06-27 11:44:50.625,994.47,994.46,-0.67,-1.09,0.00,0.88,-0.13,9.65,0.01,0.09,0.00,0
2026-06-27 11:44:50.626,994.47,994.46,-0.67,-1.09,0.00,0.90,-0.12,9.65,0.01,0.09,0.00,0
2026-06-27 11:44:50.629,994.47,994.46,-0.67,-1.09,0.00,0.90,-0.12,9.65,0.01,0.09,0.00,0
2026-06-27 11:44:50.634,994.47,994.46,-0.67,-1.09,0.00,0.90,-0.12,9.65,0.01,0.09,-0.00,0
2026-06-27 11:44:50.775,994.45,994.46,0.49,0.93,0.00,0.67,-0.12,9.69,0.01,0.08,-0.00,0
2026-06-27 11:44:50.777,994.45,994.46,0.49,0.93,0.00,0.67,-0.12,9.69,0.01,0.08,-0.00,0
2026-06-27 11:44:50.782,994.45,994.46,0.49,0.93,0.00,0.67,-0.12,9.69,0.01,0.08,-0.00,0
2026-06-27 11:44:50.785,994.45,994.46,0.49,0.93,0.00,0.67,-0.12,9.69,0.01,0.08,0.00,0
2026-06-27 11:44:50.787,994.45,994.46,0.49,0.93,0.00,0.67,-0.14,9.67,0.01,0.08,0.00,0
2026-06-27 11:44:50.791,994.45,994.46,0.49,0.93,0.00,0.67,-0.14,9.67,0.01,0.08,0.00,0
2026-06-27 11:44:50.795,994.45,994.46,0.49,0.93,0.00,0.67,-0.14,9.67,0.01,0.09,0.00,0
2026-06-27 11:44:50.797,994.45,994.46,0.49,0.93,0.00,0.67,-0.13,9.71,0.01,0.09,0.00,0
2026-06-27 11:44:50.802,994.45,994.46,0.49,0.93,0.00,0.67,-0.13,9.71,0.01,0.09,0.00,0
2026-06-27 11:44:50.805,994.45,994.46,0.49,0.93,0.00,0.67,-0.10,9.69,0.01,0.08,0.00,0
2026-06-27 11:44:50.807,994.45,994.46,0.49,0.93,0.00,0.67,-0.10,9.69,0.01,0.08,0.00,0
2026-06-27 11:44:50.812,994.45,994.46,0.49,0.93,0.00,0.67,-0.10,9.69,0.01,0.08,0.00,0
2026-06-27 11:44:50.956,994.46,994.44,-2.02,-1.88,0.00,0.54,-0.05,9.72,0.01,0.05,0.00,0
2026-06-27 11:44:50.958,994.46,994.44,-2.02,-1.88,0.00,0.51,-0.05,9.71,0.01,0.05,0.00,0
2026-06-27 11:44:50.963,994.46,994.44,-2.02,-1.88,0.00,0.51,-0.05,9.71,0.01,0.05,0.00,0
2026-06-27 11:44:50.968,994.46,994.44,-2.02,-1.88,0.00,0.51,-0.08,9.69,0.01,0.05,0.00,0
2026-06-27 11:44:50.974,994.46,994.44,-2.02,-1.88,0.00,0.51,-0.08,9.69,0.01,0.05,0.00,0
2026-06-27 11:44:50.976,994.46,994.44,-2.02,-1.88,0.00,0.57,-0.06,9.68,0.01,0.05,-0.00,0
2026-06-27 11:44:50.978,994.46,994.44,-2.02,-1.88,0.00,0.57,-0.06,9.68,0.01,0.05,-0.00,0
2026-06-27 11:44:50.983,994.46,994.44,-2.02,-1.88,0.00,0.57,-0.06,9.68,0.01,0.05,-0.00,0
2026-06-27 11:44:50.986,994.46,994.44,-2.02,-1.88,0.00,0.58,-0.10,9.69,0.01,0.05,-0.01,0
2026-06-27 11:44:50.988,994.46,994.44,-2.02,-1.88,0.00,0.58,-0.10,9.69,0.01,0.05,-0.01,0
2026-06-27 11:44:50.992,994.46,994.44,-2.02,-1.88,0.00,0.58,-0.10,9.69,0.01,0.05,-0.01,0
2026-06-27 11:44:51.146,994.44,994.45,1.32,1.52,0.00,0.52,-0.08,9.69,0.00,0.05,0.00,0
2026-06-27 11:44:51.148,994.44,994.45,1.32,1.52,0.00,0.52,-0.08,9.69,0.00,0.05,0.00,0
2026-06-27 11:44:51.152,994.44,994.45,1.32,1.52,0.00,0.52,-0.08,9.69,0.00,0.05,0.00,0
2026-06-27 11:44:51.156,994.44,994.45,1.32,1.52,0.00,0.52,-0.08,9.69,0.01,0.04,0.00,0
2026-06-27 11:44:51.157,994.44,994.45,1.32,1.52,0.00,0.51,-0.07,9.70,0.01,0.04,0.00,0
2026-06-27 11:44:51.159,994.44,994.45,1.32,1.52,0.00,0.51,-0.07,9.70,0.01,0.04,0.00,0
2026-06-27 11:44:51.165,994.44,994.45,1.32,1.52,0.00,0.51,-0.07,9.70,0.01,0.04,0.00,0
2026-06-27 11:44:51.166,994.44,994.45,1.32,1.52,0.00,0.52,-0.09,9.70,0.00,0.05,0.00,0
2026-06-27 11:44:51.168,994.44,994.45,1.32,1.52,0.00,0.52,-0.09,9.70,0.00,0.05,0.00,0
2026-06-27 11:44:51.307,994.46,994.46,0.63,1.05,0.00,0.42,-0.03,9.70,0.01,0.04,0.00,0
2026-06-27 11:44:51.311,994.46,994.46,0.63,1.05,0.00,0.42,-0.03,9.70,0.01,0.04,0.00,0
2026-06-27 11:44:51.316,994.46,994.46,0.63,1.05,0.00,0.42,-0.03,9.70,0.01,0.05,0.00,0
2026-06-27 11:44:51.318,994.46,994.46,0.63,1.05,0.00,0.40,-0.03,9.70,0.01,0.05,0.00,0
2026-06-27 11:44:51.325,994.46,994.46,0.63,1.05,0.00,0.40,-0.03,9.70,0.01,0.05,0.00,0
2026-06-27 11:44:51.327,994.46,994.46,0.63,1.05,0.00,0.41,-0.03,9.70,0.01,0.05,-0.00,0
2026-06-27 11:44:51.329,994.46,994.46,0.63,1.05,0.00,0.41,-0.03,9.70,0.01,0.05,-0.00,0
2026-06-27 11:44:51.335,994.46,994.46,0.63,1.05,0.00,0.41,-0.03,9.70,0.01,0.05,-0.00,0
2026-06-27 11:44:51.337,994.46,994.46,0.63,1.05,0.00,0.46,-0.04,9.70,0.01,0.05,0.00,0
2026-06-27 11:44:51.339,994.46,994.46,0.63,1.05,0.00,0.46,-0.04,9.70,0.01,0.05,0.00,0
2026-06-27 11:44:51.342,994.46,994.46,0.63,1.05,0.00,0.46,-0.04,9.70,0.01,0.05,0.00,0
2026-06-27 11:44:51.346,994.46,994.46,0.63,1.05,0.00,0.46,-0.04,9.70,0.01,0.04,0.00,0
2026-06-27 11:44:51.488,994.45,994.46,1.24,1.48,0.00,0.33,-0.05,9.74,0.01,0.05,-0.00,0
2026-06-27 11:44:51.492,994.45,994.46,1.24,1.48,0.00,0.33,-0.05,9.74,0.01,0.05,-0.00,0
2026-06-27 11:44:51.496,994.45,994.46,1.24,1.48,0.00,0.33,-0.05,9.74,0.01,0.05,0.00,0
2026-06-27 11:44:51.498,994.45,994.46,1.24,1.48,0.00,0.33,-0.05,9.70,0.01,0.05,0.00,0
2026-06-27 11:44:51.502,994.45,994.46,1.24,1.48,0.00,0.33,-0.05,9.70,0.01,0.05,0.00,0
2026-06-27 11:44:51.506,994.45,994.46,1.24,1.48,0.00,0.33,-0.05,9.70,0.00,0.05,0.00,0
2026-06-27 11:44:51.508,994.45,994.46,1.24,1.48,0.00,0.31,-0.05,9.72,0.00,0.05,0.00,0
2026-06-27 11:44:51.510,994.45,994.46,1.24,1.48,0.00,0.31,-0.05,9.72,0.00,0.05,0.00,0
2026-06-27 11:44:51.516,994.45,994.46,1.24,1.48,0.00,0.31,-0.05,9.72,0.00,0.05,0.00,0
2026-06-27 11:44:51.518,994.45,994.46,1.24,1.48,0.00,0.28,-0.05,9.71,0.01,0.04,0.00,0
2026-06-27 11:44:51.519,994.45,994.46,1.24,1.48,0.00,0.28,-0.05,9.71,0.01,0.04,0.00,0
2026-06-27 11:44:51.526,994.45,994.46,1.24,1.48,0.00,0.28,-0.05,9.71,0.01,0.04,0.00,0
2026-06-27 11:44:51.667,994.45,994.48,3.29,2.41,0.00,0.27,-0.01,9.70,0.00,0.02,0.00,0
2026-06-27 11:44:51.669,994.45,994.48,3.29,2.41,0.00,0.27,-0.01,9.70,0.00,0.02,0.00,0
2026-06-27 11:44:51.675,994.45,994.48,3.29,2.41,0.00,0.27,-0.01,9.70,0.00,0.02,0.00,0
2026-06-27 11:44:51.677,994.45,994.48,3.29,2.41,0.00,0.26,-0.03,9.71,0.00,0.01,0.00,0
2026-06-27 11:44:51.679,994.45,994.48,3.29,2.41,0.00,0.26,-0.03,9.71,0.00,0.01,0.00,0
2026-06-27 11:44:51.683,994.45,994.48,3.29,2.41,0.00,0.26,-0.03,9.71,0.00,0.01,0.00,0
2026-06-27 11:44:51.687,994.45,994.48,3.29,2.41,0.00,0.26,-0.03,9.71,0.00,0.01,-0.00,0
2026-06-27 11:44:51.689,994.45,994.48,3.29,2.41,0.00,0.24,-0.02,9.72,0.00,0.01,-0.00,0
2026-06-27 11:44:51.696,994.45,994.48,3.29,2.41,0.00,0.24,-0.02,9.72,0.00,0.01,-0.00,0
2026-06-27 11:44:51.697,994.45,994.48,3.29,2.41,0.00,0.28,-0.01,9.72,0.00,0.01,-0.00,0
2026-06-27 11:44:51.699,994.45,994.48,3.29,2.41,0.00,0.28,-0.01,9.72,0.00,0.01,-0.00,0
2026-06-27 11:44:51.703,994.45,994.48,3.29,2.41,0.00,0.28,-0.01,9.72,0.00,0.01,-0.00,0
2026-06-27 11:44:51.846,994.46,994.46,-0.08,-0.38,0.00,0.31,-0.05,9.71,0.00,0.01,0.00,0
2026-06-27 11:44:51.848,994.46,994.46,-0.08,-0.38,0.00,0.34,-0.04,9.72,0.00,0.01,0.00,0
2026-06-27 11:44:51.850,994.46,994.46,-0.08,-0.38,0.00,0.34,-0.04,9.72,0.00,0.01,0.00,0
2026-06-27 11:44:51.857,994.46,994.46,-0.08,-0.38,0.00,0.34,-0.04,9.72,0.00,0.01,0.00,0
2026-06-27 11:44:51.859,994.46,994.46,-0.08,-0.38,0.00,0.33,-0.05,9.71,0.00,0.01,0.00,0
2026-06-27 11:44:51.863,994.46,994.46,-0.08,-0.38,0.00,0.33,-0.05,9.71,0.00,0.01,0.00,0
2026-06-27 11:44:51.867,994.46,994.46,-0.08,-0.38,0.00,0.33,-0.05,9.71,0.00,0.02,0.00,0
2026-06-27 11:44:51.869,994.46,994.46,-0.08,-0.38,0.00,0.32,-0.04,9.70,0.00,0.02,0.00,0
2026-06-27 11:44:51.873,994.46,994.46,-0.08,-0.38,0.00,0.32,-0.04,9.70,0.00,0.02,0.00,0
2026-06-27 11:44:51.877,994.46,994.46,-0.08,-0.38,0.00,0.32,-0.04,9.70,0.00,0.02,0.00,0
2026-06-27 11:44:51.879,994.46,994.46,-0.08,-0.38,0.00,0.30,-0.04,9.71,0.00,0.02,0.00,0
2026-06-27 11:44:51.882,994.46,994.46,-0.08,-0.38,0.00,0.30,-0.04,9.71,0.00,0.02,0.00,0
2026-06-27 11:44:52.027,994.46,994.46,0.22,0.63,0.00,0.23,-0.04,9.73,-0.00,0.00,-0.00,0
2026-06-27 11:44:52.029,994.46,994.46,0.22,0.63,0.00,0.22,-0.01,9.71,-0.00,0.00,-0.00,0
2026-06-27 11:44:52.031,994.46,994.46,0.22,0.63,0.00,0.22,-0.01,9.71,-0.00,0.00,-0.00,0
2026-06-27 11:44:52.037,994.46,994.46,0.22,0.63,0.00,0.22,-0.01,9.71,-0.00,0.00,-0.00,0
2026-06-27 11:44:52.039,994.46,994.46,0.22,0.63,0.00,0.22,-0.02,9.73,0.00,-0.00,-0.00,0
2026-06-27 11:44:52.040,994.46,994.46,0.22,0.63,0.00,0.22,-0.02,9.73,0.00,-0.00,-0.00,0
2026-06-27 11:44:52.044,994.46,994.46,0.22,0.63,0.00,0.22,-0.02,9.73,0.00,-0.00,-0.00,0
2026-06-27 11:44:52.048,994.46,994.46,0.22,0.63,0.00,0.22,-0.02,9.73,0.00,-0.00,0.00,0
2026-06-27 11:44:52.049,994.46,994.46,0.22,0.63,0.00,0.22,-0.04,9.73,0.00,-0.00,0.00,0
2026-06-27 11:44:52.052,994.46,994.46,0.22,0.63,0.00,0.22,-0.04,9.73,0.00,-0.00,0.00,0
2026-06-27 11:44:52.058,994.46,994.46,0.22,0.63,0.00,0.22,-0.04,9.73,-0.00,-0.01,0.00,0
2026-06-27 11:44:52.200,994.43,994.46,3.31,2.41,0.00,0.29,-0.03,9.70,-0.00,-0.01,-0.00,0
2026-06-27 11:44:52.207,994.43,994.46,3.31,2.41,0.00,0.29,-0.03,9.70,-0.00,-0.01,-0.00,0
2026-06-27 11:44:52.209,994.43,994.46,3.31,2.41,0.00,0.31,-0.04,9.72,-0.00,-0.01,-0.00,0
2026-06-27 11:44:52.211,994.43,994.46,3.31,2.41,0.00,0.31,-0.04,9.72,-0.00,-0.01,-0.00,0
2026-06-27 11:44:52.218,994.43,994.46,3.31,2.41,0.00,0.31,-0.04,9.72,0.00,-0.01,-0.00,0
2026-06-27 11:44:52.227,994.43,994.46,3.31,2.41,0.00,0.28,-0.04,9.71,0.00,-0.01,-0.00,0
2026-06-27 11:44:52.229,994.43,994.46,3.31,2.41,0.00,0.29,-0.03,9.73,0.00,-0.01,0.00,0
2026-06-27 11:44:52.235,994.43,994.46,3.31,2.41,0.00,0.29,-0.03,9.73,0.00,-0.01,0.00,0
2026-06-27 11:44:52.378,994.46,994.45,-0.20,-0.60,0.00,0.33,-0.05,9.69,-0.00,-0.00,0.00,0
2026-06-27 11:44:52.381,994.46,994.45,-0.20,-0.60,0.00,0.30,-0.05,9.71,-0.00,-0.00,0.00,0
2026-06-27 11:44:52.387,994.46,994.45,-0.20,-0.60,0.00,0.30,-0.05,9.71,-0.00,-0.00,0.00,0
2026-06-27 11:44:52.389,994.46,994.45,-0.20,-0.60,0.00,0.31,-0.05,9.70,0.00,-0.01,-0.00,0
2026-06-27 11:44:52.392,994.46,994.45,-0.20,-0.60,0.00,0.31,-0.05,9.70,0.00,-0.01,-0.00,0
2026-06-27 11:44:52.398,994.46,994.45,-0.20,-0.60,0.00,0.31,-0.05,9.70,0.00,-0.01,-0.00,0
2026-06-27 11:44:52.400,994.46,994.45,-0.20,-0.60,0.00,0.30,-0.05,9.72,-0.00,-0.00,-0.00,0
2026-06-27 11:44:52.403,994.46,994.45,-0.20,-0.60,0.00,0.30,-0.05,9.72,-0.00,-0.00,-0.00,0
2026-06-27 11:44:52.408,994.46,994.45,-0.20,-0.60,0.00,0.30,-0.05,9.72,-0.00,-0.00,-0.00,0
2026-06-27 11:44:52.410,994.46,994.45,-0.20,-0.60,0.00,0.32,-0.05,9.72,-0.00,-0.00,-0.00,0
2026-06-27 11:44:52.414,994.46,994.45,-0.20,-0.60,0.00,0.32,-0.05,9.72,-0.00,-0.00,-0.00,0
2026-06-27 11:44:52.556,994.45,994.44,-0.86,-1.23,0.00,0.28,-0.04,9.71,0.00,0.01,0.00,0
2026-06-27 11:44:52.559,994.45,994.44,-0.86,-1.23,0.00,0.29,-0.02,9.73,0.00,0.01,0.00,0
2026-06-27 11:44:52.561,994.45,994.44,-0.86,-1.23,0.00,0.29,-0.02,9.73,0.00,0.01,0.00,0
2026-06-27 11:44:52.567,994.45,994.44,-0.86,-1.23,0.00,0.29,-0.02,9.73,0.00,0.01,0.00,0
2026-06-27 11:44:52.569,994.45,994.44,-0.86,-1.23,0.00,0.27,-0.01,9.70,0.00,0.01,0.00,0
2026-06-27 11:44:52.571,994.45,994.44,-0.86,-1.23,0.00,0.27,-0.01,9.70,0.00,0.01,0.00,0
2026-06-27 11:44:52.577,994.45,994.44,-0.86,-1.23,0.00,0.27,-0.01,9.70,0.00,0.01,0.00,0
2026-06-27 11:44:52.579,994.45,994.44,-0.86,-1.23,0.00,0.26,-0.04,9.71,0.00,0.01,0.00,0
2026-06-27 11:44:52.581,994.45,994.44,-0.86,-1.23,0.00,0.26,-0.04,9.71,0.00,0.01,0.00,0
2026-06-27 11:44:52.586,994.45,994.44,-0.86,-1.23,0.00,0.26,-0.04,9.71,0.00,0.01,0.00,0
2026-06-27 11:44:52.589,994.45,994.44,-0.86,-1.23,0.00,0.26,-0.04,9.71,0.00,0.01,0.00,0
2026-06-27 11:44:52.591,994.45,994.44,-0.86,-1.23,0.00,0.24,-0.05,9.71,0.00,0.01,0.00,0
2026-06-27 11:44:52.732,994.47,994.46,-0.59,-1.02,0.00,0.24,-0.05,9.71,-0.00,-0.01,0.00,0
2026-06-27 11:44:52.738,994.47,994.46,-0.59,-1.02,0.00,0.24,-0.05,9.71,-0.00,-0.01,0.00,0
2026-06-27 11:44:52.740,994.47,994.46,-0.59,-1.02,0.00,0.27,-0.05,9.72,-0.00,-0.02,-0.00,0
2026-06-27 11:44:52.742,994.47,994.46,-0.59,-1.02,0.00,0.27,-0.05,9.72,-0.00,-0.02,-0.00,0
2026-06-27 11:44:52.746,994.47,994.46,-0.59,-1.02,0.00,0.27,-0.05,9.72,-0.00,-0.02,-0.00,0
2026-06-27 11:44:52.749,994.47,994.46,-0.59,-1.02,0.00,0.27,-0.05,9.72,-0.00,-0.02,-0.00,0
2026-06-27 11:44:52.751,994.47,994.46,-0.59,-1.02,0.00,0.24,-0.03,9.73,-0.00,-0.02,-0.00,0
2026-06-27 11:44:52.755,994.47,994.46,-0.59,-1.02,0.00,0.24,-0.03,9.73,-0.00,-0.02,-0.00,0
2026-06-27 11:44:52.759,994.47,994.46,-0.59,-1.02,0.00,0.24,-0.03,9.73,-0.00,-0.02,-0.00,0
2026-06-27 11:44:52.761,994.47,994.46,-0.59,-1.02,0.00,0.19,-0.05,9.70,-0.00,-0.02,-0.00,0
2026-06-27 11:44:52.766,994.47,994.46,-0.59,-1.02,0.00,0.19,-0.05,9.70,-0.00,-0.02,-0.00,0
2026-06-27 11:44:52.769,994.47,994.46,-0.59,-1.02,0.00,0.19,-0.05,9.70,-0.00,-0.02,-0.00,0
2026-06-27 11:44:52.910,994.46,994.44,-1.45,-1.59,0.00,0.29,-0.04,9.74,-0.01,-0.04,0.00,0
2026-06-27 11:44:52.912,994.46,994.44,-1.45,-1.59,0.00,0.26,-0.01,9.70,-0.01,-0.04,0.00,0
2026-06-27 11:44:52.919,994.46,994.44,-1.45,-1.59,0.00,0.26,-0.01,9.70,-0.01,-0.04,0.00,0
2026-06-27 11:44:52.921,994.46,994.44,-1.45,-1.59,0.00,0.25,-0.03,9.72,-0.01,-0.05,0.00,0
2026-06-27 11:44:52.923,994.46,994.44,-1.45,-1.59,0.00,0.25,-0.03,9.72,-0.01,-0.05,0.00,0
2026-06-27 11:44:52.929,994.46,994.44,-1.45,-1.59,0.00,0.25,-0.03,9.72,-0.01,-0.05,0.00,0
2026-06-27 11:44:52.930,994.46,994.44,-1.45,-1.59,0.00,0.25,-0.05,9.73,-0.00,-0.05,-0.00,0
2026-06-27 11:44:52.932,994.46,994.44,-1.45,-1.59,0.00,0.25,-0.05,9.73,-0.00,-0.05,-0.00,0
2026-06-27 11:44:52.939,994.46,994.44,-1.45,-1.59,0.00,0.25,-0.05,9.73,-0.00,-0.05,-0.00,0
2026-06-27 11:44:52.940,994.46,994.44,-1.45,-1.59,0.00,0.30,-0.04,9.60,-0.01,-0.05,-0.00,0
2026-06-27 11:44:52.942,994.46,994.44,-1.45,-1.59,0.00,0.30,-0.04,9.60,-0.01,-0.05,-0.00,0
2026-06-27 11:44:53.089,994.46,994.47,0.92,1.27,0.00,0.68,-0.04,9.68,0.00,-0.01,0.01,0
2026-06-27 11:44:53.091,994.46,994.47,0.92,1.27,0.00,0.72,-0.07,9.73,0.00,-0.01,0.00,0
2026-06-27 11:44:53.093,994.46,994.47,0.92,1.27,0.00,0.72,-0.07,9.73,0.00,-0.01,0.00,0
2026-06-27 11:44:53.100,994.46,994.47,0.92,1.27,0.00,0.72,-0.07,9.73,-0.00,-0.00,-0.00,0
2026-06-27 11:44:53.106,994.46,994.47,0.92,1.27,0.00,0.73,-0.08,9.74,-0.00,-0.00,-0.00,0
2026-06-27 11:44:53.110,994.46,994.47,0.92,1.27,0.00,0.73,-0.08,9.74,0.00,0.01,-0.00,0
2026-06-27 11:44:53.112,994.46,994.47,0.92,1.27,0.00,0.70,-0.05,9.69,0.00,0.01,-0.00,0
2026-06-27 11:44:53.113,994.46,994.47,0.92,1.27,0.00,0.70,-0.05,9.69,0.00,0.01,-0.00,0
2026-06-27 11:44:53.119,994.46,994.47,0.92,1.27,0.00,0.70,-0.05,9.69,0.00,0.01,-0.00,0
2026-06-27 11:44:53.262,994.44,994.45,1.49,1.62,0.00,0.32,-0.11,9.70,0.01,0.08,0.00,0
2026-06-27 11:44:53.265,994.44,994.45,1.49,1.62,0.00,0.32,-0.11,9.70,0.01,0.08,0.00,0
2026-06-27 11:44:53.270,994.44,994.45,1.49,1.62,0.00,0.32,-0.11,9.70,0.01,0.08,0.01,0
2026-06-27 11:44:53.272,994.44,994.45,1.49,1.62,0.00,0.26,-0.11,9.75,0.01,0.08,0.01,0
2026-06-27 11:44:53.274,994.44,994.45,1.49,1.62,0.00,0.26,-0.11,9.75,0.01,0.08,0.01,0
2026-06-27 11:44:53.280,994.44,994.45,1.49,1.62,0.00,0.26,-0.11,9.75,0.01,0.08,0.01,0
2026-06-27 11:44:53.281,994.44,994.45,1.49,1.62,0.00,0.26,-0.06,9.73,0.01,0.08,0.01,0
2026-06-27 11:44:53.283,994.44,994.45,1.49,1.62,0.00,0.26,-0.06,9.73,0.01,0.08,0.01,0
2026-06-27 11:44:53.289,994.44,994.45,1.49,1.62,0.00,0.26,-0.06,9.73,0.01,0.08,0.01,0
2026-06-27 11:44:53.292,994.44,994.45,1.49,1.62,0.00,0.28,-0.08,9.71,0.01,0.08,0.01,0
2026-06-27 11:44:53.298,994.44,994.45,1.49,1.62,0.00,0.28,-0.08,9.71,0.01,0.08,0.01,0
2026-06-27 11:44:53.441,994.46,994.45,-0.09,-0.40,0.00,0.10,-0.04,9.70,0.01,0.05,-0.00,0
2026-06-27 11:44:53.443,994.46,994.45,-0.09,-0.40,0.00,0.10,-0.04,9.70,0.01,0.05,-0.00,0
2026-06-27 11:44:53.445,994.46,994.45,-0.09,-0.40,0.00,0.10,-0.04,9.70,0.01,0.05,-0.00,0
2026-06-27 11:44:53.450,994.46,994.45,-0.09,-0.40,0.00,0.10,-0.04,9.70,0.01,0.05,-0.00,0
2026-06-27 11:44:53.453,994.46,994.45,-0.09,-0.40,0.00,0.12,-0.07,9.70,0.01,0.05,-0.00,0
2026-06-27 11:44:53.459,994.46,994.45,-0.09,-0.40,0.00,0.12,-0.07,9.70,0.01,0.05,-0.00,0
2026-06-27 11:44:53.462,994.46,994.45,-0.09,-0.40,0.00,0.12,-0.04,9.71,0.01,0.04,0.00,0
2026-06-27 11:44:53.470,994.46,994.45,-0.09,-0.40,0.00,0.12,-0.04,9.71,0.01,0.04,0.00,0
2026-06-27 11:44:53.472,994.46,994.45,-0.09,-0.40,0.00,0.07,-0.05,9.71,0.00,0.04,0.00,0
2026-06-27 11:44:53.474,994.46,994.45,-0.09,-0.40,0.00,0.07,-0.05,9.71,0.00,0.04,0.00,0
2026-06-27 11:44:53.480,994.46,994.45,-0.09,-0.40,0.00,0.07,-0.05,9.71,0.00,0.04,0.00,0
2026-06-27 11:44:53.621,994.44,994.47,2.69,2.17,0.00,0.14,0.00,9.70,-0.00,-0.00,-0.00,0
2026-06-27 11:44:53.623,994.44,994.47,2.69,2.17,0.00,0.14,0.00,9.70,-0.00,-0.00,-0.00,0
2026-06-27 11:44:53.629,994.44,994.47,2.69,2.17,0.00,0.14,0.00,9.70,-0.00,-0.00,-0.00,0
2026-06-27 11:44:53.631,994.44,994.47,2.69,2.17,0.00,0.11,0.01,9.72,0.00,-0.01,0.00,0
2026-06-27 11:44:53.633,994.44,994.47,2.69,2.17,0.00,0.11,0.01,9.72,0.00,-0.01,0.00,0
2026-06-27 11:44:53.640,994.44,994.47,2.69,2.17,0.00,0.11,0.01,9.72,0.00,-0.01,0.00,0
2026-06-27 11:44:53.642,994.44,994.47,2.69,2.17,0.00,0.12,0.05,9.73,-0.00,-0.00,-0.00,0
2026-06-27 11:44:53.644,994.44,994.47,2.69,2.17,0.00,0.12,0.05,9.73,-0.00,-0.00,-0.00,0
2026-06-27 11:44:53.648,994.44,994.47,2.69,2.17,0.00,0.12,0.05,9.73,-0.00,-0.00,-0.00,0
2026-06-27 11:44:53.651,994.44,994.47,2.69,2.17,0.00,0.12,0.05,9.73,0.00,-0.01,-0.00,0
2026-06-27 11:44:53.653,994.44,994.47,2.69,2.17,0.00,0.10,-0.01,9.74,0.00,-0.01,-0.00,0
2026-06-27 11:44:53.656,994.44,994.47,2.69,2.17,0.00,0.10,-0.01,9.74,0.00,-0.01,-0.00,0
2026-06-27 11:44:53.801,994.45,994.47,1.59,1.67,0.00,0.19,0.01,9.75,-0.00,-0.01,-0.00,0
2026-06-27 11:44:53.803,994.45,994.47,1.59,1.67,0.00,0.20,-0.01,9.71,-0.00,-0.01,0.00,0
2026-06-27 11:44:53.805,994.45,994.47,1.59,1.67,0.00,0.20,-0.01,9.71,-0.00,-0.01,0.00,0
2026-06-27 11:44:53.812,994.45,994.47,1.59,1.67,0.00,0.20,-0.01,9.71,-0.00,-0.01,0.00,0
2026-06-27 11:44:53.814,994.45,994.47,1.59,1.67,0.00,0.19,0.01,9.72,-0.00,-0.01,0.00,0
2026-06-27 11:44:53.821,994.45,994.47,1.59,1.67,0.00,0.19,0.01,9.72,-0.00,-0.01,0.00,0
2026-06-27 11:44:53.823,994.45,994.47,1.59,1.67,0.00,0.22,0.02,9.70,-0.00,-0.01,0.00,0
2026-06-27 11:44:53.825,994.45,994.47,1.59,1.67,0.00,0.22,0.02,9.70,-0.00,-0.01,0.00,0
2026-06-27 11:44:53.831,994.45,994.47,1.59,1.67,0.00,0.22,0.02,9.70,-0.00,-0.01,0.00,0
2026-06-27 11:44:53.833,994.45,994.47,1.59,1.67,0.00,0.18,0.00,9.69,0.00,-0.01,-0.00,0
2026-06-27 11:44:53.977,994.46,994.48,1.65,1.70,0.00,0.21,-0.01,9.73,-0.00,-0.02,0.00,0
2026-06-27 11:44:53.981,994.46,994.48,1.65,1.70,0.00,0.21,-0.01,9.73,-0.00,-0.02,-0.00,0
2026-06-27 11:44:53.983,994.46,994.48,1.65,1.70,0.00,0.22,-0.01,9.71,-0.00,-0.02,-0.00,0
2026-06-27 11:44:53.987,994.46,994.48,1.65,1.70,0.00,0.22,-0.01,9.71,-0.00,-0.02,-0.00,0
2026-06-27 11:44:53.991,994.46,994.48,1.65,1.70,0.00,0.22,-0.01,9.71,-0.00,-0.02,-0.00,0
2026-06-27 11:44:53.993,994.46,994.48,1.65,1.70,0.00,0.18,-0.00,9.71,-0.00,-0.02,-0.00,0
2026-06-27 11:44:53.997,994.46,994.48,1.65,1.70,0.00,0.18,-0.00,9.71,-0.00,-0.02,-0.00,0
2026-06-27 11:44:53.002,994.46,994.48,1.65,1.70,0.00,0.18,-0.00,9.71,-0.00,-0.02,-0.00,0
2026-06-27 11:44:53.004,994.46,994.48,1.65,1.70,0.00,0.18,0.01,9.72,-0.00,-0.02,-0.00,0
2026-06-27 11:44:53.006,994.46,994.48,1.65,1.70,0.00,0.18,0.01,9.72,-0.00,-0.02,-0.00,0
2026-06-27 11:44:54.011,994.46,994.48,1.65,1.70,0.00,0.18,0.01,9.72,-0.00,-0.02,0.00,0
2026-06-27 11:44:54.154,994.45,994.46,1.04,1.35,0.00,0.22,-0.06,9.70,-0.00,-0.03,0.00,0
2026-06-27 11:44:54.161,994.45,994.46,1.04,1.35,0.00,0.22,-0.06,9.70,-0.00,-0.03,0.00,0
2026-06-27 11:44:54.163,994.45,994.46,1.04,1.35,0.00,0.19,-0.10,9.73,-0.00,-0.03,-0.00,0
2026-06-27 11:44:54.164,994.45,994.46,1.04,1.35,0.00,0.19,-0.10,9.73,-0.00,-0.03,-0.00,0
2026-06-27 11:44:54.170,994.45,994.46,1.04,1.35,0.00,0.19,-0.10,9.73,-0.00,-0.03,-0.00,0
2026-06-27 11:44:54.173,994.45,994.46,1.04,1.35,0.00,0.22,-0.09,9.73,-0.00,-0.03,0.00,0
2026-06-27 11:44:54.174,994.45,994.46,1.04,1.35,0.00,0.22,-0.09,9.73,-0.00,-0.03,0.00,0
2026-06-27 11:44:54.178,994.45,994.46,1.04,1.35,0.00,0.22,-0.09,9.73,-0.00,-0.03,0.00,0
2026-06-27 11:44:54.182,994.45,994.46,1.04,1.35,0.00,0.22,-0.09,9.73,-0.00,-0.03,0.00,0
2026-06-27 11:44:54.184,994.45,994.46,1.04,1.35,0.00,0.24,-0.10,9.71,-0.00,-0.03,0.00,0
2026-06-27 11:44:54.188,994.45,994.46,1.04,1.35,0.00,0.24,-0.10,9.71,-0.00,-0.03,0.00,0
2026-06-27 11:44:54.334,994.45,994.45,0.56,0.99,0.00,0.25,-0.05,9.71,-0.01,-0.05,-0.00,0
2026-06-27 11:44:54.341,994.45,994.45,0.56,0.99,0.00,0.25,-0.05,9.71,-0.01,-0.05,-0.00,0
2026-06-27 11:44:54.343,994.45,994.45,0.56,0.99,0.00,0.24,-0.04,9.72,-0.01,-0.05,0.00,0
2026-06-27 11:44:54.345,994.45,994.45,0.56,0.99,0.00,0.24,-0.04,9.72,-0.01,-0.05,0.00,0
2026-06-27 11:44:54.347,994.45,994.45,0.56,0.99,0.00,0.24,-0.04,9.72,-0.01,-0.05,0.00,0
2026-06-27 11:44:54.352,994.45,994.45,0.56,0.99,0.00,0.24,-0.04,9.72,-0.01,-0.05,0.00,0
2026-06-27 11:44:54.354,994.45,994.45,0.56,0.99,0.00,0.27,-0.06,9.71,-0.01,-0.06,-0.00,0
2026-06-27 11:44:54.356,994.45,994.45,0.56,0.99,0.00,0.27,-0.06,9.71,-0.01,-0.06,-0.00,0
2026-06-27 11:44:54.362,994.45,994.45,0.56,0.99,0.00,0.27,-0.06,9.71,-0.01,-0.06,-0.00,0
2026-06-27 11:44:54.364,994.45,994.45,0.56,0.99,0.00,0.23,-0.05,9.72,-0.01,-0.06,-0.00,0
2026-06-27 11:44:54.365,994.45,994.45,0.56,0.99,0.00,0.23,-0.05,9.72,-0.01,-0.06,-0.00,0
2026-06-27 11:44:54.372,994.45,994.45,0.56,0.99,0.00,0.23,-0.05,9.72,-0.01,-0.06,-0.00,0
2026-06-27 11:44:54.515,994.46,994.48,1.63,1.69,0.00,0.31,-0.03,9.71,-0.01,-0.10,-0.00,0
2026-06-27 11:44:54.522,994.46,994.48,1.63,1.69,0.00,0.31,-0.03,9.71,-0.01,-0.10,-0.00,0
2026-06-27 11:44:54.524,994.46,994.48,1.63,1.69,0.00,0.33,-0.02,9.72,-0.01,-0.11,-0.00,0
2026-06-27 11:44:54.526,994.46,994.48,1.63,1.69,0.00,0.33,-0.02,9.72,-0.01,-0.11,-0.00,0
2026-06-27 11:44:54.532,994.46,994.48,1.63,1.69,0.00,0.33,-0.02,9.72,-0.01,-0.11,-0.00,0
2026-06-27 11:44:54.534,994.46,994.48,1.63,1.69,0.00,0.36,-0.03,9.71,-0.01,-0.11,-0.00,0
2026-06-27 11:44:54.536,994.46,994.48,1.63,1.69,0.00,0.36,-0.03,9.71,-0.01,-0.11,-0.00,0
2026-06-27 11:44:54.542,994.46,994.48,1.63,1.69,0.00,0.36,-0.03,9.71,-0.01,-0.11,-0.00,0
2026-06-27 11:44:54.544,994.46,994.48,1.63,1.69,0.00,0.36,-0.04,9.71,-0.01,-0.11,-0.00,0
2026-06-27 11:44:54.546,994.46,994.48,1.63,1.69,0.00,0.36,-0.04,9.71,-0.01,-0.11,-0.00,0
2026-06-27 11:44:54.549,994.46,994.48,1.63,1.69,0.00,0.36,-0.04,9.71,-0.01,-0.11,-0.00,0
2026-06-27 11:44:54.693,994.46,994.44,-1.29,-1.51,0.00,-0.01,-0.01,9.75,-0.02,-0.16,0.01,0
2026-06-27 11:44:54.696,994.46,994.44,-1.29,-1.51,0.00,0.64,-0.19,9.85,-0.02,-0.16,0.01,0
2026-06-27 11:44:54.700,994.46,994.44,-1.29,-1.51,0.00,0.64,-0.19,9.85,-0.02,-0.16,0.01,0
2026-06-27 11:44:54.703,994.46,994.44,-1.29,-1.51,0.00,0.64,-0.19,9.85,-0.02,-0.16,0.01,0
2026-06-27 11:44:54.705,994.46,994.44,-1.29,-1.51,0.00,1.00,-0.32,9.70,-0.02,-0.16,0.01,0
2026-06-27 11:44:54.711,994.46,994.44,-1.29,-1.51,0.00,1.00,-0.32,9.70,-0.02,-0.16,0.01,0
2026-06-27 11:44:54.714,994.46,994.44,-1.29,-1.51,0.00,1.13,-0.27,9.43,-0.02,-0.17,-0.01,0
2026-06-27 11:44:54.716,994.46,994.44,-1.29,-1.51,0.00,1.13,-0.27,9.43,-0.02,-0.17,-0.01,0
2026-06-27 11:44:54.723,994.46,994.44,-1.29,-1.51,0.00,1.13,-0.27,9.43,-0.02,-0.17,-0.01,0
2026-06-27 11:44:54.729,994.46,994.44,-1.29,-1.51,0.00,0.96,-0.25,9.40,-0.02,-0.17,-0.01,0
2026-06-27 11:44:54.873,994.46,994.46,0.43,0.87,0.00,1.28,-0.08,9.58,-0.00,-0.05,-0.01,0
2026-06-27 11:44:54.875,994.46,994.46,0.43,0.87,0.00,1.11,-0.16,9.65,-0.00,-0.05,-0.01,0
2026-06-27 11:44:54.879,994.46,994.46,0.43,0.87,0.00,1.11,-0.16,9.65,-0.00,-0.05,-0.01,0
2026-06-27 11:44:54.884,994.46,994.46,0.43,0.87,0.00,1.11,-0.16,9.65,-0.00,-0.05,-0.01,0
2026-06-27 11:44:54.886,994.46,994.46,0.43,0.87,0.00,0.98,-0.14,9.73,-0.00,-0.05,-0.01,0
2026-06-27 11:44:54.889,994.46,994.46,0.43,0.87,0.00,0.98,-0.14,9.73,-0.00,-0.05,-0.01,0
2026-06-27 11:44:54.894,994.46,994.46,0.43,0.87,0.00,0.98,-0.14,9.73,-0.00,-0.04,-0.00,0
2026-06-27 11:44:54.896,994.46,994.46,0.43,0.87,0.00,0.98,-0.08,9.70,-0.00,-0.04,-0.00,0
2026-06-27 11:44:54.899,994.46,994.46,0.43,0.87,0.00,0.98,-0.08,9.70,-0.00,-0.04,-0.00,0
2026-06-27 11:44:54.904,994.46,994.46,0.43,0.87,0.00,0.98,-0.08,9.70,-0.00,-0.03,0.00,0
2026-06-27 11:44:54.906,994.46,994.46,0.43,0.87,0.00,1.09,-0.11,9.67,-0.00,-0.03,0.00,0
2026-06-27 11:44:55.047,994.46,994.48,1.67,1.71,0.00,0.89,-0.09,9.63,-0.00,-0.01,-0.00,0
2026-06-27 11:44:55.053,994.46,994.48,1.67,1.71,0.00,0.89,-0.09,9.63,-0.00,-0.01,-0.00,0
2026-06-27 11:44:55.055,994.46,994.48,1.67,1.71,0.00,0.88,-0.10,9.67,-0.00,-0.02,0.00,0
2026-06-27 11:44:55.057,994.46,994.48,1.67,1.71,0.00,0.88,-0.10,9.67,-0.00,-0.02,0.00,0
2026-06-27 11:44:55.063,994.46,994.48,1.67,1.71,0.00,0.88,-0.10,9.67,-0.00,-0.02,0.00,0
2026-06-27 11:44:55.065,994.46,994.48,1.67,1.71,0.00,0.73,-0.14,9.78,-0.00,-0.02,0.00,0
2026-06-27 11:44:55.067,994.46,994.48,1.67,1.71,0.00,0.73,-0.14,9.78,-0.00,-0.02,0.00,0
2026-06-27 11:44:55.073,994.46,994.48,1.67,1.71,0.00,0.73,-0.14,9.78,-0.00,-0.02,0.00,0
2026-06-27 11:44:55.075,994.46,994.48,1.67,1.71,0.00,0.69,-0.11,9.73,-0.00,-0.02,-0.00,0
2026-06-27 11:44:55.076,994.46,994.48,1.67,1.71,0.00,0.69,-0.11,9.73,-0.00,-0.02,-0.00,0
2026-06-27 11:44:55.081,994.46,994.48,1.67,1.71,0.00,0.69,-0.11,9.73,-0.00,-0.02,-0.00,0
2026-06-27 11:44:55.084,994.46,994.48,1.67,1.71,0.00,0.69,-0.11,9.73,-0.00,-0.02,-0.00,0
2026-06-27 11:44:55.225,994.44,994.47,2.99,2.29,0.00,0.92,-0.12,9.69,-0.00,-0.03,-0.00,0
2026-06-27 11:44:55.227,994.44,994.47,2.99,2.29,0.00,0.92,-0.12,9.69,-0.00,-0.03,-0.00,0
2026-06-27 11:44:55.234,994.44,994.47,2.99,2.29,0.00,0.92,-0.12,9.69,-0.00,-0.03,-0.00,0
2026-06-27 11:44:55.236,994.44,994.47,2.99,2.29,0.00,0.98,-0.08,9.66,-0.00,-0.02,-0.00,0
2026-06-27 11:44:55.237,994.44,994.47,2.99,2.29,0.00,0.98,-0.08,9.66,-0.00,-0.02,-0.00,0
2026-06-27 11:44:55.243,994.44,994.47,2.99,2.29,0.00,0.98,-0.08,9.66,-0.00,-0.02,-0.00,0
2026-06-27 11:44:55.245,994.44,994.47,2.99,2.29,0.00,1.06,-0.12,9.67,-0.00,-0.02,-0.00,0
2026-06-27 11:44:55.247,994.44,994.47,2.99,2.29,0.00,1.06,-0.12,9.67,-0.00,-0.02,-0.00,0
2026-06-27 11:44:55.248,994.44,994.47,2.99,2.29,0.00,1.06,-0.12,9.67,-0.00,-0.02,-0.00,0
2026-06-27 11:44:55.254,994.44,994.47,2.99,2.29,0.00,1.06,-0.12,9.67,-0.00,-0.02,-0.00,0
2026-06-27 11:44:55.256,994.44,994.47,2.99,2.29,0.00,1.08,-0.13,9.65,-0.00,-0.02,0.00,0
2026-06-27 11:44:55.257,994.44,994.47,2.99,2.29,0.00,1.08,-0.13,9.65,-0.00,-0.02,0.00,0
2026-06-27 11:44:55.263,994.44,994.47,2.99,2.29,0.00,1.08,-0.13,9.65,-0.00,-0.02,0.00,0
2026-06-27 11:44:55.404,994.46,994.46,0.17,0.55,0.00,1.03,-0.07,9.67,-0.00,-0.01,-0.00,0
2026-06-27 11:44:55.406,994.46,994.46,0.17,0.55,0.00,1.03,-0.06,9.66,-0.00,-0.01,-0.00,0
2026-06-27 11:44:55.410,994.46,994.46,0.17,0.55,0.00,1.03,-0.06,9.66,-0.00,-0.01,-0.00,0
2026-06-27 11:44:55.414,994.46,994.46,0.17,0.55,0.00,1.03,-0.06,9.66,-0.00,-0.01,0.00,0
2026-06-27 11:44:55.416,994.46,994.46,0.17,0.55,0.00,1.06,-0.04,9.65,-0.00,-0.01,0.00,0
2026-06-27 11:44:55.418,994.46,994.46,0.17,0.55,0.00,1.06,-0.04,9.65,-0.00,-0.01,0.00,0
2026-06-27 11:44:55.424,994.46,994.46,0.17,0.55,0.00,1.06,-0.04,9.65,-0.00,-0.01,0.00,0
2026-06-27 11:44:55.426,994.46,994.46,0.17,0.55,0.00,1.00,-0.05,9.64,-0.00,-0.01,-0.00,0
2026-06-27 11:44:55.428,994.46,994.46,0.17,0.55,0.00,1.00,-0.05,9.64,-0.00,-0.01,-0.00,0
2026-06-27 11:44:55.433,994.46,994.46,0.17,0.55,0.00,1.00,-0.05,9.64,-0.00,-0.01,-0.00,0
2026-06-27 11:44:55.436,994.46,994.46,0.17,0.55,0.00,1.01,-0.06,9.67,-0.00,-0.01,-0.00,0
2026-06-27 11:44:55.439,994.46,994.46,0.17,0.55,0.00,1.01,-0.06,9.67,-0.00,-0.01,-0.00,0
2026-06-27 11:44:55.584,994.44,994.46,2.24,1.98,0.00,1.04,-0.10,9.66,0.00,0.00,-0.00,0
2026-06-27 11:44:55.586,994.44,994.46,2.24,1.98,0.00,0.97,-0.09,9.67,0.00,0.00,0.00,0
2026-06-27 11:44:55.588,994.44,994.46,2.24,1.98,0.00,0.97,-0.09,9.67,0.00,0.00,0.00,0
2026-06-27 11:44:55.595,994.44,994.46,2.24,1.98,0.00,0.97,-0.09,9.67,0.00,0.00,0.00,0
2026-06-27 11:44:55.598,994.44,994.46,2.24,1.98,0.00,0.99,-0.09,9.67,0.00,0.00,0.00,0
2026-06-27 11:44:55.604,994.44,994.46,2.24,1.98,0.00,0.99,-0.09,9.67,0.00,0.00,0.00,0
2026-06-27 11:44:55.606,994.44,994.46,2.24,1.98,0.00,1.01,-0.09,9.67,0.00,0.00,0.00,0
2026-06-27 11:44:55.608,994.44,994.46,2.24,1.98,0.00,1.01,-0.09,9.67,0.00,0.00,0.00,0
2026-06-27 11:44:55.614,994.44,994.46,2.24,1.98,0.00,1.01,-0.09,9.67,0.00,0.00,0.00,0
2026-06-27 11:44:55.616,994.44,994.46,2.24,1.98,0.00,1.03,-0.11,9.66,0.00,0.00,-0.00,0
2026-06-27 11:44:55.756,994.46,994.46,0.52,0.95,0.00,0.99,-0.16,9.67,0.00,-0.00,-0.00,0
2026-06-27 11:44:55.762,994.46,994.46,0.52,0.95,0.00,1.00,-0.18,9.65,0.00,-0.00,-0.00,0
2026-06-27 11:44:55.766,994.46,994.46,0.52,0.95,0.00,1.00,-0.18,9.65,0.00,0.00,-0.00,0
2026-06-27 11:44:55.768,994.46,994.46,0.52,0.95,0.00,1.06,-0.17,9.65,0.00,0.00,-0.00,0
2026-06-27 11:44:55.772,994.46,994.46,0.52,0.95,0.00,1.06,-0.17,9.65,0.00,0.00,-0.00,0
2026-06-27 11:44:55.776,994.46,994.46,0.52,0.95,0.00,1.06,-0.17,9.65,-0.00,-0.00,0.00,0
2026-06-27 11:44:55.778,994.46,994.46,0.52,0.95,0.00,1.02,-0.17,9.66,-0.00,-0.00,0.00,0
2026-06-27 11:44:55.782,994.46,994.46,0.52,0.95,0.00,1.02,-0.17,9.66,-0.00,-0.00,0.00,0
2026-06-27 11:44:55.787,994.46,994.46,0.52,0.95,0.00,1.02,-0.17,9.66,-0.00,-0.00,-0.00,0
2026-06-27 11:44:55.791,994.46,994.46,0.52,0.95,0.00,0.98,-0.17,9.68,-0.00,-0.00,-0.00,0
