timestamp,pressure_bag,pressure_bme,diff_pressure,v_wind_est,speed,accel_x,accel_y,accel_z,gyro_x,gyro_y,gyro_z,power
2026-06-26 17:50:36.004,994.30,994.38,7.63,3.66,0.00,1.01,0.27,9.27,-0.00,0.00,0.00,0.00
2026-06-26 17:50:36.006,994.30,994.38,7.63,3.66,0.00,1.03,0.26,9.27,-0.00,-0.00,-0.00,0.00
2026-06-26 17:50:36.008,994.30,994.38,7.63,3.66,0.00,1.03,0.26,9.27,-0.00,-0.00,-0.00,0.00
2026-06-26 17:50:36.014,994.30,994.38,7.63,3.66,0.00,1.03,0.26,9.27,-0.00,-0.00,-0.00,0.00
2026-06-26 17:50:36.033,994.30,994.38,7.63,3.66,0.00,1.03,0.28,9.25,-0.00,-0.00,0.00,0.00
2026-06-26 17:50:36.038,994.30,994.38,7.63,3.66,0.00,1.01,0.28,9.27,-0.00,0.00,0.00,0.00
2026-06-26 17:50:36.085,994.30,994.38,7.93,3.73,0.00,1.02,0.30,9.30,0.00,0.00,0.00,0.00
2026-06-26 17:50:36.086,994.30,994.38,7.93,3.73,0.00,1.02,0.27,9.28,0.00,0.00,0.00,0.00
2026-06-26 17:50:36.087,994.30,994.38,7.93,3.73,0.00,1.02,0.27,9.28,0.00,0.00,0.00,0.00
2026-06-26 17:50:36.089,994.30,994.38,7.93,3.73,0.00,1.02,0.27,9.28,0.00,0.00,0.00,0.00
2026-06-26 17:50:36.090,994.30,994.38,7.93,3.73,0.00,1.02,0.27,9.28,0.00,0.00,0.00,0.00
2026-06-26 17:50:36.094,994.30,994.38,7.93,3.73,0.00,1.02,0.27,9.28,0.00,0.00,0.00,0.00
2026-06-26 17:50:36.097,994.30,994.38,7.93,3.73,0.00,1.01,0.27,9.29,-0.00,-0.00,0.00,0.00
2026-06-26 17:50:36.137,994.30,994.38,8.16,3.79,0.00,1.04,0.27,9.28,-0.00,0.00,0.00,0.00
2026-06-26 17:50:36.139,994.30,994.38,8.16,3.79,0.00,1.04,0.27,9.28,-0.00,0.00,0.00,0.00
2026-06-26 17:50:36.140,994.30,994.38,8.16,3.79,0.00,1.04,0.27,9.28,-0.00,0.00,0.00,0.00
2026-06-26 17:50:36.146,994.30,994.38,8.16,3.79,0.00,1.04,0.27,9.28,0.00,0.00,0.00,0.00
2026-06-26 17:50:36.148,994.30,994.38,8.16,3.79,0.00,1.02,0.29,9.28,0.00,0.00,0.00,0.00
2026-06-26 17:50:36.154,994.30,994.38,8.16,3.79,0.00,1.02,0.29,9.28,0.00,0.00,0.00,0.00
2026-06-26 17:50:36.156,994.30,994.38,8.16,3.79,0.00,1.01,0.27,9.28,0.00,0.00,-0.00,0.00
2026-06-26 17:50:36.158,994.30,994.38,8.16,3.79,0.00,1.01,0.27,9.28,0.00,0.00,-0.00,0.00
2026-06-26 17:50:36.159,994.30,994.38,8.16,3.79,0.00,1.01,0.27,9.28,0.00,0.00,-0.00,0.00
2026-06-26 17:50:36.165,994.30,994.38,8.16,3.79,0.00,1.01,0.27,9.28,0.00,0.00,-0.00,0.00
2026-06-26 17:50:36.169,994.30,994.38,8.16,3.79,0.00,1.02,0.26,9.24,0.00,0.00,-0.00,0.00
2026-06-26 17:50:36.175,994.30,994.38,8.16,3.79,0.00,1.02,0.26,9.24,0.00,0.00,-0.00,0.00
2026-06-26 17:50:36.178,994.30,994.38,8.16,3.79,0.00,1.02,0.29,9.27,0.00,0.00,-0.00,0.00
2026-06-26 17:50:36.185,994.30,994.38,8.16,3.79,0.00,1.02,0.29,9.27,0.00,0.00,-0.00,0.00
2026-06-26 17:50:36.232,994.30,994.38,7.62,3.66,0.00,1.03,0.28,9.25,-0.00,0.00,0.00,0.00
2026-06-26 17:50:36.235,994.30,994.38,7.62,3.66,0.00,1.03,0.28,9.25,0.00,-0.00,-0.00,0.00
2026-06-26 17:50:36.237,994.30,994.38,7.62,3.66,0.00,1.03,0.28,9.27,0.00,-0.00,-0.00,0.00
2026-06-26 17:50:36.285,994.30,994.38,7.72,3.68,0.00,1.01,0.28,9.27,0.00,0.00,0.00,0.00
2026-06-26 17:50:36.287,994.30,994.38,7.72,3.68,0.00,1.01,0.29,9.30,-0.00,0.00,0.00,0.00
2026-06-26 17:50:36.289,994.30,994.38,7.72,3.68,0.00,1.01,0.29,9.30,-0.00,0.00,0.00,0.00
2026-06-26 17:50:36.292,994.30,994.38,7.72,3.68,0.00,1.01,0.29,9.30,-0.00,0.00,0.00,0.00
2026-06-26 17:50:36.295,994.30,994.38,7.72,3.68,0.00,1.01,0.29,9.30,-0.00,-0.00,0.00,0.00
2026-06-26 17:50:36.297,994.30,994.38,7.72,3.68,0.00,1.01,0.28,9.27,-0.00,-0.00,0.00,0.00
2026-06-26 17:50:36.298,994.30,994.38,7.72,3.68,0.00,1.01,0.28,9.27,-0.00,-0.00,0.00,0.00
2026-06-26 17:50:36.299,994.30,994.38,7.72,3.68,0.00,1.01,0.28,9.27,-0.00,-0.00,0.00,0.00
2026-06-26 17:50:36.305,994.30,994.38,7.72,3.68,0.00,1.01,0.28,9.27,-0.00,-0.00,0.00,0.00
2026-06-26 17:50:36.310,994.30,994.38,7.72,3.68,0.00,1.02,0.27,9.26,-0.00,-0.00,-0.00,0.00
2026-06-26 17:50:36.316,994.30,994.38,7.72,3.68,0.00,1.02,0.27,9.26,-0.00,0.00,0.00,0.00
2026-06-26 17:50:36.318,994.30,994.38,7.72,3.68,0.00,1.01,0.28,9.24,-0.00,0.00,0.00,0.00
2026-06-26 17:50:36.320,994.30,994.38,7.72,3.68,0.00,1.01,0.28,9.24,-0.00,0.00,0.00,0.00
2026-06-26 17:50:36.325,994.30,994.38,7.72,3.68,0.00,1.01,0.28,9.24,0.00,-0.00,-0.00,0.00
2026-06-26 17:50:36.330,994.30,994.38,7.72,3.68,0.00,1.01,0.30,9.26,0.00,-0.00,-0.00,0.00
2026-06-26 17:50:36.368,994.30,994.38,7.98,3.74,0.00,1.02,0.28,9.26,-0.00,0.00,-0.00,0.00
2026-06-26 17:50:36.369,994.30,994.38,7.98,3.74,0.00,1.02,0.28,9.26,-0.00,0.00,-0.00,0.00
2026-06-26 17:50:36.375,994.30,994.38,7.98,3.74,0.00,1.02,0.28,9.26,-0.00,0.00,-0.00,0.00
2026-06-26 17:50:36.377,994.30,994.38,7.98,3.74,0.00,1.01,0.29,9.28,0.00,-0.00,0.00,0.00
2026-06-26 17:50:36.418,994.30,994.38,7.81,3.70,0.00,1.03,0.27,9.25,-0.00,-0.00,0.00,0.00
2026-06-26 17:50:36.420,994.30,994.38,7.81,3.70,0.00,1.03,0.27,9.25,-0.00,-0.00,0.00,0.00
2026-06-26 17:50:36.424,994.30,994.38,7.81,3.70,0.00,1.03,0.27,9.25,-0.00,-0.00,0.00,0.00
2026-06-26 17:50:36.426,994.30,994.38,7.81,3.70,0.00,1.04,0.28,9.27,-0.00,0.00,0.00,0.00
2026-06-26 17:50:36.428,994.30,994.38,7.81,3.70,0.00,1.04,0.28,9.27,-0.00,0.00,0.00,0.00
2026-06-26 17:50:36.430,994.30,994.38,7.81,3.70,0.00,1.04,0.28,9.27,-0.00,0.00,0.00,0.00
2026-06-26 17:50:36.435,994.30,994.38,7.81,3.70,0.00,1.04,0.28,9.27,-0.00,0.00,0.00,0.00
2026-06-26 17:50:36.437,994.30,994.38,7.81,3.70,0.00,1.02,0.27,9.25,0.00,-0.00,0.00,0.00
2026-06-26 17:50:36.438,994.30,994.38,7.81,3.70,0.00,1.02,0.27,9.25,0.00,-0.00,0.00,0.00
2026-06-26 17:50:36.440,994.30,994.38,7.81,3.70,0.00,1.02,0.27,9.25,0.00,-0.00,0.00,0.00
2026-06-26 17:50:36.441,994.30,994.38,7.81,3.70,0.00,1.02,0.27,9.25,0.00,-0.00,0.00,0.00
2026-06-26 17:50:36.446,994.30,994.38,7.81,3.70,0.00,1.02,0.27,9.25,-0.00,0.00,0.00,0.00
2026-06-26 17:50:36.455,994.30,994.38,7.81,3.70,0.00,1.04,0.27,9.28,-0.00,0.00,0.00,0.00
2026-06-26 17:50:36.457,994.30,994.38,7.81,3.70,0.00,1.00,0.30,9.27,0.00,0.00,-0.00,0.00
2026-06-26 17:50:36.459,994.30,994.38,7.81,3.70,0.00,1.00,0.30,9.27,0.00,0.00,-0.00,0.00
2026-06-26 17:50:36.465,994.30,994.38,7.81,3.70,0.00,1.00,0.30,9.27,0.00,0.00,-0.00,0.00
2026-06-26 17:50:36.467,994.30,994.38,7.81,3.70,0.00,1.02,0.28,9.26,-0.00,0.00,0.00,0.00
2026-06-26 17:50:36.508,994.30,994.38,7.59,3.65,0.00,1.02,0.28,9.24,0.00,-0.00,-0.00,0.00
2026-06-26 17:50:36.510,994.30,994.38,7.59,3.65,0.00,1.02,0.28,9.24,0.00,-0.00,-0.00,0.00
2026-06-26 17:50:36.515,994.30,994.38,7.59,3.65,0.00,1.02,0.28,9.24,0.00,-0.00,-0.00,0.00
2026-06-26 17:50:36.517,994.30,994.38,7.59,3.65,0.00,1.01,0.30,9.24,0.00,-0.00,0.00,0.00
2026-06-26 17:50:36.518,994.30,994.38,7.59,3.65,0.00,1.01,0.30,9.24,0.00,-0.00,0.00,0.00
2026-06-26 17:50:36.562,994.30,994.38,7.76,3.69,0.00,1.01,0.29,9.28,-0.00,0.00,0.00,0.00
2026-06-26 17:50:36.566,994.30,994.38,7.76,3.69,0.00,1.01,0.29,9.28,-0.00,-0.00,0.00,0.00
2026-06-26 17:50:36.567,994.30,994.38,7.76,3.69,0.00,1.03,0.30,9.22,-0.00,-0.00,0.00,0.00
2026-06-26 17:50:36.568,994.30,994.38,7.76,3.69,0.00,1.03,0.30,9.22,-0.00,-0.00,0.00,0.00
2026-06-26 17:50:36.569,994.30,994.38,7.76,3.69,0.00,1.03,0.30,9.22,-0.00,-0.00,0.00,0.00
2026-06-26 17:50:36.572,994.30,994.38,7.76,3.69,0.00,1.03,0.30,9.22,-0.00,-0.00,0.00,0.00
2026-06-26 17:50:36.576,994.30,994.38,7.76,3.69,0.00,1.03,0.30,9.22,-0.00,-0.00,0.00,0.00
2026-06-26 17:50:36.577,994.30,994.38,7.76,3.69,0.00,1.02,0.27,9.26,-0.00,-0.00,0.00,0.00
2026-06-26 17:50:36.578,994.30,994.38,7.76,3.69,0.00,1.02,0.27,9.26,-0.00,-0.00,0.00,0.00
2026-06-26 17:50:36.579,994.30,994.38,7.76,3.69,0.00,1.02,0.27,9.26,-0.00,-0.00,0.00,0.00
2026-06-26 17:50:36.581,994.30,994.38,7.76,3.69,0.00,1.02,0.27,9.26,-0.00,-0.00,0.00,0.00
2026-06-26 17:50:36.586,994.30,994.38,7.76,3.69,0.00,1.02,0.27,9.26,-0.00,0.00,0.00,0.00
2026-06-26 17:50:36.587,994.30,994.38,7.76,3.69,0.00,1.02,0.29,9.29,-0.00,0.00,0.00,0.00
2026-06-26 17:50:36.589,994.30,994.38,7.76,3.69,0.00,1.02,0.29,9.29,-0.00,0.00,0.00,0.00
2026-06-26 17:50:36.590,994.30,994.38,7.76,3.69,0.00,1.02,0.29,9.29,-0.00,0.00,0.00,0.00
2026-06-26 17:50:36.591,994.30,994.38,7.76,3.69,0.00,1.02,0.29,9.29,-0.00,0.00,0.00,0.00
2026-06-26 17:50:36.592,994.30,994.38,7.76,3.69,0.00,1.02,0.29,9.29,-0.00,0.00,0.00,0.00
2026-06-26 17:50:36.593,994.30,994.38,7.76,3.69,0.00,1.02,0.29,9.29,-0.00,0.00,0.00,0.00
2026-06-26 17:50:36.595,994.30,994.38,7.76,3.69,0.00,1.02,0.29,9.29,-0.00,0.00,0.00,0.00
2026-06-26 17:50:36.596,994.30,994.38,7.76,3.69,0.00,1.01,0.29,9.28,0.00,-0.00,0.00,0.00
2026-06-26 17:50:36.598,994.30,994.38,7.76,3.69,0.00,1.01,0.29,9.28,0.00,-0.00,0.00,0.00
2026-06-26 17:50:36.600,994.30,994.38,7.76,3.69,0.00,1.01,0.29,9.28,0.00,-0.00,0.00,0.00
2026-06-26 17:50:36.606,994.30,994.38,7.76,3.69,0.00,1.01,0.29,9.28,0.00,-0.00,0.00,0.00
2026-06-26 17:50:36.608,994.30,994.38,7.76,3.69,0.00,1.02,0.27,9.29,0.00,-0.00,0.00,0.00
2026-06-26 17:50:36.648,994.30,994.39,9.12,4.00,0.00,1.02,0.29,9.30,-0.00,0.00,0.00,0.00
2026-06-26 17:50:36.649,994.30,994.39,9.12,4.00,0.00,1.02,0.29,9.30,-0.00,0.00,0.00,0.00
2026-06-26 17:50:36.650,994.30,994.39,9.12,4.00,0.00,1.02,0.29,9.30,-0.00,0.00,0.00,0.00
2026-06-26 17:50:36.656,994.30,994.39,9.12,4.00,0.00,1.02,0.29,9.30,-0.00,0.00,0.00,0.00
2026-06-26 17:50:36.657,994.30,994.39,9.12,4.00,0.00,1.01,0.27,9.29,0.00,-0.00,-0.00,0.00
2026-06-26 17:50:36.658,994.30,994.39,9.12,4.00,0.00,1.01,0.27,9.29,0.00,-0.00,-0.00,0.00
2026-06-26 17:50:36.660,994.30,994.39,9.12,4.00,0.00,1.01,0.27,9.29,0.00,-0.00,-0.00,0.00
2026-06-26 17:50:36.706,994.30,994.39,9.57,4.10,0.00,1.02,0.28,9.30,-0.00,0.00,0.00,0.00
2026-06-26 17:50:36.707,994.30,994.39,9.57,4.10,0.00,1.01,0.28,9.25,0.00,0.00,-0.00,0.00
2026-06-26 17:50:36.709,994.30,994.39,9.57,4.10,0.00,1.01,0.28,9.25,0.00,0.00,-0.00,0.00
2026-06-26 17:50:36.710,994.30,994.39,9.57,4.10,0.00,1.01,0.28,9.25,0.00,0.00,-0.00,0.00
2026-06-26 17:50:36.716,994.30,994.39,9.57,4.10,0.00,1.01,0.28,9.25,0.00,0.00,-0.00,0.00
2026-06-26 17:50:36.719,994.30,994.39,9.57,4.10,0.00,1.01,0.31,9.27,0.00,0.00,0.00,0.00
2026-06-26 17:50:36.721,994.30,994.39,9.57,4.10,0.00,1.01,0.31,9.27,0.00,0.00,0.00,0.00
2026-06-26 17:50:36.724,994.30,994.39,9.57,4.10,0.00,1.01,0.31,9.27,0.00,0.00,0.00,0.00
2026-06-26 17:50:36.726,994.30,994.39,9.57,4.10,0.00,1.01,0.28,9.28,0.00,-0.00,-0.00,0.00
2026-06-26 17:50:36.728,994.30,994.39,9.57,4.10,0.00,1.01,0.28,9.28,0.00,-0.00,-0.00,0.00
2026-06-26 17:50:36.729,994.30,994.39,9.57,4.10,0.00,1.01,0.28,9.28,0.00,-0.00,-0.00,0.00
2026-06-26 17:50:36.731,994.30,994.39,9.57,4.10,0.00,1.01,0.28,9.28,0.00,-0.00,-0.00,0.00
2026-06-26 17:50:36.736,994.30,994.39,9.57,4.10,0.00,1.01,0.28,9.28,0.00,-0.00,0.00,0.00
2026-06-26 17:50:36.738,994.30,994.39,9.57,4.10,0.00,0.98,0.29,9.29,0.00,-0.00,0.00,0.00
2026-06-26 17:50:36.739,994.30,994.39,9.57,4.10,0.00,0.98,0.29,9.29,0.00,-0.00,0.00,0.00
2026-06-26 17:50:36.742,994.30,994.39,9.57,4.10,0.00,0.98,0.29,9.29,0.00,-0.00,0.00,0.00
2026-06-26 17:50:36.744,994.30,994.39,9.57,4.10,0.00,0.98,0.29,9.29,0.00,-0.00,0.00,0.00
2026-06-26 17:50:36.746,994.30,994.39,9.57,4.10,0.00,0.98,0.29,9.29,-0.00,-0.00,-0.00,0.00
2026-06-26 17:50:36.788,994.30,994.39,9.10,4.00,0.00,1.03,0.30,9.27,0.00,-0.00,0.00,0.00
2026-06-26 17:50:36.790,994.30,994.39,9.10,4.00,0.00,1.01,0.29,9.28,0.00,-0.00,0.00,0.00
2026-06-26 17:50:36.792,994.30,994.39,9.10,4.00,0.00,1.01,0.29,9.28,0.00,-0.00,0.00,0.00
2026-06-26 17:50:36.793,994.30,994.39,9.10,4.00,0.00,1.01,0.29,9.28,0.00,-0.00,0.00,0.00
2026-06-26 17:50:36.796,994.30,994.39,9.10,4.00,0.00,1.01,0.29,9.28,-0.00,0.00,-0.00,0.00
2026-06-26 17:50:36.798,994.30,994.39,9.10,4.00,0.00,1.02,0.28,9.27,-0.00,0.00,-0.00,0.00
2026-06-26 17:50:36.801,994.30,994.39,9.10,4.00,0.00,1.02,0.28,9.27,-0.00,0.00,-0.00,0.00
2026-06-26 17:50:36.843,994.29,994.39,9.58,4.10,0.00,1.01,0.28,9.27,0.00,0.00,-0.00,0.00
2026-06-26 17:50:36.846,994.29,994.39,9.58,4.10,0.00,1.01,0.28,9.27,0.00,0.00,0.00,0.00
2026-06-26 17:50:36.848,994.29,994.39,9.58,4.10,0.00,1.02,0.29,9.29,0.00,0.00,0.00,0.00
2026-06-26 17:50:36.849,994.29,994.39,9.58,4.10,0.00,1.02,0.29,9.29,0.00,0.00,0.00,0.00
2026-06-26 17:50:36.850,994.29,994.39,9.58,4.10,0.00,1.02,0.29,9.29,0.00,0.00,0.00,0.00
2026-06-26 17:50:36.856,994.29,994.39,9.58,4.10,0.00,1.02,0.29,9.29,0.00,0.00,0.00,0.00
2026-06-26 17:50:36.858,994.29,994.39,9.58,4.10,0.00,1.02,0.30,9.27,0.00,0.00,0.00,0.00
2026-06-26 17:50:36.859,994.29,994.39,9.58,4.10,0.00,1.02,0.30,9.27,0.00,0.00,0.00,0.00
2026-06-26 17:50:36.861,994.29,994.39,9.58,4.10,0.00,1.02,0.30,9.27,0.00,0.00,0.00,0.00
2026-06-26 17:50:36.866,994.29,994.39,9.58,4.10,0.00,1.02,0.30,9.27,0.00,0.00,0.00,0.00
2026-06-26 17:50:36.868,994.29,994.39,9.58,4.10,0.00,1.01,0.28,9.27,0.00,0.00,-0.00,0.00
2026-06-26 17:50:36.876,994.29,994.39,9.58,4.10,0.00,1.01,0.28,9.27,0.00,0.00,-0.00,0.00
2026-06-26 17:50:36.878,994.29,994.39,9.58,4.10,0.00,1.01,0.30,9.29,0.00,0.00,0.00,0.00
2026-06-26 17:50:36.880,994.29,994.39,9.58,4.10,0.00,1.01,0.30,9.29,0.00,0.00,0.00,0.00
2026-06-26 17:50:36.886,994.29,994.39,9.58,4.10,0.00,1.01,0.30,9.29,0.00,0.00,0.00,0.00
2026-06-26 17:50:36.927,994.29,994.38,9.20,4.02,0.00,1.02,0.30,9.27,0.00,0.00,-0.00,0.00
2026-06-26 17:50:36.929,994.29,994.38,9.20,4.02,0.00,1.01,0.29,9.27,0.00,0.00,-0.00,0.00
2026-06-26 17:50:36.932,994.29,994.38,9.20,4.02,0.00,1.01,0.29,9.27,0.00,0.00,-0.00,0.00
2026-06-26 17:50:36.937,994.29,994.38,9.20,4.02,0.00,1.01,0.29,9.27,0.00,0.00,0.00,0.00
2026-06-26 17:50:36.938,994.29,994.38,9.20,4.02,0.00,1.03,0.27,9.28,0.00,0.00,0.00,0.00
2026-06-26 17:50:36.939,994.29,994.38,9.20,4.02,0.00,1.03,0.27,9.28,0.00,0.00,0.00,0.00
2026-06-26 17:50:36.940,994.29,994.38,9.20,4.02,0.00,1.03,0.27,9.28,0.00,0.00,0.00,0.00
2026-06-26 17:50:36.942,994.29,994.38,9.20,4.02,0.00,1.03,0.27,9.28,0.00,0.00,0.00,0.00
2026-06-26 17:50:36.987,994.29,994.38,8.98,3.97,0.00,1.02,0.30,9.26,0.00,0.00,0.00,0.00
2026-06-26 17:50:36.988,994.29,994.38,8.98,3.97,0.00,1.01,0.28,9.28,0.00,-0.00,0.00,0.00
2026-06-26 17:50:36.990,994.29,994.38,8.98,3.97,0.00,1.01,0.28,9.28,0.00,-0.00,0.00,0.00
2026-06-26 17:50:36.991,994.29,994.38,8.98,3.97,0.00,1.01,0.28,9.28,0.00,-0.00,0.00,0.00
2026-06-26 17:50:36.993,994.29,994.38,8.98,3.97,0.00,1.01,0.28,9.28,0.00,-0.00,0.00,0.00
2026-06-26 17:50:36.996,994.29,994.38,8.98,3.97,0.00,1.01,0.28,9.28,0.00,-0.00,0.00,0.00
2026-06-26 17:50:36.997,994.29,994.38,8.98,3.97,0.00,1.03,0.30,9.30,0.00,0.00,-0.00,0.00
2026-06-26 17:50:36.999,994.29,994.38,8.98,3.97,0.00,1.03,0.30,9.30,0.00,0.00,-0.00,0.00
2026-06-26 17:50:36.000,994.29,994.38,8.98,3.97,0.00,1.03,0.30,9.30,0.00,0.00,-0.00,0.00
2026-06-26 17:50:36.001,994.29,994.38,8.98,3.97,0.00,1.03,0.30,9.30,0.00,0.00,-0.00,0.00
2026-06-26 17:50:37.006,994.29,994.38,8.98,3.97,0.00,1.03,0.30,9.30,0.00,0.00,-0.00,0.00
2026-06-26 17:50:37.008,994.29,994.38,8.98,3.97,0.00,1.01,0.27,9.29,0.00,0.00,0.00,0.00
2026-06-26 17:50:37.010,994.29,994.38,8.98,3.97,0.00,1.01,0.27,9.29,0.00,0.00,0.00,0.00
2026-06-26 17:50:37.013,994.29,994.38,8.98,3.97,0.00,1.01,0.27,9.29,0.00,0.00,0.00,0.00
2026-06-26 17:50:37.017,994.29,994.38,8.98,3.97,0.00,1.01,0.27,9.29,-0.00,0.00,-0.00,0.00
2026-06-26 17:50:37.018,994.29,994.38,8.98,3.97,0.00,1.02,0.27,9.29,-0.00,0.00,-0.00,0.00
2026-06-26 17:50:37.020,994.29,994.38,8.98,3.97,0.00,1.02,0.27,9.29,-0.00,0.00,-0.00,0.00
2026-06-26 17:50:37.021,994.29,994.38,8.98,3.97,0.00,1.02,0.27,9.29,-0.00,0.00,-0.00,0.00
2026-06-26 17:50:37.025,994.29,994.38,8.98,3.97,0.00,1.02,0.27,9.29,-0.00,0.00,-0.00,0.00
2026-06-26 17:50:37.067,994.29,994.38,8.54,3.87,0.00,1.01,0.27,9.25,-0.00,0.00,0.00,0.00
2026-06-26 17:50:37.069,994.29,994.38,8.54,3.87,0.00,1.01,0.27,9.25,-0.00,0.00,0.00,0.00
2026-06-26 17:50:37.070,994.29,994.38,8.54,3.87,0.00,1.01,0.27,9.25,-0.00,0.00,0.00,0.00
2026-06-26 17:50:37.074,994.29,994.38,8.54,3.87,0.00,1.01,0.27,9.25,-0.00,0.00,0.00,0.00
2026-06-26 17:50:37.077,994.29,994.38,8.54,3.87,0.00,1.01,0.30,9.27,-0.00,0.00,-0.00,0.00
2026-06-26 17:50:37.079,994.29,994.38,8.54,3.87,0.00,1.01,0.30,9.27,-0.00,0.00,-0.00,0.00
2026-06-26 17:50:37.082,994.29,994.38,8.54,3.87,0.00,1.01,0.30,9.27,-0.00,0.00,-0.00,0.00
2026-06-26 17:50:37.127,994.30,994.38,8.08,3.77,0.00,1.00,0.28,9.29,0.00,0.00,0.00,0.00
2026-06-26 17:50:37.128,994.30,994.38,8.08,3.77,0.00,1.01,0.28,9.29,0.00,0.00,0.00,0.00
2026-06-26 17:50:37.129,994.30,994.38,8.08,3.77,0.00,1.01,0.28,9.29,0.00,0.00,0.00,0.00
2026-06-26 17:50:37.130,994.30,994.38,8.08,3.77,0.00,1.01,0.28,9.29,0.00,0.00,0.00,0.00
2026-06-26 17:50:37.134,994.30,994.38,8.08,3.77,0.00,1.01,0.28,9.29,0.00,0.00,0.00,0.00
2026-06-26 17:50:37.137,994.30,994.38,8.08,3.77,0.00,1.01,0.28,9.29,0.00,0.00,-0.00,0.00
2026-06-26 17:50:37.139,994.30,994.38,8.08,3.77,0.00,1.03,0.28,9.29,0.00,0.00,-0.00,0.00
2026-06-26 17:50:37.141,994.30,994.38,8.08,3.77,0.00,1.03,0.28,9.29,0.00,0.00,-0.00,0.00
2026-06-26 17:50:37.143,994.30,994.38,8.08,3.77,0.00,1.03,0.28,9.29,0.00,0.00,-0.00,0.00
2026-06-26 17:50:37.147,994.30,994.38,8.08,3.77,0.00,1.03,0.28,9.29,0.00,0.00,-0.00,0.00
2026-06-26 17:50:37.150,994.30,994.38,8.08,3.77,0.00,1.01,0.26,9.28,0.00,-0.00,0.00,0.00
2026-06-26 17:50:37.156,994.30,994.38,8.08,3.77,0.00,1.01,0.26,9.28,0.00,-0.00,0.00,0.00
2026-06-26 17:50:37.158,994.30,994.38,8.08,3.77,0.00,1.02,0.30,9.30,0.00,-0.00,0.00,0.00
2026-06-26 17:50:37.159,994.30,994.38,8.08,3.77,0.00,1.02,0.30,9.30,0.00,-0.00,0.00,0.00
2026-06-26 17:50:37.160,994.30,994.38,8.08,3.77,0.00,1.02,0.30,9.30,0.00,-0.00,0.00,0.00
2026-06-26 17:50:37.163,994.30,994.38,8.08,3.77,0.00,1.02,0.30,9.30,0.00,-0.00,0.00,0.00
2026-06-26 17:50:37.167,994.30,994.38,8.08,3.77,0.00,1.02,0.30,9.30,0.00,-0.00,0.00,0.00
2026-06-26 17:50:37.210,994.30,994.37,7.19,3.55,0.00,1.01,0.28,9.26,0.00,0.00,-0.00,0.00
2026-06-26 17:50:37.216,994.30,994.37,7.19,3.55,0.00,1.01,0.28,9.26,0.00,0.00,-0.00,0.00
2026-06-26 17:50:37.218,994.30,994.37,7.19,3.55,0.00,1.03,0.29,9.30,-0.00,0.00,0.00,0.00
2026-06-26 17:50:37.219,994.30,994.37,7.19,3.55,0.00,1.03,0.29,9.30,-0.00,0.00,0.00,0.00
2026-06-26 17:50:37.222,994.30,994.37,7.19,3.55,0.00,1.03,0.29,9.30,-0.00,0.00,0.00,0.00
2026-06-26 17:50:37.227,994.30,994.37,7.19,3.55,0.00,1.03,0.29,9.30,-0.00,0.00,0.00,0.00
2026-06-26 17:50:37.268,994.31,994.37,6.57,3.40,0.00,1.02,0.28,9.25,0.00,0.00,0.00,0.00
2026-06-26 17:50:37.269,994.31,994.37,6.57,3.40,0.00,1.02,0.28,9.25,0.00,0.00,0.00,0.00
2026-06-26 17:50:37.271,994.31,994.37,6.57,3.40,0.00,1.02,0.28,9.25,0.00,0.00,0.00,0.00
2026-06-26 17:50:37.277,994.31,994.37,6.57,3.40,0.00,1.02,0.28,9.25,0.00,0.00,0.00,0.00
2026-06-26 17:50:37.278,994.31,994.37,6.57,3.40,0.00,1.01,0.30,9.25,-0.00,0.00,-0.00,0.00
2026-06-26 17:50:37.280,994.31,994.37,6.57,3.40,0.00,1.01,0.30,9.25,-0.00,0.00,-0.00,0.00
2026-06-26 17:50:37.281,994.31,994.37,6.57,3.40,0.00,1.01,0.30,9.25,-0.00,0.00,-0.00,0.00
2026-06-26 17:50:37.284,994.31,994.37,6.57,3.40,0.00,1.01,0.30,9.25,-0.00,0.00,-0.00,0.00
2026-06-26 17:50:37.291,994.31,994.37,6.57,3.40,0.00,1.01,0.30,9.25,-0.00,0.00,0.00,0.00
2026-06-26 17:50:37.293,994.31,994.37,6.57,3.40,0.00,1.01,0.26,9.27,-0.00,0.00,0.00,0.00
2026-06-26 17:50:37.297,994.31,994.37,6.57,3.40,0.00,1.01,0.26,9.27,0.00,0.00,-0.00,0.00
2026-06-26 17:50:37.299,994.31,994.37,6.57,3.40,0.00,1.02,0.29,9.30,0.00,0.00,-0.00,0.00
2026-06-26 17:50:37.301,994.31,994.37,6.57,3.40,0.00,1.02,0.29,9.30,0.00,0.00,-0.00,0.00
2026-06-26 17:50:37.306,994.31,994.37,6.57,3.40,0.00,1.02,0.29,9.30,0.00,0.00,-0.00,0.00
2026-06-26 17:50:37.308,994.31,994.37,6.57,3.40,0.00,1.00,0.27,9.27,-0.00,0.00,-0.00,0.00
2026-06-26 17:50:37.309,994.31,994.37,6.57,3.40,0.00,1.00,0.27,9.27,-0.00,0.00,-0.00,0.00
2026-06-26 17:50:37.353,994.31,994.36,5.69,3.16,0.00,1.01,0.28,9.29,0.00,-0.01,0.00,0.00
2026-06-26 17:50:37.357,994.31,994.36,5.69,3.16,0.00,1.01,0.28,9.29,-0.00,-0.00,0.00,0.00
2026-06-26 17:50:37.358,994.31,994.36,5.69,3.16,0.00,1.02,0.28,9.29,-0.00,-0.00,0.00,0.00
2026-06-26 17:50:37.360,994.31,994.36,5.69,3.16,0.00,1.02,0.28,9.29,-0.00,-0.00,0.00,0.00
2026-06-26 17:50:37.361,994.31,994.36,5.69,3.16,0.00,1.02,0.28,9.29,-0.00,-0.00,0.00,0.00
2026-06-26 17:50:37.364,994.31,994.36,5.69,3.16,0.00,1.02,0.28,9.29,-0.00,-0.00,0.00,0.00
2026-06-26 17:50:37.368,994.31,994.36,5.69,3.16,0.00,1.02,0.28,9.29,0.00,0.00,0.00,0.00
2026-06-26 17:50:37.411,994.30,994.36,6.22,3.30,0.00,1.01,0.29,9.28,0.00,0.00,-0.00,0.00
2026-06-26 17:50:37.415,994.30,994.36,6.22,3.30,0.00,1.01,0.29,9.28,0.00,0.00,-0.00,0.00
2026-06-26 17:50:37.418,994.30,994.36,6.22,3.30,0.00,1.01,0.29,9.28,0.00,-0.00,-0.00,0.00
2026-06-26 17:50:37.419,994.30,994.36,6.22,3.30,0.00,1.00,0.28,9.27,0.00,-0.00,-0.00,0.00
2026-06-26 17:50:37.420,994.30,994.36,6.22,3.30,0.00,1.00,0.28,9.27,0.00,-0.00,-0.00,0.00
2026-06-26 17:50:37.421,994.30,994.36,6.22,3.30,0.00,1.00,0.28,9.27,0.00,-0.00,-0.00,0.00
2026-06-26 17:50:37.423,994.30,994.36,6.22,3.30,0.00,1.00,0.28,9.27,0.00,-0.00,-0.00,0.00
2026-06-26 17:50:37.427,994.30,994.36,6.22,3.30,0.00,1.00,0.28,9.27,0.00,-0.00,-0.00,0.00
2026-06-26 17:50:37.428,994.30,994.36,6.22,3.30,0.00,1.02,0.28,9.28,0.00,-0.00,0.00,0.00
2026-06-26 17:50:37.430,994.30,994.36,6.22,3.30,0.00,1.02,0.28,9.28,0.00,-0.00,0.00,0.00
2026-06-26 17:50:37.431,994.30,994.36,6.22,3.30,0.00,1.02,0.28,9.28,0.00,-0.00,0.00,0.00
2026-06-26 17:50:37.437,994.30,994.36,6.22,3.30,0.00,1.02,0.28,9.28,0.00,-0.00,0.00,0.00
2026-06-26 17:50:37.439,994.30,994.36,6.22,3.30,0.00,1.00,0.27,9.28,0.00,0.00,0.00,0.00
2026-06-26 17:50:37.441,994.30,994.36,6.22,3.30,0.00,1.00,0.27,9.28,0.00,0.00,0.00,0.00
2026-06-26 17:50:37.442,994.30,994.36,6.22,3.30,0.00,1.00,0.27,9.28,0.00,0.00,0.00,0.00
2026-06-26 17:50:37.444,994.30,994.36,6.22,3.30,0.00,1.00,0.27,9.28,0.00,0.00,0.00,0.00
2026-06-26 17:50:37.447,994.30,994.36,6.22,3.30,0.00,1.00,0.27,9.28,0.00,0.00,0.00,0.00
2026-06-26 17:50:37.449,994.30,994.36,6.22,3.30,0.00,1.04,0.26,9.27,0.00,-0.00,0.00,0.00
2026-06-26 17:50:37.451,994.30,994.36,6.22,3.30,0.00,1.04,0.26,9.27,0.00,-0.00,0.00,0.00
2026-06-26 17:50:37.493,994.30,994.36,5.83,3.20,0.00,1.01,0.27,9.29,0.00,-0.00,0.00,0.00
2026-06-26 17:50:37.497,994.30,994.36,5.83,3.20,0.00,1.01,0.27,9.29,0.00,-0.00,0.00,0.00
2026-06-26 17:50:37.498,994.30,994.36,5.83,3.20,0.00,1.02,0.28,9.27,0.00,-0.00,-0.00,0.00
2026-06-26 17:50:37.500,994.30,994.36,5.83,3.20,0.00,1.02,0.28,9.27,0.00,-0.00,-0.00,0.00
2026-06-26 17:50:37.501,994.30,994.36,5.83,3.20,0.00,1.02,0.28,9.27,0.00,-0.00,-0.00,0.00
2026-06-26 17:50:37.502,994.30,994.36,5.83,3.20,0.00,1.02,0.28,9.27,0.00,-0.00,-0.00,0.00
2026-06-26 17:50:37.507,994.30,994.36,5.83,3.20,0.00,1.02,0.28,9.27,0.00,-0.00,-0.00,0.00
2026-06-26 17:50:37.509,994.30,994.36,5.83,3.20,0.00,1.02,0.27,9.27,0.00,-0.00,0.00,0.00
2026-06-26 17:50:37.510,994.30,994.36,5.83,3.20,0.00,1.02,0.27,9.27,0.00,-0.00,0.00,0.00
2026-06-26 17:50:37.550,994.29,994.36,7.12,3.54,0.00,1.02,0.27,9.28,-0.00,-0.00,0.00,0.00
2026-06-26 17:50:37.552,994.29,994.36,7.12,3.54,0.00,1.02,0.27,9.28,-0.00,-0.00,0.00,0.00
2026-06-26 17:50:37.558,994.29,994.36,7.12,3.54,0.00,1.02,0.27,9.28,-0.00,-0.00,0.00,0.00
2026-06-26 17:50:37.560,994.29,994.36,7.12,3.54,0.00,1.03,0.29,9.27,0.00,0.00,-0.00,0.00
2026-06-26 17:50:37.562,994.29,994.36,7.12,3.54,0.00,1.03,0.29,9.27,0.00,0.00,-0.00,0.00
2026-06-26 17:50:37.567,994.29,994.36,7.12,3.54,0.00,1.03,0.29,9.27,0.00,0.00,-0.00,0.00
2026-06-26 17:50:37.569,994.29,994.36,7.12,3.54,0.00,1.02,0.28,9.25,0.00,-0.00,-0.00,0.00
2026-06-26 17:50:37.570,994.29,994.36,7.12,3.54,0.00,1.02,0.28,9.25,0.00,-0.00,-0.00,0.00
2026-06-26 17:50:37.571,994.29,994.36,7.12,3.54,0.00,1.02,0.28,9.25,0.00,-0.00,-0.00,0.00
2026-06-26 17:50:37.577,994.29,994.36,7.12,3.54,0.00,1.02,0.28,9.25,0.00,-0.00,-0.00,0.00
2026-06-26 17:50:37.578,994.29,994.36,7.12,3.54,0.00,1.00,0.28,9.27,0.00,0.00,0.00,0.00
2026-06-26 17:50:37.580,994.29,994.36,7.12,3.54,0.00,1.00,0.28,9.27,0.00,0.00,0.00,0.00
2026-06-26 17:50:37.581,994.29,994.36,7.12,3.54,0.00,1.00,0.28,9.27,0.00,0.00,0.00,0.00
2026-06-26 17:50:37.582,994.29,994.36,7.12,3.54,0.00,1.00,0.28,9.27,0.00,0.00,0.00,0.00
2026-06-26 17:50:37.588,994.29,994.36,7.12,3.54,0.00,1.00,0.28,9.27,0.00,0.00,0.00,0.00
2026-06-26 17:50:37.592,994.29,994.36,7.12,3.54,0.00,1.01,0.30,9.28,0.00,-0.00,0.00,0.00
2026-06-26 17:50:37.636,994.29,994.36,7.04,3.52,0.00,1.02,0.30,9.28,0.00,0.00,0.00,0.00
2026-06-26 17:50:37.639,994.29,994.36,7.04,3.52,0.00,1.01,0.29,9.28,0.00,0.00,0.00,0.00
2026-06-26 17:50:37.640,994.29,994.36,7.04,3.52,0.00,1.01,0.29,9.28,0.00,0.00,0.00,0.00
2026-06-26 17:50:37.641,994.29,994.36,7.04,3.52,0.00,1.01,0.29,9.28,0.00,0.00,0.00,0.00
2026-06-26 17:50:37.642,994.29,994.36,7.04,3.52,0.00,1.01,0.29,9.28,0.00,0.00,0.00,0.00
2026-06-26 17:50:37.644,994.29,994.36,7.04,3.52,0.00,1.01,0.29,9.28,0.00,0.00,0.00,0.00
2026-06-26 17:50:37.645,994.29,994.36,7.04,3.52,0.00,1.01,0.29,9.28,0.00,0.00,0.00,0.00
2026-06-26 17:50:37.649,994.29,994.36,7.04,3.52,0.00,1.01,0.29,9.28,0.00,-0.00,0.00,0.00
2026-06-26 17:50:37.693,994.28,994.36,7.23,3.56,0.00,1.01,0.28,9.27,0.00,0.00,0.00,0.00
2026-06-26 17:50:37.695,994.28,994.36,7.23,3.56,0.00,1.01,0.28,9.27,0.00,0.00,0.00,0.00
2026-06-26 17:50:37.698,994.28,994.36,7.23,3.56,0.00,1.01,0.28,9.27,0.00,0.00,-0.00,0.00
2026-06-26 17:50:37.700,994.28,994.36,7.23,3.56,0.00,1.01,0.28,9.29,0.00,0.00,-0.00,0.00
2026-06-26 17:50:37.701,994.28,994.36,7.23,3.56,0.00,1.01,0.28,9.29,0.00,0.00,-0.00,0.00
2026-06-26 17:50:37.706,994.28,994.36,7.23,3.56,0.00,1.01,0.28,9.29,0.00,0.00,-0.00,0.00
2026-06-26 17:50:37.708,994.28,994.36,7.23,3.56,0.00,1.01,0.28,9.29,0.00,0.00,-0.00,0.00
2026-06-26 17:50:37.710,994.28,994.36,7.23,3.56,0.00,1.02,0.28,9.26,0.00,0.00,-0.00,0.00
2026-06-26 17:50:37.711,994.28,994.36,7.23,3.56,0.00,1.02,0.28,9.26,0.00,0.00,-0.00,0.00
2026-06-26 17:50:37.715,994.28,994.36,7.23,3.56,0.00,1.02,0.28,9.26,0.00,0.00,-0.00,0.00
2026-06-26 17:50:37.719,994.28,994.36,7.23,3.56,0.00,1.01,0.29,9.27,0.00,0.00,0.00,0.00
2026-06-26 17:50:37.720,994.28,994.36,7.23,3.56,0.00,1.01,0.29,9.27,0.00,0.00,0.00,0.00
2026-06-26 17:50:37.722,994.28,994.36,7.23,3.56,0.00,1.01,0.29,9.27,0.00,0.00,0.00,0.00
2026-06-26 17:50:37.723,994.28,994.36,7.23,3.56,0.00,1.01,0.29,9.27,0.00,0.00,0.00,0.00
2026-06-26 17:50:37.728,994.28,994.36,7.23,3.56,0.00,1.01,0.29,9.27,-0.00,0.00,0.00,0.00
2026-06-26 17:50:37.729,994.28,994.36,7.23,3.56,0.00,1.00,0.28,9.28,-0.00,0.00,0.00,0.00
2026-06-26 17:50:37.731,994.28,994.36,7.23,3.56,0.00,1.00,0.28,9.28,-0.00,0.00,0.00,0.00
2026-06-26 17:50:37.776,994.28,994.35,6.93,3.49,0.00,1.01,0.30,9.27,-0.00,0.00,0.00,0.00
2026-06-26 17:50:37.779,994.28,994.35,6.93,3.49,0.00,1.01,0.27,9.28,0.00,-0.00,0.00,0.00
2026-06-26 17:50:37.780,994.28,994.35,6.93,3.49,0.00,1.01,0.27,9.28,0.00,-0.00,0.00,0.00
2026-06-26 17:50:37.781,994.28,994.35,6.93,3.49,0.00,1.01,0.27,9.28,0.00,-0.00,0.00,0.00
2026-06-26 17:50:37.782,994.28,994.35,6.93,3.49,0.00,1.01,0.27,9.28,0.00,-0.00,0.00,0.00
2026-06-26 17:50:37.787,994.28,994.35,6.93,3.49,0.00,1.01,0.27,9.28,0.00,-0.00,0.00,0.00
2026-06-26 17:50:37.789,994.28,994.35,6.93,3.49,0.00,1.03,0.28,9.28,0.00,-0.00,0.00,0.00
2026-06-26 17:50:37.791,994.28,994.35,6.93,3.49,0.00,1.03,0.28,9.28,0.00,-0.00,0.00,0.00
2026-06-26 17:50:37.838,994.29,994.35,6.83,3.46,0.00,1.00,0.29,9.29,0.00,-0.00,0.00,0.00
2026-06-26 17:50:37.839,994.29,994.35,6.83,3.46,0.00,1.01,0.28,9.27,0.00,-0.00,-0.00,0.00
2026-06-26 17:50:37.841,994.29,994.35,6.83,3.46,0.00,1.01,0.28,9.27,0.00,-0.00,-0.00,0.00
2026-06-26 17:50:37.842,994.29,994.35,6.83,3.46,0.00,1.01,0.28,9.27,0.00,-0.00,-0.00,0.00
2026-06-26 17:50:37.848,994.29,994.35,6.83,3.46,0.00,1.01,0.28,9.27,0.00,-0.00,-0.00,0.00
2026-06-26 17:50:37.850,994.29,994.35,6.83,3.46,0.00,1.01,0.29,9.28,0.00,0.00,0.00,0.00
2026-06-26 17:50:37.851,994.29,994.35,6.83,3.46,0.00,1.01,0.29,9.28,0.00,0.00,0.00,0.00
2026-06-26 17:50:37.854,994.29,994.35,6.83,3.46,0.00,1.01,0.29,9.28,0.00,0.00,0.00,0.00
2026-06-26 17:50:37.858,994.29,994.35,6.83,3.46,0.00,1.01,0.29,9.28,0.00,0.00,0.00,0.00
2026-06-26 17:50:37.860,994.29,994.35,6.83,3.46,0.00,1.00,0.28,9.28,0.00,0.00,0.00,0.00
2026-06-26 17:50:37.861,994.29,994.35,6.83,3.46,0.00,1.00,0.28,9.28,0.00,0.00,0.00,0.00
2026-06-26 17:50:37.863,994.29,994.35,6.83,3.46,0.00,1.00,0.28,9.28,0.00,0.00,0.00,0.00
2026-06-26 17:50:37.868,994.29,994.35,6.83,3.46,0.00,1.00,0.28,9.28,0.00,0.00,0.00,0.00
2026-06-26 17:50:37.870,994.29,994.35,6.83,3.46,0.00,1.02,0.26,9.29,-0.00,0.00,0.00,0.00
2026-06-26 17:50:37.871,994.29,994.35,6.83,3.46,0.00,1.02,0.26,9.29,-0.00,0.00,0.00,0.00
2026-06-26 17:50:37.918,994.29,994.36,7.10,3.53,0.00,1.01,0.29,9.25,-0.00,0.00,0.00,0.00
2026-06-26 17:50:37.920,994.29,994.36,7.10,3.53,0.00,1.02,0.27,9.27,0.00,0.00,-0.00,0.00
2026-06-26 17:50:37.921,994.29,994.36,7.10,3.53,0.00,1.02,0.27,9.27,0.00,0.00,-0.00,0.00
2026-06-26 17:50:37.922,994.29,994.36,7.10,3.53,0.00,1.02,0.27,9.27,0.00,0.00,-0.00,0.00
2026-06-26 17:50:37.923,994.29,994.36,7.10,3.53,0.00,1.02,0.27,9.27,0.00,0.00,-0.00,0.00
2026-06-26 17:50:37.929,994.29,994.36,7.10,3.53,0.00,1.02,0.27,9.27,-0.00,-0.00,0.00,0.00
2026-06-26 17:50:37.930,994.29,994.36,7.10,3.53,0.00,1.02,0.28,9.27,-0.00,-0.00,0.00,0.00
2026-06-26 17:50:37.931,994.29,994.36,7.10,3.53,0.00,1.02,0.28,9.27,-0.00,-0.00,0.00,0.00
2026-06-26 17:50:37.933,994.29,994.36,7.10,3.53,0.00,1.02,0.28,9.27,-0.00,-0.00,0.00,0.00
2026-06-26 17:50:37.978,994.29,994.36,6.33,3.33,0.00,1.00,0.28,9.23,0.00,0.00,0.00,0.00
2026-06-26 17:50:37.980,994.29,994.36,6.33,3.33,0.00,1.03,0.27,9.27,0.00,0.00,-0.00,0.00
2026-06-26 17:50:37.981,994.29,994.36,6.33,3.33,0.00,1.03,0.27,9.27,0.00,0.00,-0.00,0.00
2026-06-26 17:50:37.982,994.29,994.36,6.33,3.33,0.00,1.03,0.27,9.27,0.00,0.00,-0.00,0.00
2026-06-26 17:50:37.985,994.29,994.36,6.33,3.33,0.00,1.03,0.27,9.27,0.00,0.00,-0.00,0.00
2026-06-26 17:50:37.989,994.29,994.36,6.33,3.33,0.00,1.03,0.27,9.27,0.00,0.00,-0.00,0.00
2026-06-26 17:50:37.990,994.29,994.36,6.33,3.33,0.00,1.01,0.27,9.29,0.00,0.00,-0.00,0.00
2026-06-26 17:50:37.991,994.29,994.36,6.33,3.33,0.00,1.01,0.27,9.29,0.00,0.00,-0.00,0.00
2026-06-26 17:50:37.993,994.29,994.36,6.33,3.33,0.00,1.01,0.27,9.29,0.00,0.00,-0.00,0.00
2026-06-26 17:50:37.995,994.29,994.36,6.33,3.33,0.00,1.01,0.27,9.29,0.00,0.00,-0.00,0.00
2026-06-26 17:50:37.998,994.29,994.36,6.33,3.33,0.00,1.01,0.27,9.29,0.00,0.00,-0.00,0.00
2026-06-26 17:50:37.001,994.29,994.36,6.33,3.33,0.00,1.01,0.29,9.26,0.00,0.00,0.00,0.00
2026-06-26 17:50:37.002,994.29,994.36,6.33,3.33,0.00,1.01,0.29,9.26,0.00,0.00,0.00,0.00
2026-06-26 17:50:38.008,994.29,994.36,6.33,3.33,0.00,1.01,0.29,9.26,0.00,0.00,0.00,0.00
2026-06-26 17:50:38.010,994.29,994.36,6.33,3.33,0.00,1.03,0.27,9.30,0.00,0.00,-0.00,0.00
2026-06-26 17:50:38.011,994.29,994.36,6.33,3.33,0.00,1.03,0.27,9.30,0.00,0.00,-0.00,0.00
2026-06-26 17:50:38.013,994.29,994.36,6.33,3.33,0.00,1.03,0.27,9.30,0.00,0.00,-0.00,0.00
2026-06-26 17:50:38.058,994.29,994.36,7.02,3.51,0.00,1.02,0.28,9.28,0.00,-0.00,0.00,0.00
2026-06-26 17:50:38.060,994.29,994.36,7.02,3.51,0.00,1.02,0.28,9.28,0.00,0.00,-0.00,0.00
2026-06-26 17:50:38.062,994.29,994.36,7.02,3.51,0.00,1.02,0.28,9.28,0.00,0.00,-0.00,0.00
2026-06-26 17:50:38.068,994.29,994.36,7.02,3.51,0.00,1.02,0.28,9.28,0.00,0.00,-0.00,0.00
2026-06-26 17:50:38.070,994.29,994.36,7.02,3.51,0.00,1.01,0.31,9.24,0.00,0.00,-0.00,0.00
2026-06-26 17:50:38.071,994.29,994.36,7.02,3.51,0.00,1.01,0.31,9.24,0.00,0.00,-0.00,0.00
2026-06-26 17:50:38.072,994.29,994.36,7.02,3.51,0.00,1.01,0.31,9.24,0.00,0.00,-0.00,0.00
2026-06-26 17:50:38.075,994.29,994.36,7.02,3.51,0.00,1.01,0.31,9.24,0.00,0.00,-0.00,0.00
2026-06-26 17:50:38.119,994.28,994.36,7.99,3.75,0.00,1.01,0.29,9.26,-0.00,-0.00,0.00,0.00
2026-06-26 17:50:38.120,994.28,994.36,7.99,3.75,0.00,1.01,0.28,9.27,-0.00,-0.00,0.00,0.00
2026-06-26 17:50:38.122,994.28,994.36,7.99,3.75,0.00,1.01,0.28,9.27,-0.00,-0.00,0.00,0.00
2026-06-26 17:50:38.123,994.28,994.36,7.99,3.75,0.00,1.01,0.28,9.27,-0.00,-0.00,0.00,0.00
2026-06-26 17:50:38.127,994.28,994.36,7.99,3.75,0.00,1.01,0.28,9.27,-0.00,-0.00,0.00,0.00
2026-06-26 17:50:38.130,994.28,994.36,7.99,3.75,0.00,1.01,0.27,9.28,-0.00,-0.01,0.00,0.00
2026-06-26 17:50:38.143,994.28,994.36,7.99,3.75,0.00,1.02,0.27,9.30,0.00,-0.00,-0.00,0.00
2026-06-26 17:50:38.145,994.28,994.36,7.99,3.75,0.00,1.02,0.27,9.30,0.00,-0.00,-0.00,0.00
2026-06-26 17:50:38.149,994.28,994.36,7.99,3.75,0.00,1.02,0.27,9.30,0.00,-0.00,-0.00,0.00
2026-06-26 17:50:38.150,994.28,994.36,7.99,3.75,0.00,1.00,0.28,9.27,0.00,0.00,0.00,0.00
2026-06-26 17:50:38.151,994.28,994.36,7.99,3.75,0.00,1.00,0.28,9.27,0.00,0.00,0.00,0.00
2026-06-26 17:50:38.152,994.28,994.36,7.99,3.75,0.00,1.00,0.28,9.27,0.00,0.00,0.00,0.00
2026-06-26 17:50:38.155,994.28,994.36,7.99,3.75,0.00,1.00,0.28,9.27,0.00,0.00,0.00,0.00
2026-06-26 17:50:38.199,994.28,994.36,7.94,3.73,0.00,1.02,0.27,9.27,0.00,-0.00,0.00,0.00
2026-06-26 17:50:38.201,994.28,994.36,7.94,3.73,0.00,1.02,0.27,9.27,0.00,-0.00,0.00,0.00
2026-06-26 17:50:38.202,994.28,994.36,7.94,3.73,0.00,1.02,0.27,9.27,0.00,-0.00,0.00,0.00
2026-06-26 17:50:38.203,994.28,994.36,7.94,3.73,0.00,1.02,0.27,9.27,0.00,-0.00,0.00,0.00
2026-06-26 17:50:38.209,994.28,994.36,7.94,3.73,0.00,1.02,0.27,9.27,0.00,-0.00,0.00,0.00
2026-06-26 17:50:38.210,994.28,994.36,7.94,3.73,0.00,1.01,0.28,9.30,0.00,0.00,0.00,0.00
2026-06-26 17:50:38.211,994.28,994.36,7.94,3.73,0.00,1.01,0.28,9.30,0.00,0.00,0.00,0.00
2026-06-26 17:50:38.212,994.28,994.36,7.94,3.73,0.00,1.01,0.28,9.30,0.00,0.00,0.00,0.00
2026-06-26 17:50:38.214,994.28,994.36,7.94,3.73,0.00,1.01,0.28,9.30,0.00,0.00,0.00,0.00
2026-06-26 17:50:38.219,994.28,994.36,7.94,3.73,0.00,1.01,0.28,9.30,0.00,0.00,0.00,0.00
2026-06-26 17:50:38.261,994.28,994.36,8.24,3.81,0.00,1.03,0.27,9.29,0.00,0.00,0.00,0.00
2026-06-26 17:50:38.263,994.28,994.36,8.24,3.81,0.00,1.03,0.27,9.29,0.00,0.00,0.00,0.00
2026-06-26 17:50:38.267,994.28,994.36,8.24,3.81,0.00,1.03,0.27,9.29,0.00,0.00,0.00,0.00
2026-06-26 17:50:38.270,994.28,994.36,8.24,3.81,0.00,1.03,0.27,9.29,0.00,0.00,0.00,0.00
2026-06-26 17:50:38.271,994.28,994.36,8.24,3.81,0.00,1.00,0.29,9.27,0.00,0.00,0.00,0.00
2026-06-26 17:50:38.272,994.28,994.36,8.24,3.81,0.00,1.00,0.29,9.27,0.00,0.00,0.00,0.00
2026-06-26 17:50:38.273,994.28,994.36,8.24,3.81,0.00,1.00,0.29,9.27,0.00,0.00,0.00,0.00
2026-06-26 17:50:38.277,994.28,994.36,8.24,3.81,0.00,1.00,0.29,9.27,0.00,0.00,0.00,0.00
2026-06-26 17:50:38.280,994.28,994.36,8.24,3.81,0.00,1.00,0.29,9.27,0.00,-0.00,0.00,0.00
2026-06-26 17:50:38.281,994.28,994.36,8.24,3.81,0.00,1.03,0.29,9.28,0.00,-0.00,0.00,0.00
2026-06-26 17:50:38.282,994.28,994.36,8.24,3.81,0.00,1.03,0.29,9.28,0.00,-0.00,0.00,0.00
2026-06-26 17:50:38.284,994.28,994.36,8.24,3.81,0.00,1.03,0.29,9.28,0.00,-0.00,0.00,0.00
2026-06-26 17:50:38.289,994.28,994.36,8.24,3.81,0.00,1.03,0.29,9.28,0.00,-0.00,0.00,0.00
2026-06-26 17:50:38.291,994.28,994.36,8.24,3.81,0.00,1.02,0.30,9.28,-0.00,0.01,-0.00,0.00
2026-06-26 17:50:38.292,994.28,994.36,8.24,3.81,0.00,1.02,0.30,9.28,-0.00,0.01,-0.00,0.00
2026-06-26 17:50:38.294,994.28,994.36,8.24,3.81,0.00,1.02,0.30,9.28,-0.00,0.01,-0.00,0.00
2026-06-26 17:50:38.296,994.28,994.36,8.24,3.81,0.00,1.02,0.30,9.28,-0.00,0.01,-0.00,0.00
2026-06-26 17:50:38.300,994.28,994.36,8.24,3.81,0.00,1.02,0.30,9.28,-0.00,-0.00,0.00,0.00
2026-06-26 17:50:38.341,994.28,994.36,8.37,3.83,0.00,1.01,0.26,9.28,0.00,0.00,-0.00,0.00
2026-06-26 17:50:38.342,994.28,994.36,8.37,3.83,0.00,1.01,0.26,9.28,0.00,0.00,-0.00,0.00
2026-06-26 17:50:38.344,994.28,994.36,8.37,3.83,0.00,1.01,0.26,9.28,0.00,0.00,-0.00,0.00
2026-06-26 17:50:38.345,994.28,994.36,8.37,3.83,0.00,1.01,0.26,9.28,0.00,0.00,-0.00,0.00
2026-06-26 17:50:38.347,994.28,994.36,8.37,3.83,0.00,1.01,0.26,9.28,0.00,0.00,-0.00,0.00
2026-06-26 17:50:38.350,994.28,994.36,8.37,3.83,0.00,1.01,0.26,9.28,0.00,-0.00,0.00,0.00
2026-06-26 17:50:38.351,994.28,994.36,8.37,3.83,0.00,1.01,0.28,9.24,0.00,-0.00,0.00,0.00
2026-06-26 17:50:38.352,994.28,994.36,8.37,3.83,0.00,1.01,0.28,9.24,0.00,-0.00,0.00,0.00
2026-06-26 17:50:38.356,994.28,994.36,8.37,3.83,0.00,1.01,0.28,9.24,0.00,-0.00,0.00,0.00
2026-06-26 17:50:38.359,994.28,994.36,8.37,3.83,0.00,1.01,0.28,9.24,-0.00,-0.00,0.00,0.00
2026-06-26 17:50:38.361,994.28,994.36,8.37,3.83,0.00,1.00,0.28,9.29,-0.00,-0.00,0.00,0.00
2026-06-26 17:50:38.404,994.27,994.36,9.06,3.99,0.00,1.01,0.27,9.28,-0.00,-0.00,-0.00,0.00
2026-06-26 17:50:38.410,994.27,994.36,9.06,3.99,0.00,1.01,0.27,9.28,-0.00,-0.00,-0.00,0.00
2026-06-26 17:50:38.412,994.27,994.36,9.06,3.99,0.00,1.00,0.28,9.27,0.00,-0.00,0.00,0.00
2026-06-26 17:50:38.413,994.27,994.36,9.06,3.99,0.00,1.00,0.28,9.27,0.00,-0.00,0.00,0.00
2026-06-26 17:50:38.419,994.27,994.36,9.06,3.99,0.00,1.00,0.28,9.27,0.00,-0.00,0.00,0.00
2026-06-26 17:50:38.421,994.27,994.36,9.06,3.99,0.00,1.01,0.28,9.27,0.00,-0.00,-0.00,0.00
2026-06-26 17:50:38.422,994.27,994.36,9.06,3.99,0.00,1.01,0.28,9.27,0.00,-0.00,-0.00,0.00
2026-06-26 17:50:38.423,994.27,994.36,9.06,3.99,0.00,1.01,0.28,9.27,0.00,-0.00,-0.00,0.00
2026-06-26 17:50:38.425,994.27,994.36,9.06,3.99,0.00,1.01,0.28,9.27,0.00,-0.00,-0.00,0.00
2026-06-26 17:50:38.429,994.27,994.36,9.06,3.99,0.00,1.01,0.28,9.27,0.00,0.00,0.00,0.00
2026-06-26 17:50:38.431,994.27,994.36,9.06,3.99,0.00,1.02,0.27,9.26,0.00,0.00,0.00,0.00
2026-06-26 17:50:38.432,994.27,994.36,9.06,3.99,0.00,1.02,0.27,9.26,0.00,0.00,0.00,0.00
2026-06-26 17:50:38.434,994.27,994.36,9.06,3.99,0.00,1.02,0.27,9.26,0.00,0.00,0.00,0.00
2026-06-26 17:50:38.439,994.27,994.36,9.06,3.99,0.00,1.02,0.27,9.26,0.00,0.00,0.00,0.00
2026-06-26 17:50:38.441,994.27,994.36,9.06,3.99,0.00,1.01,0.27,9.28,-0.00,0.00,0.00,0.00
2026-06-26 17:50:38.480,994.27,994.35,8.03,3.76,0.00,1.01,0.29,9.26,-0.00,-0.00,0.00,0.00
2026-06-26 17:50:38.481,994.27,994.35,8.03,3.76,0.00,1.03,0.30,9.24,-0.00,-0.00,0.00,0.00
2026-06-26 17:50:38.482,994.27,994.35,8.03,3.76,0.00,1.03,0.30,9.24,-0.00,-0.00,0.00,0.00
2026-06-26 17:50:38.484,994.27,994.35,8.03,3.76,0.00,1.03,0.30,9.24,-0.00,-0.00,0.00,0.00
2026-06-26 17:50:38.489,994.27,994.35,8.03,3.76,0.00,1.03,0.30,9.24,-0.00,-0.00,0.00,0.00
2026-06-26 17:50:38.491,994.27,994.35,8.03,3.76,0.00,1.00,0.31,9.29,0.00,-0.00,0.00,0.00
2026-06-26 17:50:38.492,994.27,994.35,8.03,3.76,0.00,1.00,0.31,9.29,0.00,-0.00,0.00,0.00
2026-06-26 17:50:38.494,994.27,994.35,8.03,3.76,0.00,1.00,0.31,9.29,0.00,-0.00,0.00,0.00
2026-06-26 17:50:38.495,994.27,994.35,8.03,3.76,0.00,1.00,0.31,9.29,0.00,-0.00,0.00,0.00
2026-06-26 17:50:38.497,994.27,994.35,8.03,3.76,0.00,1.00,0.31,9.29,0.00,-0.00,0.00,0.00
2026-06-26 17:50:38.500,994.27,994.35,8.03,3.76,0.00,1.01,0.28,9.27,-0.00,0.00,-0.00,0.00
2026-06-26 17:50:38.502,994.27,994.35,8.03,3.76,0.00,1.01,0.28,9.27,-0.00,0.00,-0.00,0.00
2026-06-26 17:50:38.503,994.27,994.35,8.03,3.76,0.00,1.01,0.28,9.27,-0.00,0.00,-0.00,0.00
2026-06-26 17:50:38.545,994.28,994.35,7.53,3.64,0.00,1.00,0.27,9.27,0.00,0.00,0.00,0.00
2026-06-26 17:50:38.546,994.28,994.35,7.53,3.64,0.00,1.00,0.27,9.27,0.00,0.00,0.00,0.00
2026-06-26 17:50:38.549,994.28,994.35,7.53,3.64,0.00,1.00,0.27,9.27,0.00,0.00,0.00,0.00
2026-06-26 17:50:38.551,994.28,994.35,7.53,3.64,0.00,1.01,0.28,9.28,0.00,-0.00,-0.00,0.00
2026-06-26 17:50:38.552,994.28,994.35,7.53,3.64,0.00,1.01,0.28,9.28,0.00,-0.00,-0.00,0.00
2026-06-26 17:50:38.554,994.28,994.35,7.53,3.64,0.00,1.01,0.28,9.28,0.00,-0.00,-0.00,0.00
2026-06-26 17:50:38.560,994.28,994.35,7.53,3.64,0.00,1.01,0.28,9.28,0.00,-0.00,-0.00,0.00
2026-06-26 17:50:38.562,994.28,994.35,7.53,3.64,0.00,1.02,0.29,9.28,-0.00,0.00,0.00,0.00
2026-06-26 17:50:38.563,994.28,994.35,7.53,3.64,0.00,1.02,0.29,9.28,-0.00,0.00,0.00,0.00
2026-06-26 17:50:38.565,994.28,994.35,7.53,3.64,0.00,1.02,0.29,9.28,-0.00,0.00,0.00,0.00
2026-06-26 17:50:38.570,994.28,994.35,7.53,3.64,0.00,1.02,0.29,9.28,-0.00,0.00,0.00,0.00
2026-06-26 17:50:38.571,994.28,994.35,7.53,3.64,0.00,1.02,0.27,9.25,0.00,0.00,0.00,0.00
2026-06-26 17:50:38.573,994.28,994.35,7.53,3.64,0.00,1.02,0.27,9.25,0.00,0.00,0.00,0.00
2026-06-26 17:50:38.579,994.28,994.35,7.53,3.64,0.00,1.02,0.27,9.25,0.00,0.00,0.00,0.00
2026-06-26 17:50:38.621,994.28,994.35,7.58,3.65,0.00,1.02,0.28,9.25,0.00,0.00,-0.00,0.00
2026-06-26 17:50:38.623,994.28,994.35,7.58,3.65,0.00,1.02,0.28,9.25,0.00,0.00,-0.00,0.00
2026-06-26 17:50:38.624,994.28,994.35,7.58,3.65,0.00,1.02,0.28,9.25,0.00,0.00,-0.00,0.00
2026-06-26 17:50:38.628,994.28,994.35,7.58,3.65,0.00,1.02,0.28,9.25,0.00,0.00,-0.00,0.00
2026-06-26 17:50:38.630,994.28,994.35,7.58,3.65,0.00,1.02,0.28,9.25,-0.00,0.00,0.00,0.00
2026-06-26 17:50:38.631,994.28,994.35,7.58,3.65,0.00,1.02,0.29,9.25,-0.00,0.00,0.00,0.00
2026-06-26 17:50:38.633,994.28,994.35,7.58,3.65,0.00,1.02,0.29,9.25,-0.00,0.00,0.00,0.00
2026-06-26 17:50:38.634,994.28,994.35,7.58,3.65,0.00,1.02,0.29,9.25,-0.00,0.00,0.00,0.00
2026-06-26 17:50:38.640,994.28,994.35,7.58,3.65,0.00,1.02,0.29,9.25,0.00,-0.00,0.00,0.00
2026-06-26 17:50:38.641,994.28,994.35,7.58,3.65,0.00,1.01,0.27,9.28,0.00,-0.00,0.00,0.00
2026-06-26 17:50:38.643,994.28,994.35,7.58,3.65,0.00,1.01,0.27,9.28,0.00,-0.00,0.00,0.00
2026-06-26 17:50:38.690,994.27,994.35,8.16,3.79,0.00,1.02,0.28,9.27,0.00,-0.00,-0.00,0.00
2026-06-26 17:50:38.691,994.27,994.35,8.16,3.79,0.00,1.01,0.28,9.28,0.00,0.00,0.00,0.00
2026-06-26 17:50:38.693,994.27,994.35,8.16,3.79,0.00,1.01,0.28,9.28,0.00,0.00,0.00,0.00
2026-06-26 17:50:38.694,994.27,994.35,8.16,3.79,0.00,1.01,0.28,9.28,0.00,0.00,0.00,0.00
2026-06-26 17:50:38.695,994.27,994.35,8.16,3.79,0.00,1.01,0.28,9.28,0.00,0.00,0.00,0.00
2026-06-26 17:50:38.696,994.27,994.35,8.16,3.79,0.00,1.01,0.28,9.28,0.00,0.00,0.00,0.00
2026-06-26 17:50:38.697,994.27,994.35,8.16,3.79,0.00,1.01,0.28,9.28,0.00,0.00,0.00,0.00
2026-06-26 17:50:38.700,994.27,994.35,8.16,3.79,0.00,1.01,0.28,9.28,0.00,-0.00,0.00,0.00
2026-06-26 17:50:38.702,994.27,994.35,8.16,3.79,0.00,1.02,0.25,9.29,0.00,-0.00,0.00,0.00
2026-06-26 17:50:38.703,994.27,994.35,8.16,3.79,0.00,1.02,0.25,9.29,0.00,-0.00,0.00,0.00
2026-06-26 17:50:38.706,994.27,994.35,8.16,3.79,0.00,1.02,0.25,9.29,0.00,-0.00,0.00,0.00
2026-06-26 17:50:38.710,994.27,994.35,8.16,3.79,0.00,1.02,0.25,9.29,0.00,0.00,0.00,0.00
2026-06-26 17:50:38.712,994.27,994.35,8.16,3.79,0.00,1.02,0.27,9.28,0.00,0.00,0.00,0.00
2026-06-26 17:50:38.713,994.27,994.35,8.16,3.79,0.00,1.02,0.27,9.28,0.00,0.00,0.00,0.00
2026-06-26 17:50:38.718,994.27,994.35,8.16,3.79,0.00,1.02,0.27,9.28,0.00,0.00,0.00,0.00
2026-06-26 17:50:38.720,994.27,994.35,8.16,3.79,0.00,1.02,0.27,9.28,-0.00,0.00,-0.00,0.00
2026-06-26 17:50:38.768,994.27,994.36,8.96,3.97,0.00,1.01,0.29,9.28,0.00,-0.00,0.00,0.00
2026-06-26 17:50:38.771,994.27,994.36,8.96,3.97,0.00,1.01,0.29,9.28,-0.00,0.00,0.00,0.00
2026-06-26 17:50:38.772,994.27,994.36,8.96,3.97,0.00,1.02,0.28,9.26,-0.00,0.00,0.00,0.00
2026-06-26 17:50:38.774,994.27,994.36,8.96,3.97,0.00,1.02,0.28,9.26,-0.00,0.00,0.00,0.00
2026-06-26 17:50:38.777,994.27,994.36,8.96,3.97,0.00,1.02,0.28,9.26,-0.00,0.00,0.00,0.00
2026-06-26 17:50:38.780,994.27,994.36,8.96,3.97,0.00,1.02,0.28,9.26,-0.00,0.00,0.00,0.00
2026-06-26 17:50:38.782,994.27,994.36,8.96,3.97,0.00,1.02,0.29,9.29,-0.00,0.00,0.00,0.00
2026-06-26 17:50:38.783,994.27,994.36,8.96,3.97,0.00,1.02,0.29,9.29,-0.00,0.00,0.00,0.00
2026-06-26 17:50:38.784,994.27,994.36,8.96,3.97,0.00,1.02,0.29,9.29,-0.00,0.00,0.00,0.00
2026-06-26 17:50:38.790,994.27,994.36,8.96,3.97,0.00,1.02,0.29,9.29,-0.00,0.00,0.00,0.00
2026-06-26 17:50:38.833,994.28,994.36,8.39,3.84,0.00,1.02,0.27,9.27,-0.00,0.00,-0.00,0.00
2026-06-26 17:50:38.838,994.28,994.36,8.39,3.84,0.00,1.02,0.27,9.27,-0.00,0.00,-0.00,0.00
2026-06-26 17:50:38.841,994.28,994.36,8.39,3.84,0.00,1.03,0.29,9.28,0.00,0.00,0.00,0.00
2026-06-26 17:50:38.842,994.28,994.36,8.39,3.84,0.00,1.03,0.29,9.28,0.00,0.00,0.00,0.00
2026-06-26 17:50:38.844,994.28,994.36,8.39,3.84,0.00,1.03,0.29,9.28,0.00,0.00,0.00,0.00
2026-06-26 17:50:38.846,994.28,994.36,8.39,3.84,0.00,1.03,0.29,9.28,0.00,0.00,0.00,0.00
2026-06-26 17:50:38.847,994.28,994.36,8.39,3.84,0.00,1.03,0.29,9.28,0.00,0.00,0.00,0.00
2026-06-26 17:50:38.850,994.28,994.36,8.39,3.84,0.00,1.03,0.29,9.28,0.00,-0.00,0.00,0.00
2026-06-26 17:50:38.852,994.28,994.36,8.39,3.84,0.00,1.01,0.28,9.27,0.00,-0.00,0.00,0.00
2026-06-26 17:50:38.853,994.28,994.36,8.39,3.84,0.00,1.01,0.28,9.27,0.00,-0.00,0.00,0.00
2026-06-26 17:50:38.854,994.28,994.36,8.39,3.84,0.00,1.01,0.28,9.27,0.00,-0.00,0.00,0.00
2026-06-26 17:50:38.858,994.28,994.36,8.39,3.84,0.00,1.01,0.28,9.27,0.00,-0.00,0.00,0.00
2026-06-26 17:50:38.861,994.28,994.36,8.39,3.84,0.00,1.01,0.28,9.27,-0.00,0.00,0.00,0.00
2026-06-26 17:50:38.862,994.28,994.36,8.39,3.84,0.00,1.02,0.28,9.29,-0.00,0.00,0.00,0.00
2026-06-26 17:50:38.902,994.28,994.35,7.45,3.62,0.00,1.01,0.28,9.28,-0.00,-0.00,-0.00,0.00
2026-06-26 17:50:38.904,994.28,994.35,7.45,3.62,0.00,1.01,0.28,9.28,-0.00,-0.00,-0.00,0.00
2026-06-26 17:50:38.907,994.28,994.35,7.45,3.62,0.00,1.01,0.28,9.28,-0.00,-0.00,-0.00,0.00
2026-06-26 17:50:38.911,994.28,994.35,7.45,3.62,0.00,1.01,0.28,9.28,-0.00,0.00,0.00,0.00
2026-06-26 17:50:38.912,994.28,994.35,7.45,3.62,0.00,1.01,0.28,9.29,-0.00,0.00,0.00,0.00
2026-06-26 17:50:38.913,994.28,994.35,7.45,3.62,0.00,1.01,0.28,9.29,-0.00,0.00,0.00,0.00
2026-06-26 17:50:38.917,994.28,994.35,7.45,3.62,0.00,1.01,0.28,9.29,-0.00,0.00,0.00,0.00
2026-06-26 17:50:38.921,994.28,994.35,7.45,3.62,0.00,1.01,0.28,9.29,-0.00,0.00,-0.00,0.00
2026-06-26 17:50:38.922,994.28,994.35,7.45,3.62,0.00,1.01,0.28,9.28,-0.00,0.00,-0.00,0.00
2026-06-26 17:50:38.924,994.28,994.35,7.45,3.62,0.00,1.01,0.28,9.28,-0.00,0.00,-0.00,0.00
2026-06-26 17:50:38.925,994.28,994.35,7.45,3.62,0.00,1.01,0.28,9.28,-0.00,0.00,-0.00,0.00
2026-06-26 17:50:38.930,994.28,994.35,7.45,3.62,0.00,1.01,0.28,9.28,-0.00,0.00,0.00,0.00
2026-06-26 17:50:38.932,994.28,994.35,7.45,3.62,0.00,1.01,0.26,9.25,-0.00,0.00,0.00,0.00
2026-06-26 17:50:38.974,994.28,994.35,7.21,3.56,0.00,1.02,0.30,9.28,-0.00,0.00,0.00,0.00
2026-06-26 17:50:38.977,994.28,994.35,7.21,3.56,0.00,1.02,0.30,9.28,-0.00,0.00,0.00,0.00
2026-06-26 17:50:38.981,994.28,994.35,7.21,3.56,0.00,1.02,0.30,9.28,0.00,0.00,0.00,0.00
2026-06-26 17:50:38.982,994.28,994.35,7.21,3.56,0.00,1.01,0.27,9.29,0.00,0.00,0.00,0.00
2026-06-26 17:50:38.984,994.28,994.35,7.21,3.56,0.00,1.01,0.27,9.29,0.00,0.00,0.00,0.00
2026-06-26 17:50:38.991,994.28,994.35,7.21,3.56,0.00,1.01,0.27,9.29,0.00,0.00,0.00,0.00
2026-06-26 17:50:38.993,994.28,994.35,7.21,3.56,0.00,1.01,0.27,9.27,0.00,0.00,-0.00,0.00
2026-06-26 17:50:38.994,994.28,994.35,7.21,3.56,0.00,1.01,0.27,9.27,0.00,0.00,-0.00,0.00
2026-06-26 17:50:38.995,994.28,994.35,7.21,3.56,0.00,1.01,0.27,9.27,0.00,0.00,-0.00,0.00
2026-06-26 17:50:38.996,994.28,994.35,7.21,3.56,0.00,1.01,0.27,9.27,0.00,0.00,-0.00,0.00
2026-06-26 17:50:38.998,994.28,994.35,7.21,3.56,0.00,1.01,0.27,9.27,0.00,0.00,-0.00,0.00
2026-06-26 17:50:38.000,994.28,994.35,7.21,3.56,0.00,1.01,0.27,9.27,0.00,0.00,0.00,0.00
2026-06-26 17:50:39.041,994.28,994.35,7.27,3.57,0.00,1.03,0.30,9.27,0.00,0.00,0.00,0.00
2026-06-26 17:50:39.043,994.28,994.35,7.27,3.57,0.00,1.03,0.30,9.27,0.00,0.00,0.00,0.00
2026-06-26 17:50:39.044,994.28,994.35,7.27,3.57,0.00,1.03,0.30,9.27,0.00,0.00,0.00,0.00
2026-06-26 17:50:39.046,994.28,994.35,7.27,3.57,0.00,1.03,0.30,9.27,0.00,0.00,0.00,0.00
2026-06-26 17:50:39.048,994.28,994.35,7.27,3.57,0.00,1.03,0.30,9.27,0.00,0.00,0.00,0.00
2026-06-26 17:50:39.051,994.28,994.35,7.27,3.57,0.00,1.03,0.30,9.27,-0.00,0.00,0.00,0.00
2026-06-26 17:50:39.053,994.28,994.35,7.27,3.57,0.00,1.02,0.29,9.28,-0.00,0.00,0.00,0.00
2026-06-26 17:50:39.059,994.28,994.35,7.27,3.57,0.00,1.02,0.29,9.28,-0.00,0.00,0.00,0.00
2026-06-26 17:50:39.061,994.28,994.35,7.27,3.57,0.00,1.01,0.28,9.29,0.00,0.00,0.00,0.00
2026-06-26 17:50:39.068,994.28,994.35,7.27,3.57,0.00,1.01,0.28,9.29,0.00,0.00,0.00,0.00
2026-06-26 17:50:39.071,994.28,994.35,7.27,3.57,0.00,1.01,0.28,9.29,0.00,0.00,-0.00,0.00
2026-06-26 17:50:39.073,994.28,994.35,7.27,3.57,0.00,1.01,0.28,9.28,0.00,0.00,-0.00,0.00
2026-06-26 17:50:39.121,994.26,994.35,9.05,3.99,0.00,1.03,0.27,9.29,0.00,-0.00,0.00,0.00
2026-06-26 17:50:39.122,994.26,994.35,9.05,3.99,0.00,1.01,0.29,9.26,-0.00,-0.00,0.00,0.00
2026-06-26 17:50:39.124,994.26,994.35,9.05,3.99,0.00,1.01,0.29,9.26,-0.00,-0.00,0.00,0.00
2026-06-26 17:50:39.128,994.26,994.35,9.05,3.99,0.00,1.01,0.29,9.26,-0.00,-0.00,0.00,0.00
2026-06-26 17:50:39.131,994.26,994.35,9.05,3.99,0.00,1.01,0.29,9.26,0.00,-0.00,-0.00,0.00
2026-06-26 17:50:39.133,994.26,994.35,9.05,3.99,0.00,1.01,0.29,9.29,0.00,-0.00,-0.00,0.00
2026-06-26 17:50:39.135,994.26,994.35,9.05,3.99,0.00,1.01,0.29,9.29,0.00,-0.00,-0.00,0.00
2026-06-26 17:50:39.141,994.26,994.35,9.05,3.99,0.00,1.01,0.29,9.29,0.00,-0.00,-0.00,0.00
2026-06-26 17:50:39.184,994.26,994.35,9.04,3.98,0.00,1.04,0.29,9.29,0.00,0.00,0.00,0.00
2026-06-26 17:50:39.191,994.26,994.35,9.04,3.98,0.00,1.04,0.29,9.29,0.00,0.00,0.00,0.00
2026-06-26 17:50:39.193,994.26,994.35,9.04,3.98,0.00,1.01,0.29,9.27,0.00,0.00,-0.00,0.00
2026-06-26 17:50:39.194,994.26,994.35,9.04,3.98,0.00,1.01,0.29,9.27,0.00,0.00,-0.00,0.00
2026-06-26 17:50:39.196,994.26,994.35,9.04,3.98,0.00,1.01,0.29,9.27,0.00,0.00,-0.00,0.00
2026-06-26 17:50:39.198,994.26,994.35,9.04,3.98,0.00,1.01,0.29,9.27,0.00,0.00,-0.00,0.00
2026-06-26 17:50:39.202,994.26,994.35,9.04,3.98,0.00,1.01,0.29,9.27,0.00,-0.00,-0.00,0.00
2026-06-26 17:50:39.210,994.26,994.35,9.04,3.98,0.00,0.99,0.30,9.28,0.00,-0.00,-0.00,0.00
2026-06-26 17:50:39.213,994.26,994.35,9.04,3.98,0.00,1.02,0.29,9.27,0.00,0.00,-0.00,0.00
2026-06-26 17:50:39.215,994.26,994.35,9.04,3.98,0.00,1.02,0.29,9.27,0.00,0.00,-0.00,0.00
2026-06-26 17:50:39.261,994.27,994.35,8.36,3.83,0.00,0.99,0.28,9.28,0.00,0.00,-0.00,0.00
2026-06-26 17:50:39.262,994.27,994.35,8.36,3.83,0.00,1.02,0.27,9.30,0.00,-0.00,0.00,0.00
2026-06-26 17:50:39.264,994.27,994.35,8.36,3.83,0.00,1.02,0.27,9.30,0.00,-0.00,0.00,0.00
2026-06-26 17:50:39.267,994.27,994.35,8.36,3.83,0.00,1.02,0.27,9.30,0.00,-0.00,0.00,0.00
2026-06-26 17:50:39.272,994.27,994.35,8.36,3.83,0.00,1.02,0.27,9.30,0.00,0.00,-0.00,0.00
2026-06-26 17:50:39.274,994.27,994.35,8.36,3.83,0.00,1.04,0.30,9.26,0.00,0.00,-0.00,0.00
2026-06-26 17:50:39.277,994.27,994.35,8.36,3.83,0.00,1.04,0.30,9.26,0.00,0.00,-0.00,0.00
2026-06-26 17:50:39.281,994.27,994.35,8.36,3.83,0.00,1.04,0.30,9.26,0.00,0.00,0.00,0.00
2026-06-26 17:50:39.283,994.27,994.35,8.36,3.83,0.00,1.02,0.27,9.30,0.00,0.00,0.00,0.00
2026-06-26 17:50:39.326,994.27,994.36,8.57,3.88,0.00,1.01,0.30,9.26,0.00,0.00,0.00,0.00
2026-06-26 17:50:39.331,994.27,994.36,8.57,3.88,0.00,1.01,0.30,9.26,0.00,0.00,0.00,0.00
2026-06-26 17:50:39.333,994.27,994.36,8.57,3.88,0.00,1.01,0.27,9.24,0.00,0.00,0.00,0.00
2026-06-26 17:50:39.334,994.27,994.36,8.57,3.88,0.00,1.01,0.27,9.24,0.00,0.00,0.00,0.00
2026-06-26 17:50:39.337,994.27,994.36,8.57,3.88,0.00,1.01,0.27,9.24,0.00,0.00,0.00,0.00
2026-06-26 17:50:39.342,994.27,994.36,8.57,3.88,0.00,1.01,0.27,9.24,0.00,-0.00,-0.00,0.00
2026-06-26 17:50:39.345,994.27,994.36,8.57,3.88,0.00,1.00,0.30,9.27,0.00,-0.00,-0.00,0.00
2026-06-26 17:50:39.352,994.27,994.36,8.57,3.88,0.00,1.00,0.30,9.27,0.00,-0.00,-0.00,0.00
2026-06-26 17:50:39.355,994.27,994.36,8.57,3.88,0.00,1.02,0.29,9.27,0.00,0.00,0.00,0.00
2026-06-26 17:50:39.361,994.27,994.36,8.57,3.88,0.00,1.02,0.29,9.27,0.00,0.00,0.00,0.00
2026-06-26 17:50:39.404,994.27,994.36,8.32,3.82,0.00,1.02,0.28,9.27,0.00,-0.00,-0.00,0.00
2026-06-26 17:50:39.405,994.27,994.36,8.32,3.82,0.00,1.02,0.28,9.27,0.00,-0.00,-0.00,0.00
2026-06-26 17:50:39.411,994.27,994.36,8.32,3.82,0.00,1.02,0.28,9.27,0.00,-0.00,-0.00,0.00
2026-06-26 17:50:39.413,994.27,994.36,8.32,3.82,0.00,1.02,0.27,9.27,0.00,-0.00,0.00,0.00
2026-06-26 17:50:39.419,994.27,994.36,8.32,3.82,0.00,1.02,0.27,9.27,0.00,-0.00,0.00,0.00
2026-06-26 17:50:39.422,994.27,994.36,8.32,3.82,0.00,1.02,0.27,9.27,0.00,0.00,0.00,0.00
2026-06-26 17:50:39.425,994.27,994.36,8.32,3.82,0.00,1.01,0.27,9.28,0.00,0.00,0.00,0.00
2026-06-26 17:50:39.471,994.27,994.36,8.63,3.89,0.00,1.01,0.29,9.28,0.00,-0.00,-0.00,0.00
2026-06-26 17:50:39.473,994.27,994.36,8.63,3.89,0.00,1.00,0.29,9.28,-0.00,0.00,-0.00,0.00
2026-06-26 17:50:39.475,994.27,994.36,8.63,3.89,0.00,1.00,0.29,9.28,-0.00,0.00,-0.00,0.00
2026-06-26 17:50:39.478,994.27,994.36,8.63,3.89,0.00,1.00,0.29,9.28,-0.00,0.00,-0.00,0.00
2026-06-26 17:50:39.482,994.27,994.36,8.63,3.89,0.00,1.00,0.29,9.28,0.00,0.00,0.00,0.00
2026-06-26 17:50:39.483,994.27,994.36,8.63,3.89,0.00,1.01,0.26,9.29,0.00,0.00,0.00,0.00
2026-06-26 17:50:39.485,994.27,994.36,8.63,3.89,0.00,1.01,0.26,9.29,0.00,0.00,0.00,0.00
2026-06-26 17:50:39.489,994.27,994.36,8.63,3.89,0.00,1.01,0.26,9.29,0.00,0.00,0.00,0.00
2026-06-26 17:50:39.493,994.27,994.36,8.63,3.89,0.00,1.01,0.26,9.29,0.00,0.00,-0.00,0.00
2026-06-26 17:50:39.495,994.27,994.36,8.63,3.89,0.00,1.01,0.28,9.27,0.00,0.00,-0.00,0.00
2026-06-26 17:50:39.501,994.27,994.36,8.63,3.89,0.00,1.01,0.28,9.27,0.00,0.00,-0.00,0.00
2026-06-26 17:50:39.504,994.27,994.36,8.63,3.89,0.00,1.03,0.31,9.29,0.00,-0.00,0.00,0.00
2026-06-26 17:50:39.547,994.27,994.36,9.04,3.98,0.00,1.00,0.29,9.27,-0.00,-0.00,0.00,0.00
2026-06-26 17:50:39.552,994.27,994.36,9.04,3.98,0.00,1.00,0.29,9.27,-0.00,-0.00,0.00,0.00
2026-06-26 17:50:39.553,994.27,994.36,9.04,3.98,0.00,1.01,0.28,9.29,0.00,-0.00,0.00,0.00
2026-06-26 17:50:39.555,994.27,994.36,9.04,3.98,0.00,1.01,0.28,9.29,0.00,-0.00,0.00,0.00
2026-06-26 17:50:39.556,994.27,994.36,9.04,3.98,0.00,1.01,0.28,9.29,0.00,-0.00,0.00,0.00
2026-06-26 17:50:39.562,994.27,994.36,9.04,3.98,0.00,1.01,0.28,9.29,0.00,-0.00,0.00,0.00
2026-06-26 17:50:39.564,994.27,994.36,9.04,3.98,0.00,1.01,0.29,9.27,0.00,-0.00,-0.00,0.00
2026-06-26 17:50:39.566,994.27,994.36,9.04,3.98,0.00,1.01,0.29,9.27,0.00,-0.00,-0.00,0.00
2026-06-26 17:50:39.571,994.27,994.36,9.04,3.98,0.00,1.01,0.29,9.27,0.00,-0.00,-0.00,0.00
2026-06-26 17:50:39.614,994.27,994.36,8.68,3.91,0.00,1.01,0.29,9.27,-0.00,0.00,0.00,0.00
2026-06-26 17:50:39.616,994.27,994.36,8.68,3.91,0.00,1.01,0.29,9.27,-0.00,0.00,0.00,0.00
2026-06-26 17:50:39.622,994.27,994.36,8.68,3.91,0.00,1.01,0.29,9.27,-0.00,0.00,0.00,0.00
2026-06-26 17:50:39.623,994.27,994.36,8.68,3.91,0.00,1.01,0.28,9.25,0.00,0.00,-0.00,0.00
2026-06-26 17:50:39.624,994.27,994.36,8.68,3.91,0.00,1.01,0.28,9.25,0.00,0.00,-0.00,0.00
2026-06-26 17:50:39.626,994.27,994.36,8.68,3.91,0.00,1.01,0.28,9.25,0.00,0.00,-0.00,0.00
2026-06-26 17:50:39.630,994.27,994.36,8.68,3.91,0.00,1.01,0.28,9.25,0.00,0.00,-0.00,0.00
2026-06-26 17:50:39.633,994.27,994.36,8.68,3.91,0.00,1.01,0.29,9.27,0.00,0.00,0.00,0.00
2026-06-26 17:50:39.635,994.27,994.36,8.68,3.91,0.00,1.01,0.29,9.27,0.00,0.00,0.00,0.00
2026-06-26 17:50:39.641,994.27,994.36,8.68,3.91,0.00,1.01,0.29,9.27,0.00,0.00,0.00,0.00
2026-06-26 17:50:39.643,994.27,994.36,8.68,3.91,0.00,1.02,0.30,9.25,0.00,0.00,0.00,0.00
2026-06-26 17:50:39.647,994.27,994.36,8.68,3.91,0.00,1.02,0.30,9.25,0.00,0.00,0.00,0.00
2026-06-26 17:50:39.685,994.26,994.36,9.12,4.00,0.00,1.02,0.31,9.28,-0.00,-0.00,0.00,0.00
2026-06-26 17:50:39.692,994.26,994.36,9.12,4.00,0.00,1.02,0.31,9.28,-0.00,-0.00,0.00,0.00
2026-06-26 17:50:39.694,994.26,994.36,9.12,4.00,0.00,1.03,0.28,9.27,-0.00,-0.00,-0.00,0.00
2026-06-26 17:50:39.695,994.26,994.36,9.12,4.00,0.00,1.03,0.28,9.27,-0.00,-0.00,-0.00,0.00
2026-06-26 17:50:39.697,994.26,994.36,9.12,4.00,0.00,1.03,0.28,9.27,-0.00,-0.00,-0.00,0.00
2026-06-26 17:50:39.701,994.26,994.36,9.12,4.00,0.00,1.03,0.28,9.27,-0.00,-0.00,-0.00,0.00
2026-06-26 17:50:39.705,994.26,994.36,9.12,4.00,0.00,1.02,0.29,9.29,0.00,0.00,-0.00,0.00
2026-06-26 17:50:39.709,994.26,994.36,9.12,4.00,0.00,1.02,0.29,9.29,0.00,0.00,-0.00,0.00
2026-06-26 17:50:39.713,994.26,994.36,9.12,4.00,0.00,1.02,0.29,9.29,-0.00,-0.00,0.00,0.00
2026-06-26 17:50:39.752,994.26,994.35,8.70,3.91,0.00,1.01,0.30,9.29,-0.00,-0.00,0.00,0.00
2026-06-26 17:50:39.754,994.26,994.35,8.70,3.91,0.00,1.02,0.29,9.30,-0.00,-0.00,0.00,0.00
2026-06-26 17:50:39.756,994.26,994.35,8.70,3.91,0.00,1.02,0.29,9.30,-0.00,-0.00,0.00,0.00
2026-06-26 17:50:39.761,994.26,994.35,8.70,3.91,0.00,1.02,0.29,9.30,-0.00,-0.00,0.00,0.00
2026-06-26 17:50:39.763,994.26,994.35,8.70,3.91,0.00,0.98,0.27,9.29,-0.00,0.00,-0.00,0.00
2026-06-26 17:50:39.765,994.26,994.35,8.70,3.91,0.00,0.98,0.27,9.29,-0.00,0.00,-0.00,0.00
2026-06-26 17:50:39.766,994.26,994.35,8.70,3.91,0.00,0.98,0.27,9.29,-0.00,0.00,-0.00,0.00
2026-06-26 17:50:39.772,994.26,994.35,8.70,3.91,0.00,0.98,0.27,9.29,-0.00,0.00,-0.00,0.00
2026-06-26 17:50:39.775,994.26,994.35,8.70,3.91,0.00,1.00,0.28,9.29,0.00,-0.00,0.00,0.00
2026-06-26 17:50:39.779,994.26,994.35,8.70,3.91,0.00,1.00,0.28,9.29,0.00,-0.00,0.00,0.00
2026-06-26 17:50:39.783,994.26,994.35,8.70,3.91,0.00,1.00,0.28,9.29,0.00,0.00,0.00,0.00
2026-06-26 17:50:39.785,994.26,994.35,8.70,3.91,0.00,1.01,0.28,9.29,0.00,0.00,0.00,0.00
2026-06-26 17:50:39.831,994.27,994.35,8.19,3.79,0.00,1.01,0.28,9.27,-0.00,-0.00,0.00,0.00
2026-06-26 17:50:39.833,994.27,994.35,8.19,3.79,0.00,1.01,0.29,9.26,-0.00,0.00,0.00,0.00
2026-06-26 17:50:39.835,994.27,994.35,8.19,3.79,0.00,1.01,0.29,9.26,-0.00,0.00,0.00,0.00
2026-06-26 17:50:39.842,994.27,994.35,8.19,3.79,0.00,1.01,0.29,9.26,-0.00,0.00,0.00,0.00
2026-06-26 17:50:39.847,994.27,994.35,8.19,3.79,0.00,1.02,0.28,9.26,-0.00,0.00,-0.00,0.00
2026-06-26 17:50:39.849,994.27,994.35,8.19,3.79,0.00,1.02,0.28,9.26,-0.00,0.00,-0.00,0.00
2026-06-26 17:50:39.892,994.27,994.35,8.11,3.77,0.00,1.02,0.28,9.27,0.00,0.00,0.00,0.00
2026-06-26 17:50:39.894,994.27,994.35,8.11,3.77,0.00,1.00,0.30,9.26,0.00,-0.00,0.00,0.00
2026-06-26 17:50:39.896,994.27,994.35,8.11,3.77,0.00,1.00,0.30,9.26,0.00,-0.00,0.00,0.00
2026-06-26 17:50:39.897,994.27,994.35,8.11,3.77,0.00,1.00,0.30,9.26,0.00,-0.00,0.00,0.00
2026-06-26 17:50:39.899,994.27,994.35,8.11,3.77,0.00,1.00,0.30,9.26,0.00,-0.00,0.00,0.00
2026-06-26 17:50:39.902,994.27,994.35,8.11,3.77,0.00,1.00,0.30,9.26,0.00,-0.00,0.00,0.00
2026-06-26 17:50:39.904,994.27,994.35,8.11,3.77,0.00,1.01,0.28,9.29,0.00,-0.00,0.00,0.00
2026-06-26 17:50:39.906,994.27,994.35,8.11,3.77,0.00,1.01,0.28,9.29,0.00,-0.00,0.00,0.00
2026-06-26 17:50:39.910,994.27,994.35,8.11,3.77,0.00,1.01,0.28,9.29,0.00,-0.00,0.00,0.00
2026-06-26 17:50:39.914,994.27,994.35,8.11,3.77,0.00,1.01,0.28,9.29,0.00,-0.00,0.00,0.00
2026-06-26 17:50:39.916,994.27,994.35,8.11,3.77,0.00,1.02,0.29,9.29,0.00,-0.00,0.00,0.00
2026-06-26 17:50:39.922,994.27,994.35,8.11,3.77,0.00,1.02,0.29,9.29,0.00,-0.00,0.00,0.00
2026-06-26 17:50:39.926,994.27,994.35,8.11,3.77,0.00,1.01,0.28,9.27,-0.00,-0.00,0.00,0.00
2026-06-26 17:50:39.972,994.27,994.35,8.46,3.85,0.00,1.02,0.25,9.29,0.00,0.00,0.00,0.00
2026-06-26 17:50:39.974,994.27,994.35,8.46,3.85,0.00,1.03,0.27,9.25,-0.00,0.00,-0.00,0.00
2026-06-26 17:50:39.976,994.27,994.35,8.46,3.85,0.00,1.03,0.27,9.25,-0.00,0.00,-0.00,0.00
2026-06-26 17:50:39.977,994.27,994.35,8.46,3.85,0.00,1.03,0.27,9.25,-0.00,0.00,-0.00,0.00
2026-06-26 17:50:39.983,994.27,994.35,8.46,3.85,0.00,1.03,0.27,9.25,-0.00,0.00,-0.00,0.00
2026-06-26 17:50:39.985,994.27,994.35,8.46,3.85,0.00,1.02,0.27,9.26,-0.00,0.00,0.00,0.00
2026-06-26 17:50:39.987,994.27,994.35,8.46,3.85,0.00,1.02,0.27,9.26,-0.00,0.00,0.00,0.00
2026-06-26 17:50:40.025,994.27,994.35,8.70,3.91,0.00,1.01,0.29,9.27,-0.00,0.00,-0.00,0.00
2026-06-26 17:50:40.027,994.27,994.35,8.70,3.91,0.00,1.01,0.29,9.27,-0.00,0.00,-0.00,0.00
2026-06-26 17:50:40.030,994.27,994.35,8.70,3.91,0.00,1.01,0.29,9.27,-0.00,0.00,-0.00,0.00
2026-06-26 17:50:40.033,994.27,994.35,8.70,3.91,0.00,1.01,0.29,9.27,-0.00,-0.00,0.00,0.00
2026-06-26 17:50:40.035,994.27,994.35,8.70,3.91,0.00,1.01,0.27,9.28,-0.00,-0.00,0.00,0.00
2026-06-26 17:50:40.036,994.27,994.35,8.70,3.91,0.00,1.01,0.27,9.28,-0.00,-0.00,0.00,0.00
2026-06-26 17:50:40.040,994.27,994.35,8.70,3.91,0.00,1.01,0.27,9.28,-0.00,-0.00,0.00,0.00
2026-06-26 17:50:40.044,994.27,994.35,8.70,3.91,0.00,1.01,0.27,9.28,-0.00,0.00,0.00,0.00
2026-06-26 17:50:40.045,994.27,994.35,8.70,3.91,0.00,1.01,0.28,9.25,-0.00,0.00,0.00,0.00
2026-06-26 17:50:40.048,994.27,994.35,8.70,3.91,0.00,1.01,0.28,9.25,-0.00,0.00,0.00,0.00
2026-06-26 17:50:40.053,994.27,994.35,8.70,3.91,0.00,1.01,0.28,9.25,-0.00,0.00,-0.00,0.00
2026-06-26 17:50:40.055,994.27,994.35,8.70,3.91,0.00,1.00,0.28,9.26,-0.00,0.00,-0.00,0.00
2026-06-26 17:50:40.057,994.27,994.35,8.70,3.91,0.00,1.00,0.28,9.26,-0.00,0.00,-0.00,0.00
2026-06-26 17:50:40.063,994.27,994.35,8.70,3.91,0.00,1.00,0.28,9.26,-0.00,0.00,-0.00,0.00
2026-06-26 17:50:40.065,994.27,994.35,8.70,3.91,0.00,1.01,0.27,9.29,-0.00,0.00,-0.00,0.00
2026-06-26 17:50:40.066,994.27,994.35,8.70,3.91,0.00,1.01,0.27,9.29,-0.00,0.00,-0.00,0.00
2026-06-26 17:50:40.073,994.27,994.35,8.70,3.91,0.00,1.01,0.27,9.29,-0.00,0.00,-0.00,0.00
2026-06-26 17:50:40.116,994.26,994.35,9.21,4.02,0.00,1.01,0.29,9.30,0.00,0.00,-0.00,0.00
2026-06-26 17:50:40.120,994.26,994.35,9.21,4.02,0.00,1.01,0.29,9.30,0.00,0.00,-0.00,0.00
2026-06-26 17:50:40.123,994.26,994.35,9.21,4.02,0.00,1.01,0.29,9.30,0.00,0.00,0.00,0.00
2026-06-26 17:50:40.125,994.26,994.35,9.21,4.02,0.00,1.02,0.30,9.24,0.00,0.00,0.00,0.00
2026-06-26 17:50:40.173,994.26,994.36,9.54,4.09,0.00,1.01,0.28,9.29,0.00,0.00,0.00,0.00
2026-06-26 17:50:40.175,994.26,994.36,9.54,4.09,0.00,1.01,0.27,9.27,0.00,-0.00,0.00,0.00
2026-06-26 17:50:40.176,994.26,994.36,9.54,4.09,0.00,1.01,0.27,9.27,0.00,-0.00,0.00,0.00
2026-06-26 17:50:40.179,994.26,994.36,9.54,4.09,0.00,1.01,0.27,9.27,0.00,-0.00,0.00,0.00
2026-06-26 17:50:40.183,994.26,994.36,9.54,4.09,0.00,1.01,0.27,9.27,0.00,-0.00,0.00,0.00
2026-06-26 17:50:40.185,994.26,994.36,9.54,4.09,0.00,0.99,0.28,9.27,0.00,-0.00,0.00,0.00
2026-06-26 17:50:40.187,994.26,994.36,9.54,4.09,0.00,0.99,0.28,9.27,0.00,-0.00,0.00,0.00
2026-06-26 17:50:40.190,994.26,994.36,9.54,4.09,0.00,0.99,0.28,9.27,0.00,-0.00,0.00,0.00
2026-06-26 17:50:40.194,994.26,994.36,9.54,4.09,0.00,0.99,0.28,9.27,-0.00,0.00,0.00,0.00
2026-06-26 17:50:40.196,994.26,994.36,9.54,4.09,0.00,1.01,0.28,9.27,-0.00,0.00,0.00,0.00
2026-06-26 17:50:40.197,994.26,994.36,9.54,4.09,0.00,1.01,0.28,9.27,-0.00,0.00,0.00,0.00
2026-06-26 17:50:40.199,994.26,994.36,9.54,4.09,0.00,1.01,0.28,9.27,-0.00,0.00,0.00,0.00
2026-06-26 17:50:40.200,994.26,994.36,9.54,4.09,0.00,1.01,0.28,9.27,-0.00,0.00,0.00,0.00
2026-06-26 17:50:40.203,994.26,994.36,9.54,4.09,0.00,1.01,0.28,9.27,0.00,0.00,0.00,0.00
2026-06-26 17:50:40.205,994.26,994.36,9.54,4.09,0.00,1.03,0.29,9.29,0.00,0.00,0.00,0.00
2026-06-26 17:50:40.210,994.26,994.36,9.54,4.09,0.00,1.03,0.29,9.29,0.00,0.00,0.00,0.00
2026-06-26 17:50:40.214,994.26,994.36,9.54,4.09,0.00,1.03,0.29,9.29,0.00,0.00,-0.00,0.00
2026-06-26 17:50:40.263,994.26,994.36,10.06,4.20,0.00,1.01,0.28,9.28,0.00,0.00,0.00,0.00
2026-06-26 17:50:40.267,994.26,994.36,10.06,4.20,0.00,1.04,0.26,9.28,0.00,-0.00,-0.00,0.00
2026-06-26 17:50:40.313,994.26,994.35,9.91,4.17,0.00,1.01,0.28,9.30,-0.00,-0.00,0.00,0.00
2026-06-26 17:50:40.315,994.26,994.35,9.91,4.17,0.00,1.02,0.27,9.27,0.00,0.00,0.00,0.00
2026-06-26 17:50:40.316,994.26,994.35,9.91,4.17,0.00,1.02,0.27,9.27,0.00,0.00,0.00,0.00
2026-06-26 17:50:40.320,994.26,994.35,9.91,4.17,0.00,1.02,0.27,9.27,0.00,0.00,0.00,0.00
2026-06-26 17:50:40.324,994.26,994.35,9.91,4.17,0.00,1.02,0.27,9.27,0.00,-0.00,0.00,0.00
2026-06-26 17:50:40.327,994.26,994.35,9.91,4.17,0.00,1.02,0.29,9.24,0.00,-0.00,0.00,0.00
2026-06-26 17:50:40.332,994.26,994.35,9.91,4.17,0.00,1.02,0.29,9.24,0.00,-0.00,0.00,0.00
2026-06-26 17:50:40.334,994.26,994.35,9.91,4.17,0.00,1.00,0.27,9.28,-0.00,-0.00,0.00,0.00
2026-06-26 17:50:40.336,994.26,994.35,9.91,4.17,0.00,1.00,0.27,9.28,-0.00,-0.00,0.00,0.00
2026-06-26 17:50:40.340,994.26,994.35,9.91,4.17,0.00,1.00,0.27,9.28,-0.00,-0.00,0.00,0.00
2026-06-26 17:50:40.344,994.26,994.35,9.91,4.17,0.00,1.00,0.27,9.28,0.00,-0.00,0.00,0.00
2026-06-26 17:50:40.346,994.26,994.35,9.91,4.17,0.00,1.01,0.28,9.25,0.00,-0.00,0.00,0.00
2026-06-26 17:50:40.347,994.26,994.35,9.91,4.17,0.00,1.01,0.28,9.25,0.00,-0.00,0.00,0.00
2026-06-26 17:50:40.349,994.26,994.35,9.91,4.17,0.00,1.01,0.28,9.25,0.00,-0.00,0.00,0.00
2026-06-26 17:50:40.350,994.26,994.35,9.91,4.17,0.00,1.01,0.28,9.25,0.00,-0.00,0.00,0.00
2026-06-26 17:50:40.353,994.26,994.35,9.91,4.17,0.00,1.01,0.28,9.25,0.00,-0.00,0.00,0.00
2026-06-26 17:50:40.356,994.26,994.35,9.91,4.17,0.00,1.03,0.29,9.29,0.00,-0.00,-0.00,0.00
2026-06-26 17:50:40.404,994.26,994.35,9.37,4.06,0.00,1.01,0.29,9.28,0.00,0.00,0.00,0.00
2026-06-26 17:50:40.406,994.26,994.35,9.37,4.06,0.00,1.01,0.28,9.27,0.00,0.00,0.00,0.00
2026-06-26 17:50:40.409,994.26,994.35,9.37,4.06,0.00,1.01,0.28,9.27,0.00,0.00,0.00,0.00
2026-06-26 17:50:40.454,994.26,994.37,10.58,4.31,0.00,1.01,0.28,9.29,-0.00,0.00,0.00,0.00
2026-06-26 17:50:40.456,994.26,994.37,10.58,4.31,0.00,1.03,0.31,9.27,-0.00,0.00,0.00,0.00
2026-06-26 17:50:40.459,994.26,994.37,10.58,4.31,0.00,1.03,0.31,9.27,-0.00,0.00,0.00,0.00
2026-06-26 17:50:40.464,994.26,994.37,10.58,4.31,0.00,1.03,0.31,9.27,-0.00,-0.00,0.00,0.00
2026-06-26 17:50:40.466,994.26,994.37,10.58,4.31,0.00,1.01,0.30,9.28,-0.00,-0.00,0.00,0.00
2026-06-26 17:50:40.467,994.26,994.37,10.58,4.31,0.00,1.01,0.30,9.28,-0.00,-0.00,0.00,0.00
2026-06-26 17:50:40.473,994.26,994.37,10.58,4.31,0.00,1.01,0.30,9.28,-0.00,-0.00,0.00,0.00
2026-06-26 17:50:40.475,994.26,994.37,10.58,4.31,0.00,1.01,0.28,9.27,0.00,0.00,0.00,0.00
2026-06-26 17:50:40.477,994.26,994.37,10.58,4.31,0.00,1.01,0.28,9.27,0.00,0.00,0.00,0.00
2026-06-26 17:50:40.483,994.26,994.37,10.58,4.31,0.00,1.01,0.28,9.27,0.00,0.00,0.00,0.00
2026-06-26 17:50:40.485,994.26,994.37,10.58,4.31,0.00,1.02,0.27,9.26,0.00,-0.00,0.00,0.00
2026-06-26 17:50:40.486,994.26,994.37,10.58,4.31,0.00,1.02,0.27,9.26,0.00,-0.00,0.00,0.00
2026-06-26 17:50:40.488,994.26,994.37,10.58,4.31,0.00,1.02,0.27,9.26,0.00,-0.00,0.00,0.00
2026-06-26 17:50:40.494,994.26,994.37,10.58,4.31,0.00,1.02,0.27,9.26,0.00,-0.00,0.00,0.00
2026-06-26 17:50:40.496,994.26,994.37,10.58,4.31,0.00,1.01,0.27,9.29,0.00,-0.00,0.00,0.00
2026-06-26 17:50:40.498,994.26,994.37,10.58,4.31,0.00,1.01,0.27,9.29,0.00,-0.00,0.00,0.00
2026-06-26 17:50:40.502,994.26,994.37,10.58,4.31,0.00,1.01,0.27,9.29,0.00,-0.00,0.00,0.00
2026-06-26 17:50:40.548,994.26,994.37,11.10,4.41,0.00,1.01,0.29,9.28,0.00,-0.00,0.00,0.00
2026-06-26 17:50:40.550,994.26,994.37,11.10,4.41,0.00,1.01,0.29,9.28,0.00,-0.00,0.00,0.00
2026-06-26 17:50:40.554,994.26,994.37,11.10,4.41,0.00,1.01,0.29,9.28,0.00,-0.00,0.00,0.00
2026-06-26 17:50:40.596,994.26,994.36,10.01,4.19,0.00,1.01,0.29,9.26,0.00,0.00,-0.00,0.00
2026-06-26 17:50:40.598,994.26,994.36,10.01,4.19,0.00,1.01,0.29,9.26,0.00,0.00,-0.00,0.00
2026-06-26 17:50:40.600,994.26,994.36,10.01,4.19,0.00,1.01,0.29,9.26,0.00,0.00,-0.00,0.00
2026-06-26 17:50:40.601,994.26,994.36,10.01,4.19,0.00,1.01,0.29,9.26,0.00,0.00,-0.00,0.00
2026-06-26 17:50:40.604,994.26,994.36,10.01,4.19,0.00,1.01,0.29,9.26,0.00,-0.00,0.00,0.00
2026-06-26 17:50:40.606,994.26,994.36,10.01,4.19,0.00,1.01,0.29,9.28,0.00,-0.00,0.00,0.00
2026-06-26 17:50:40.614,994.26,994.36,10.01,4.19,0.00,1.01,0.29,9.28,0.00,-0.00,0.00,0.00
2026-06-26 17:50:40.616,994.26,994.36,10.01,4.19,0.00,1.02,0.28,9.24,0.00,0.00,0.00,0.00
2026-06-26 17:50:40.617,994.26,994.36,10.01,4.19,0.00,1.02,0.28,9.24,0.00,0.00,0.00,0.00
2026-06-26 17:50:40.622,994.26,994.36,10.01,4.19,0.00,1.02,0.28,9.24,0.00,0.00,0.00,0.00
2026-06-26 17:50:40.625,994.26,994.36,10.01,4.19,0.00,1.02,0.27,9.27,-0.00,0.00,0.00,0.00
2026-06-26 17:50:40.626,994.26,994.36,10.01,4.19,0.00,1.02,0.27,9.27,-0.00,0.00,0.00,0.00
2026-06-26 17:50:40.628,994.26,994.36,10.01,4.19,0.00,1.02,0.27,9.27,-0.00,0.00,0.00,0.00
2026-06-26 17:50:40.631,994.26,994.36,10.01,4.19,0.00,1.02,0.27,9.27,-0.00,0.00,0.00,0.00
2026-06-26 17:50:40.634,994.26,994.36,10.01,4.19,0.00,1.02,0.27,9.27,-0.00,0.00,0.00,0.00
2026-06-26 17:50:40.637,994.26,994.36,10.01,4.19,0.00,1.03,0.30,9.28,-0.00,0.00,0.00,0.00
2026-06-26 17:50:40.641,994.26,994.36,10.01,4.19,0.00,1.03,0.30,9.28,-0.00,0.00,0.00,0.00
2026-06-26 17:50:40.645,994.26,994.36,10.01,4.19,0.00,1.03,0.30,9.28,-0.00,0.00,-0.00,0.00
2026-06-26 17:50:40.685,994.26,994.36,9.53,4.09,0.00,1.02,0.29,9.28,0.00,-0.00,0.00,0.00
2026-06-26 17:50:40.687,994.26,994.36,9.53,4.09,0.00,1.02,0.29,9.28,0.00,-0.00,0.00,0.00
2026-06-26 17:50:40.692,994.26,994.36,9.53,4.09,0.00,1.02,0.29,9.28,0.00,-0.00,0.00,0.00
2026-06-26 17:50:40.695,994.26,994.36,9.53,4.09,0.00,1.02,0.29,9.28,-0.00,0.00,0.00,0.00
2026-06-26 17:50:40.738,994.26,994.36,10.33,4.26,0.00,1.02,0.29,9.28,0.00,0.00,0.00,0.00
2026-06-26 17:50:40.744,994.26,994.36,10.33,4.26,0.00,1.02,0.29,9.28,0.00,0.00,0.00,0.00
2026-06-26 17:50:40.746,994.26,994.36,10.33,4.26,0.00,1.01,0.29,9.26,-0.00,0.00,0.00,0.00
2026-06-26 17:50:40.747,994.26,994.36,10.33,4.26,0.00,1.01,0.29,9.26,-0.00,0.00,0.00,0.00
2026-06-26 17:50:40.749,994.26,994.36,10.33,4.26,0.00,1.01,0.29,9.26,-0.00,0.00,0.00,0.00
2026-06-26 17:50:40.750,994.26,994.36,10.33,4.26,0.00,1.01,0.29,9.26,-0.00,0.00,0.00,0.00
2026-06-26 17:50:40.752,994.26,994.36,10.33,4.26,0.00,1.01,0.29,9.26,-0.00,0.00,0.00,0.00
2026-06-26 17:50:40.755,994.26,994.36,10.33,4.26,0.00,1.01,0.29,9.26,0.00,0.00,0.00,0.00
2026-06-26 17:50:40.757,994.26,994.36,10.33,4.26,0.00,1.01,0.30,9.28,0.00,0.00,0.00,0.00
2026-06-26 17:50:40.761,994.26,994.36,10.33,4.26,0.00,1.01,0.30,9.28,0.00,0.00,0.00,0.00
2026-06-26 17:50:40.765,994.26,994.36,10.33,4.26,0.00,1.01,0.30,9.28,0.00,0.00,-0.00,0.00
2026-06-26 17:50:40.767,994.26,994.36,10.33,4.26,0.00,1.00,0.28,9.27,0.00,0.00,-0.00,0.00
2026-06-26 17:50:40.770,994.26,994.36,10.33,4.26,0.00,1.00,0.28,9.27,0.00,0.00,-0.00,0.00
2026-06-26 17:50:40.775,994.26,994.36,10.33,4.26,0.00,1.00,0.28,9.27,0.00,0.00,-0.00,0.00
2026-06-26 17:50:40.777,994.26,994.36,10.33,4.26,0.00,1.01,0.27,9.30,0.00,0.00,-0.00,0.00
2026-06-26 17:50:40.782,994.26,994.36,10.33,4.26,0.00,1.01,0.27,9.30,0.00,0.00,-0.00,0.00
2026-06-26 17:50:40.785,994.26,994.36,10.33,4.26,0.00,1.01,0.27,9.30,0.00,-0.00,0.00,0.00
2026-06-26 17:50:40.834,994.26,994.36,10.75,4.35,0.00,1.01,0.28,9.26,0.00,-0.00,-0.00,0.00
2026-06-26 17:50:40.836,994.26,994.36,10.75,4.35,0.00,1.02,0.27,9.26,-0.00,-0.00,0.00,0.00
2026-06-26 17:50:40.878,994.26,994.36,10.51,4.30,0.00,1.00,0.29,9.28,-0.00,0.00,0.00,0.00
2026-06-26 17:50:40.884,994.26,994.36,10.51,4.30,0.00,1.00,0.29,9.28,-0.00,0.00,0.00,0.00
2026-06-26 17:50:40.886,994.26,994.36,10.51,4.30,0.00,1.02,0.28,9.28,0.00,0.00,0.00,0.00
2026-06-26 17:50:40.887,994.26,994.36,10.51,4.30,0.00,1.02,0.28,9.28,0.00,0.00,0.00,0.00
2026-06-26 17:50:40.889,994.26,994.36,10.51,4.30,0.00,1.02,0.28,9.28,0.00,0.00,0.00,0.00
2026-06-26 17:50:40.895,994.26,994.36,10.51,4.30,0.00,1.02,0.28,9.28,0.00,0.00,0.00,0.00
2026-06-26 17:50:40.896,994.26,994.36,10.51,4.30,0.00,1.01,0.30,9.29,0.00,0.00,0.00,0.00
2026-06-26 17:50:40.898,994.26,994.36,10.51,4.30,0.00,1.01,0.30,9.29,0.00,0.00,0.00,0.00
2026-06-26 17:50:40.900,994.26,994.36,10.51,4.30,0.00,1.01,0.30,9.29,0.00,0.00,0.00,0.00
2026-06-26 17:50:40.901,994.26,994.36,10.51,4.30,0.00,1.01,0.30,9.29,0.00,0.00,0.00,0.00
2026-06-26 17:50:40.905,994.26,994.36,10.51,4.30,0.00,1.01,0.30,9.29,0.00,-0.00,-0.00,0.00
2026-06-26 17:50:40.907,994.26,994.36,10.51,4.30,0.00,1.00,0.29,9.29,0.00,-0.00,-0.00,0.00
2026-06-26 17:50:40.909,994.26,994.36,10.51,4.30,0.00,1.00,0.29,9.29,0.00,-0.00,-0.00,0.00
2026-06-26 17:50:40.915,994.26,994.36,10.51,4.30,0.00,1.00,0.29,9.29,0.00,-0.00,0.00,0.00
2026-06-26 17:50:40.917,994.26,994.36,10.51,4.30,0.00,1.01,0.31,9.31,0.00,-0.00,0.00,0.00
2026-06-26 17:50:40.918,994.26,994.36,10.51,4.30,0.00,1.01,0.31,9.31,0.00,-0.00,0.00,0.00
2026-06-26 17:50:40.924,994.26,994.36,10.51,4.30,0.00,1.01,0.31,9.31,0.00,-0.00,0.00,0.00
2026-06-26 17:50:40.926,994.26,994.36,10.51,4.30,0.00,1.02,0.28,9.27,0.00,-0.00,0.00,0.00
2026-06-26 17:50:40.928,994.26,994.36,10.51,4.30,0.00,1.02,0.28,9.27,0.00,-0.00,0.00,0.00
2026-06-26 17:50:40.975,994.26,994.36,10.35,4.26,0.00,1.02,0.29,9.28,0.00,0.00,-0.00,0.00
2026-06-26 17:50:40.977,994.26,994.36,10.35,4.26,0.00,1.01,0.29,9.25,0.00,0.00,-0.00,0.00
2026-06-26 17:50:41.023,994.26,994.36,10.06,4.20,0.00,1.01,0.29,9.31,0.00,-0.00,0.00,0.00
2026-06-26 17:50:41.028,994.26,994.36,10.06,4.20,0.00,1.02,0.28,9.25,0.00,-0.00,-0.00,0.00
2026-06-26 17:50:41.031,994.26,994.36,10.06,4.20,0.00,1.02,0.28,9.25,0.00,-0.00,-0.00,0.00
2026-06-26 17:50:41.035,994.26,994.36,10.06,4.20,0.00,1.02,0.28,9.25,-0.00,0.00,0.00,0.00
2026-06-26 17:50:41.037,994.26,994.36,10.06,4.20,0.00,1.02,0.32,9.29,-0.00,0.00,0.00,0.00
2026-06-26 17:50:41.039,994.26,994.36,10.06,4.20,0.00,1.02,0.32,9.29,-0.00,0.00,0.00,0.00
2026-06-26 17:50:41.045,994.26,994.36,10.06,4.20,0.00,1.02,0.32,9.29,-0.00,0.00,0.00,0.00
2026-06-26 17:50:41.047,994.26,994.36,10.06,4.20,0.00,1.01,0.28,9.28,0.00,-0.00,-0.00,0.00
2026-06-26 17:50:41.049,994.26,994.36,10.06,4.20,0.00,1.01,0.28,9.28,0.00,-0.00,-0.00,0.00
2026-06-26 17:50:41.051,994.26,994.36,10.06,4.20,0.00,1.01,0.28,9.28,0.00,-0.00,-0.00,0.00
2026-06-26 17:50:41.052,994.26,994.36,10.06,4.20,0.00,1.01,0.28,9.28,0.00,-0.00,-0.00,0.00
2026-06-26 17:50:41.055,994.26,994.36,10.06,4.20,0.00,1.01,0.28,9.28,0.00,0.00,0.00,0.00
2026-06-26 17:50:41.057,994.26,994.36,10.06,4.20,0.00,1.01,0.31,9.29,0.00,0.00,0.00,0.00
2026-06-26 17:50:41.058,994.26,994.36,10.06,4.20,0.00,1.01,0.31,9.29,0.00,0.00,0.00,0.00
2026-06-26 17:50:41.064,994.26,994.36,10.06,4.20,0.00,1.01,0.31,9.29,0.00,0.00,0.00,0.00
2026-06-26 17:50:41.066,994.26,994.36,10.06,4.20,0.00,1.01,0.27,9.27,0.00,0.00,-0.00,0.00
2026-06-26 17:50:41.068,994.26,994.36,10.06,4.20,0.00,1.01,0.27,9.27,0.00,0.00,-0.00,0.00
2026-06-26 17:50:41.073,994.26,994.36,10.06,4.20,0.00,1.01,0.27,9.27,0.00,0.00,-0.00,0.00
2026-06-26 17:50:41.117,994.27,994.36,9.10,4.00,0.00,1.01,0.28,9.28,0.00,0.00,0.00,0.00
2026-06-26 17:50:41.119,994.27,994.36,9.10,4.00,0.00,1.01,0.26,9.30,0.00,0.00,0.00,0.00
2026-06-26 17:50:41.166,994.27,994.36,9.20,4.02,0.00,1.00,0.30,9.27,-0.00,-0.00,0.00,0.00
2026-06-26 17:50:41.167,994.27,994.36,9.20,4.02,0.00,1.01,0.28,9.30,-0.00,-0.00,0.00,0.00
2026-06-26 17:50:41.169,994.27,994.36,9.20,4.02,0.00,1.01,0.28,9.30,-0.00,-0.00,0.00,0.00
2026-06-26 17:50:41.173,994.27,994.36,9.20,4.02,0.00,1.01,0.28,9.30,-0.00,-0.00,0.00,0.00
2026-06-26 17:50:41.176,994.27,994.36,9.20,4.02,0.00,1.01,0.28,9.30,0.00,-0.00,0.00,0.00
2026-06-26 17:50:41.177,994.27,994.36,9.20,4.02,0.00,1.00,0.29,9.24,0.00,-0.00,0.00,0.00
2026-06-26 17:50:41.179,994.27,994.36,9.20,4.02,0.00,1.00,0.29,9.24,0.00,-0.00,0.00,0.00
2026-06-26 17:50:41.185,994.27,994.36,9.20,4.02,0.00,1.00,0.29,9.24,0.00,-0.00,0.00,0.00
2026-06-26 17:50:41.187,994.27,994.36,9.20,4.02,0.00,1.01,0.28,9.27,0.00,-0.00,0.00,0.00
2026-06-26 17:50:41.189,994.27,994.36,9.20,4.02,0.00,1.01,0.28,9.27,0.00,-0.00,0.00,0.00
2026-06-26 17:50:41.195,994.27,994.36,9.20,4.02,0.00,1.01,0.28,9.27,0.00,-0.00,0.00,0.00
2026-06-26 17:50:41.197,994.27,994.36,9.20,4.02,0.00,1.00,0.31,9.28,-0.00,0.00,-0.00,0.00
2026-06-26 17:50:41.199,994.27,994.36,9.20,4.02,0.00,1.00,0.31,9.28,-0.00,0.00,-0.00,0.00
2026-06-26 17:50:41.200,994.27,994.36,9.20,4.02,0.00,1.00,0.31,9.28,-0.00,0.00,-0.00,0.00
2026-06-26 17:50:41.202,994.27,994.36,9.20,4.02,0.00,1.00,0.31,9.28,-0.00,0.00,-0.00,0.00
2026-06-26 17:50:41.205,994.27,994.36,9.20,4.02,0.00,1.00,0.31,9.28,-0.00,0.00,-0.00,0.00
2026-06-26 17:50:41.207,994.27,994.36,9.20,4.02,0.00,1.01,0.30,9.29,0.00,-0.00,0.00,0.00
2026-06-26 17:50:41.209,994.27,994.36,9.20,4.02,0.00,1.01,0.30,9.29,0.00,-0.00,0.00,0.00
2026-06-26 17:50:41.215,994.27,994.36,9.20,4.02,0.00,1.01,0.30,9.29,0.00,-0.00,0.00,0.00
2026-06-26 17:50:41.258,994.26,994.36,9.64,4.11,0.00,1.01,0.30,9.28,0.00,-0.00,0.00,0.00
2026-06-26 17:50:41.262,994.26,994.36,9.64,4.11,0.00,1.01,0.30,9.28,0.00,-0.00,0.00,0.00
2026-06-26 17:50:41.266,994.26,994.36,9.64,4.11,0.00,1.01,0.30,9.28,0.00,0.00,-0.00,0.00
2026-06-26 17:50:41.308,994.26,994.37,10.26,4.25,0.00,1.01,0.28,9.27,0.00,-0.00,-0.00,0.00
2026-06-26 17:50:41.313,994.26,994.37,10.26,4.25,0.00,1.01,0.28,9.27,0.00,-0.00,-0.00,0.00
2026-06-26 17:50:41.316,994.26,994.37,10.26,4.25,0.00,1.01,0.28,9.27,0.00,0.00,-0.00,0.00
2026-06-26 17:50:41.318,994.26,994.37,10.26,4.25,0.00,1.02,0.27,9.25,0.00,0.00,-0.00,0.00
2026-06-26 17:50:41.325,994.26,994.37,10.26,4.25,0.00,1.02,0.27,9.25,0.00,0.00,-0.00,0.00
2026-06-26 17:50:41.328,994.26,994.37,10.26,4.25,0.00,1.02,0.28,9.27,0.00,-0.00,-0.00,0.00
2026-06-26 17:50:41.329,994.26,994.37,10.26,4.25,0.00,1.02,0.28,9.27,0.00,-0.00,-0.00,0.00
2026-06-26 17:50:41.333,994.26,994.37,10.26,4.25,0.00,1.02,0.28,9.27,0.00,-0.00,-0.00,0.00
2026-06-26 17:50:41.336,994.26,994.37,10.26,4.25,0.00,1.02,0.28,9.27,0.00,0.00,0.00,0.00
2026-06-26 17:50:41.338,994.26,994.37,10.26,4.25,0.00,1.00,0.29,9.30,0.00,0.00,0.00,0.00
2026-06-26 17:50:41.340,994.26,994.37,10.26,4.25,0.00,1.00,0.29,9.30,0.00,0.00,0.00,0.00
2026-06-26 17:50:41.346,994.26,994.37,10.26,4.25,0.00,1.00,0.29,9.30,0.00,0.00,0.00,0.00
2026-06-26 17:50:41.348,994.26,994.37,10.26,4.25,0.00,1.03,0.29,9.27,0.00,-0.00,-0.00,0.00
2026-06-26 17:50:41.350,994.26,994.37,10.26,4.25,0.00,1.03,0.29,9.27,0.00,-0.00,-0.00,0.00
2026-06-26 17:50:41.352,994.26,994.37,10.26,4.25,0.00,1.03,0.29,9.27,0.00,-0.00,-0.00,0.00
2026-06-26 17:50:41.356,994.26,994.37,10.26,4.25,0.00,1.03,0.29,9.27,0.00,0.00,0.00,0.00
2026-06-26 17:50:41.358,994.26,994.37,10.26,4.25,0.00,1.00,0.31,9.27,0.00,0.00,0.00,0.00
2026-06-26 17:50:41.406,994.26,994.37,10.51,4.30,0.00,1.02,0.26,9.28,0.00,0.00,0.00,0.00
2026-06-26 17:50:41.407,994.26,994.37,10.51,4.30,0.00,1.01,0.29,9.29,0.00,0.00,0.00,0.00
2026-06-26 17:50:41.450,994.26,994.37,10.67,4.33,0.00,1.01,0.30,9.29,0.00,-0.01,0.00,0.00
2026-06-26 17:50:41.452,994.26,994.37,10.67,4.33,0.00,1.01,0.30,9.29,0.00,-0.01,0.00,0.00
2026-06-26 17:50:41.455,994.26,994.37,10.67,4.33,0.00,1.01,0.30,9.29,0.00,-0.01,0.00,0.00
2026-06-26 17:50:41.457,994.26,994.37,10.67,4.33,0.00,0.99,0.27,9.29,0.00,-0.00,0.00,0.00
2026-06-26 17:50:41.458,994.26,994.37,10.67,4.33,0.00,0.99,0.27,9.29,0.00,-0.00,0.00,0.00
2026-06-26 17:50:41.460,994.26,994.37,10.67,4.33,0.00,0.99,0.27,9.29,0.00,-0.00,0.00,0.00
2026-06-26 17:50:41.466,994.26,994.37,10.67,4.33,0.00,0.99,0.27,9.29,0.00,-0.00,0.00,0.00
2026-06-26 17:50:41.467,994.26,994.37,10.67,4.33,0.00,1.01,0.28,9.27,-0.00,0.00,0.00,0.00
2026-06-26 17:50:41.469,994.26,994.37,10.67,4.33,0.00,1.01,0.28,9.27,-0.00,0.00,0.00,0.00
2026-06-26 17:50:41.472,994.26,994.37,10.67,4.33,0.00,1.01,0.28,9.27,-0.00,0.00,0.00,0.00
2026-06-26 17:50:41.476,994.26,994.37,10.67,4.33,0.00,1.01,0.28,9.27,0.00,0.00,-0.00,0.00
2026-06-26 17:50:41.478,994.26,994.37,10.67,4.33,0.00,1.01,0.29,9.27,0.00,0.00,-0.00,0.00
2026-06-26 17:50:41.481,994.26,994.37,10.67,4.33,0.00,1.01,0.29,9.27,0.00,0.00,-0.00,0.00
2026-06-26 17:50:41.486,994.26,994.37,10.67,4.33,0.00,1.01,0.29,9.27,0.00,0.00,-0.00,0.00
2026-06-26 17:50:41.488,994.26,994.37,10.67,4.33,0.00,1.00,0.29,9.25,-0.00,-0.00,0.00,0.00
2026-06-26 17:50:41.490,994.26,994.37,10.67,4.33,0.00,1.00,0.29,9.25,-0.00,-0.00,0.00,0.00
2026-06-26 17:50:41.496,994.26,994.37,10.67,4.33,0.00,1.00,0.29,9.25,-0.00,-0.00,0.00,0.00
2026-06-26 17:50:41.498,994.26,994.37,10.67,4.33,0.00,1.01,0.28,9.27,-0.00,-0.00,0.00,0.00
2026-06-26 17:50:41.500,994.26,994.37,10.67,4.33,0.00,1.01,0.28,9.27,-0.00,-0.00,0.00,0.00
2026-06-26 17:50:41.502,994.26,994.37,10.67,4.33,0.00,1.01,0.28,9.27,-0.00,-0.00,0.00,0.00
2026-06-26 17:50:41.547,994.27,994.37,10.06,4.20,0.00,1.01,0.27,9.28,0.00,0.00,0.00,0.00
2026-06-26 17:50:41.548,994.27,994.37,10.06,4.20,0.00,1.01,0.27,9.27,0.00,0.00,0.00,0.00
2026-06-26 17:50:41.595,994.27,994.36,8.81,3.93,0.00,1.03,0.29,9.28,-0.00,-0.00,0.00,0.00
2026-06-26 17:50:41.597,994.27,994.36,8.81,3.93,0.00,1.03,0.31,9.30,0.00,0.00,0.00,0.00
2026-06-26 17:50:41.599,994.27,994.36,8.81,3.93,0.00,1.03,0.31,9.30,0.00,0.00,0.00,0.00
2026-06-26 17:50:41.601,994.27,994.36,8.81,3.93,0.00,1.03,0.31,9.30,0.00,0.00,0.00,0.00
2026-06-26 17:50:41.602,994.27,994.36,8.81,3.93,0.00,1.03,0.31,9.30,0.00,0.00,0.00,0.00
2026-06-26 17:50:41.604,994.27,994.36,8.81,3.93,0.00,1.03,0.31,9.30,0.00,0.00,0.00,0.00
2026-06-26 17:50:41.607,994.27,994.36,8.81,3.93,0.00,1.01,0.27,9.30,0.00,0.00,0.00,0.00
2026-06-26 17:50:41.609,994.27,994.36,8.81,3.93,0.00,1.01,0.27,9.30,0.00,0.00,0.00,0.00
2026-06-26 17:50:41.610,994.27,994.36,8.81,3.93,0.00,1.01,0.27,9.30,0.00,0.00,0.00,0.00
2026-06-26 17:50:41.616,994.27,994.36,8.81,3.93,0.00,1.01,0.27,9.30,0.00,0.00,0.00,0.00
2026-06-26 17:50:41.617,994.27,994.36,8.81,3.93,0.00,1.01,0.28,9.31,0.00,-0.00,0.00,0.00
2026-06-26 17:50:41.619,994.27,994.36,8.81,3.93,0.00,1.01,0.28,9.31,0.00,-0.00,0.00,0.00
2026-06-26 17:50:41.626,994.27,994.36,8.81,3.93,0.00,1.01,0.28,9.31,0.00,-0.00,0.00,0.00
2026-06-26 17:50:41.629,994.27,994.36,8.81,3.93,0.00,1.00,0.29,9.27,-0.00,0.00,0.00,0.00
2026-06-26 17:50:41.631,994.27,994.36,8.81,3.93,0.00,1.00,0.29,9.27,-0.00,0.00,0.00,0.00
2026-06-26 17:50:41.636,994.27,994.36,8.81,3.93,0.00,1.00,0.29,9.27,-0.00,0.00,0.00,0.00
2026-06-26 17:50:41.638,994.27,994.36,8.81,3.93,0.00,1.03,0.28,9.27,-0.00,0.00,0.00,0.00
2026-06-26 17:50:41.640,994.27,994.36,8.81,3.93,0.00,1.03,0.28,9.27,-0.00,0.00,0.00,0.00
2026-06-26 17:50:41.646,994.27,994.36,8.81,3.93,0.00,1.03,0.28,9.27,-0.00,0.00,0.00,0.00
2026-06-26 17:50:41.690,994.27,994.36,8.30,3.82,0.00,1.00,0.28,9.28,0.00,0.00,0.00,0.00
2026-06-26 17:50:41.736,994.27,994.35,7.45,3.62,0.00,1.00,0.28,9.24,0.00,0.00,-0.00,0.00
2026-06-26 17:50:41.738,994.27,994.35,7.45,3.62,0.00,1.02,0.29,9.27,0.00,-0.00,0.00,0.00
2026-06-26 17:50:41.741,994.27,994.35,7.45,3.62,0.00,1.02,0.29,9.27,0.00,-0.00,0.00,0.00
2026-06-26 17:50:41.747,994.27,994.35,7.45,3.62,0.00,1.02,0.29,9.27,0.00,-0.00,0.00,0.00
2026-06-26 17:50:41.749,994.27,994.35,7.45,3.62,0.00,1.01,0.31,9.27,0.00,-0.00,0.00,0.00
2026-06-26 17:50:41.751,994.27,994.35,7.45,3.62,0.00,1.01,0.31,9.27,0.00,-0.00,0.00,0.00
2026-06-26 17:50:41.753,994.27,994.35,7.45,3.62,0.00,1.01,0.31,9.27,0.00,-0.00,0.00,0.00
2026-06-26 17:50:41.756,994.27,994.35,7.45,3.62,0.00,1.01,0.31,9.27,0.00,-0.00,0.00,0.00
2026-06-26 17:50:41.758,994.27,994.35,7.45,3.62,0.00,1.01,0.28,9.28,0.00,0.00,0.00,0.00
2026-06-26 17:50:41.760,994.27,994.35,7.45,3.62,0.00,1.01,0.28,9.28,0.00,0.00,0.00,0.00
2026-06-26 17:50:41.764,994.27,994.35,7.45,3.62,0.00,1.01,0.28,9.28,0.00,0.00,0.00,0.00
2026-06-26 17:50:41.767,994.27,994.35,7.45,3.62,0.00,1.01,0.28,9.28,-0.00,0.00,0.00,0.00
2026-06-26 17:50:41.769,994.27,994.35,7.45,3.62,0.00,1.03,0.28,9.24,-0.00,0.00,0.00,0.00
2026-06-26 17:50:41.776,994.27,994.35,7.45,3.62,0.00,1.03,0.28,9.24,-0.00,0.00,0.00,0.00
2026-06-26 17:50:41.778,994.27,994.35,7.45,3.62,0.00,1.01,0.28,9.27,-0.00,0.00,0.00,0.00
2026-06-26 17:50:41.780,994.27,994.35,7.45,3.62,0.00,1.01,0.28,9.27,-0.00,0.00,0.00,0.00
2026-06-26 17:50:41.786,994.27,994.35,7.45,3.62,0.00,1.01,0.28,9.27,-0.00,0.00,0.00,0.00
2026-06-26 17:50:41.789,994.27,994.35,7.45,3.62,0.00,0.99,0.29,9.27,-0.00,0.00,0.00,0.00
