timestamp,pressure_bag,pressure_bme,diff_pressure,v_wind_est,speed,accel_x,accel_y,accel_z,gyro_x,gyro_y,gyro_z,power
2026-06-26 17:56:26.041,994.19,994.22,3.00,2.30,0.00,1.01,0.31,9.28,-0.00,0.00,0.00,0.00
2026-06-26 17:56:26.042,994.19,994.22,3.00,2.30,0.00,1.01,0.31,9.28,-0.00,0.00,0.00,0.00
2026-06-26 17:56:26.044,994.19,994.22,3.00,2.30,0.00,1.01,0.31,9.28,-0.00,0.00,0.00,0.00
2026-06-26 17:56:26.049,994.19,994.22,3.00,2.30,0.00,1.01,0.31,9.28,-0.00,0.00,0.00,0.00
2026-06-26 17:56:26.051,994.19,994.22,3.00,2.30,0.00,1.01,0.30,9.26,0.00,0.00,0.00,0.00
2026-06-26 17:56:26.052,994.19,994.22,3.00,2.30,0.00,1.01,0.30,9.26,0.00,0.00,0.00,0.00
2026-06-26 17:56:26.053,994.19,994.22,3.00,2.30,0.00,1.01,0.30,9.26,0.00,0.00,0.00,0.00
2026-06-26 17:56:26.055,994.19,994.22,3.00,2.30,0.00,1.01,0.30,9.26,0.00,0.00,0.00,0.00
2026-06-26 17:56:26.060,994.19,994.22,3.00,2.30,0.00,1.01,0.30,9.26,0.00,0.00,0.00,0.00
2026-06-26 17:56:26.061,994.19,994.22,3.00,2.30,0.00,1.01,0.31,9.24,-0.00,0.00,-0.00,0.00
2026-06-26 17:56:26.063,994.19,994.22,3.00,2.30,0.00,1.01,0.31,9.24,-0.00,0.00,-0.00,0.00
2026-06-26 17:56:26.067,994.19,994.22,3.00,2.30,0.00,1.01,0.31,9.24,-0.00,0.00,-0.00,0.00
2026-06-26 17:56:26.070,994.19,994.22,3.00,2.30,0.00,1.01,0.31,9.24,-0.00,0.00,0.00,0.00
2026-06-26 17:56:26.072,994.19,994.22,3.00,2.30,0.00,0.99,0.29,9.26,-0.00,0.00,0.00,0.00
2026-06-26 17:56:26.073,994.19,994.22,3.00,2.30,0.00,0.99,0.29,9.26,-0.00,0.00,0.00,0.00
2026-06-26 17:56:26.074,994.19,994.22,3.00,2.30,0.00,0.99,0.29,9.26,-0.00,0.00,0.00,0.00
2026-06-26 17:56:26.076,994.19,994.22,3.00,2.30,0.00,0.99,0.29,9.26,-0.00,0.00,0.00,0.00
2026-06-26 17:56:26.080,994.19,994.22,3.00,2.30,0.00,0.99,0.29,9.26,-0.00,0.00,0.00,0.00
2026-06-26 17:56:26.082,994.19,994.22,3.00,2.30,0.00,1.01,0.31,9.27,-0.00,0.00,0.00,0.00
2026-06-26 17:56:26.084,994.19,994.22,3.00,2.30,0.00,1.01,0.31,9.27,-0.00,0.00,0.00,0.00
2026-06-26 17:56:26.089,994.19,994.22,3.00,2.30,0.00,1.01,0.31,9.27,-0.00,0.00,0.00,0.00
2026-06-26 17:56:26.091,994.19,994.22,3.00,2.30,0.00,1.01,0.29,9.28,0.00,-0.00,0.00,0.00
2026-06-26 17:56:26.092,994.19,994.22,3.00,2.30,0.00,1.01,0.29,9.28,0.00,-0.00,0.00,0.00
2026-06-26 17:56:26.093,994.19,994.22,3.00,2.30,0.00,1.01,0.29,9.28,0.00,-0.00,0.00,0.00
2026-06-26 17:56:26.096,994.19,994.22,3.00,2.30,0.00,1.01,0.29,9.28,0.00,-0.00,0.00,0.00
2026-06-26 17:56:26.109,994.19,994.22,3.00,2.30,0.00,1.01,0.29,9.28,0.00,-0.00,0.00,0.00
2026-06-26 17:56:26.191,994.19,994.22,2.68,2.17,0.00,1.02,0.30,9.28,-0.00,0.00,-0.00,0.00
2026-06-26 17:56:26.193,994.19,994.22,2.68,2.17,0.00,1.02,0.30,9.28,-0.00,0.00,-0.00,0.00
2026-06-26 17:56:26.194,994.19,994.22,2.68,2.17,0.00,1.02,0.30,9.28,-0.00,0.00,-0.00,0.00
2026-06-26 17:56:26.198,994.19,994.22,2.68,2.17,0.00,1.02,0.30,9.28,-0.00,0.00,-0.00,0.00
2026-06-26 17:56:26.200,994.19,994.22,2.68,2.17,0.00,1.03,0.30,9.26,0.00,0.00,0.00,0.00
2026-06-26 17:56:26.202,994.19,994.22,2.68,2.17,0.00,1.03,0.30,9.26,0.00,0.00,0.00,0.00
2026-06-26 17:56:26.207,994.19,994.22,2.68,2.17,0.00,1.03,0.30,9.26,0.00,0.00,0.00,0.00
2026-06-26 17:56:26.211,994.19,994.22,2.68,2.17,0.00,1.03,0.30,9.26,-0.00,-0.00,0.00,0.00
2026-06-26 17:56:26.212,994.19,994.22,2.68,2.17,0.00,1.01,0.30,9.29,-0.00,-0.00,0.00,0.00
2026-06-26 17:56:26.215,994.19,994.22,2.68,2.17,0.00,1.01,0.30,9.29,-0.00,-0.00,0.00,0.00
2026-06-26 17:56:26.220,994.19,994.22,2.68,2.17,0.00,1.01,0.30,9.29,-0.00,-0.00,-0.00,0.00
2026-06-26 17:56:26.222,994.19,994.22,2.68,2.17,0.00,1.03,0.29,9.28,-0.00,-0.00,-0.00,0.00
2026-06-26 17:56:26.225,994.19,994.22,2.68,2.17,0.00,1.03,0.29,9.28,-0.00,-0.00,-0.00,0.00
2026-06-26 17:56:26.229,994.19,994.22,2.68,2.17,0.00,1.03,0.29,9.28,-0.00,-0.00,-0.00,0.00
2026-06-26 17:56:26.231,994.19,994.22,2.68,2.17,0.00,1.02,0.28,9.31,0.00,0.00,0.00,0.00
2026-06-26 17:56:26.233,994.19,994.22,2.68,2.17,0.00,1.02,0.28,9.31,0.00,0.00,0.00,0.00
2026-06-26 17:56:26.240,994.19,994.22,2.68,2.17,0.00,1.02,0.28,9.31,0.00,0.00,0.00,0.00
2026-06-26 17:56:26.241,994.19,994.22,2.68,2.17,0.00,1.03,0.28,9.27,-0.00,0.00,0.00,0.00
2026-06-26 17:56:26.242,994.19,994.22,2.68,2.17,0.00,1.03,0.28,9.27,-0.00,0.00,0.00,0.00
2026-06-26 17:56:26.244,994.19,994.22,2.68,2.17,0.00,1.03,0.28,9.27,-0.00,0.00,0.00,0.00
2026-06-26 17:56:26.246,994.19,994.22,2.68,2.17,0.00,1.03,0.28,9.27,-0.00,0.00,0.00,0.00
2026-06-26 17:56:26.250,994.19,994.22,2.68,2.17,0.00,1.03,0.28,9.27,0.00,0.00,0.00,0.00
2026-06-26 17:56:26.252,994.19,994.22,2.68,2.17,0.00,1.01,0.29,9.25,0.00,0.00,0.00,0.00
2026-06-26 17:56:26.332,994.20,994.22,1.38,1.56,0.00,1.01,0.30,9.28,-0.00,0.01,0.00,0.00
2026-06-26 17:56:26.333,994.20,994.22,1.38,1.56,0.00,1.01,0.30,9.28,-0.00,0.01,0.00,0.00
2026-06-26 17:56:26.336,994.20,994.22,1.38,1.56,0.00,1.01,0.30,9.28,-0.00,0.01,0.00,0.00
2026-06-26 17:56:26.341,994.20,994.22,1.38,1.56,0.00,1.01,0.30,9.28,-0.00,-0.00,0.00,0.00
2026-06-26 17:56:26.347,994.20,994.22,1.38,1.56,0.00,1.01,0.28,9.26,-0.00,-0.00,0.00,0.00
2026-06-26 17:56:26.351,994.20,994.22,1.38,1.56,0.00,1.01,0.28,9.26,-0.00,0.00,0.00,0.00
2026-06-26 17:56:26.352,994.20,994.22,1.38,1.56,0.00,0.99,0.31,9.27,-0.00,0.00,0.00,0.00
2026-06-26 17:56:26.354,994.20,994.22,1.38,1.56,0.00,0.99,0.31,9.27,-0.00,0.00,0.00,0.00
2026-06-26 17:56:26.355,994.20,994.22,1.38,1.56,0.00,0.99,0.31,9.27,-0.00,0.00,0.00,0.00
2026-06-26 17:56:26.360,994.20,994.22,1.38,1.56,0.00,0.99,0.31,9.27,-0.00,0.00,0.00,0.00
2026-06-26 17:56:26.361,994.20,994.22,1.38,1.56,0.00,1.00,0.30,9.26,0.00,0.00,0.00,0.00
2026-06-26 17:56:26.363,994.20,994.22,1.38,1.56,0.00,1.00,0.30,9.26,0.00,0.00,0.00,0.00
2026-06-26 17:56:26.364,994.20,994.22,1.38,1.56,0.00,1.00,0.30,9.26,0.00,0.00,0.00,0.00
2026-06-26 17:56:26.368,994.20,994.22,1.38,1.56,0.00,1.00,0.30,9.26,0.00,0.00,0.00,0.00
2026-06-26 17:56:26.371,994.20,994.22,1.38,1.56,0.00,1.03,0.30,9.28,-0.00,0.00,0.00,0.00
2026-06-26 17:56:26.373,994.20,994.22,1.38,1.56,0.00,1.03,0.30,9.28,-0.00,0.00,0.00,0.00
2026-06-26 17:56:26.374,994.20,994.22,1.38,1.56,0.00,1.03,0.30,9.28,-0.00,0.00,0.00,0.00
2026-06-26 17:56:26.375,994.20,994.22,1.38,1.56,0.00,1.03,0.30,9.28,-0.00,0.00,0.00,0.00
2026-06-26 17:56:26.376,994.20,994.22,1.38,1.56,0.00,1.03,0.30,9.28,-0.00,0.00,0.00,0.00
2026-06-26 17:56:26.378,994.20,994.22,1.38,1.56,0.00,1.03,0.30,9.28,-0.00,0.00,0.00,0.00
2026-06-26 17:56:26.381,994.20,994.22,1.38,1.56,0.00,1.03,0.30,9.28,-0.00,-0.00,0.00,0.00
2026-06-26 17:56:26.382,994.20,994.22,1.38,1.56,0.00,1.00,0.29,9.28,-0.00,-0.00,0.00,0.00
2026-06-26 17:56:26.383,994.20,994.22,1.38,1.56,0.00,1.00,0.29,9.28,-0.00,-0.00,0.00,0.00
2026-06-26 17:56:26.385,994.20,994.22,1.38,1.56,0.00,1.00,0.29,9.28,-0.00,-0.00,0.00,0.00
2026-06-26 17:56:26.389,994.20,994.22,1.38,1.56,0.00,1.00,0.29,9.28,-0.00,-0.00,0.00,0.00
2026-06-26 17:56:26.391,994.20,994.22,1.38,1.56,0.00,1.02,0.29,9.28,-0.00,-0.00,-0.00,0.00
2026-06-26 17:56:26.398,994.20,994.22,1.38,1.56,0.00,1.02,0.29,9.28,-0.00,-0.00,-0.00,0.00
2026-06-26 17:56:26.481,994.20,994.21,0.91,1.26,0.00,1.01,0.31,9.29,0.00,0.01,0.00,0.00
2026-06-26 17:56:26.482,994.20,994.21,0.91,1.26,0.00,1.01,0.30,9.28,0.00,0.01,0.00,0.00
2026-06-26 17:56:26.484,994.20,994.21,0.91,1.26,0.00,1.01,0.30,9.28,0.00,0.01,0.00,0.00
2026-06-26 17:56:26.485,994.20,994.21,0.91,1.26,0.00,1.01,0.30,9.28,0.00,0.01,0.00,0.00
2026-06-26 17:56:26.489,994.20,994.21,0.91,1.26,0.00,1.01,0.30,9.28,0.00,0.01,0.00,0.00
2026-06-26 17:56:26.491,994.20,994.21,0.91,1.26,0.00,1.01,0.30,9.28,0.00,0.00,-0.00,0.00
2026-06-26 17:56:26.493,994.20,994.21,0.91,1.26,0.00,1.01,0.30,9.28,0.00,0.00,-0.00,0.00
2026-06-26 17:56:26.498,994.20,994.21,0.91,1.26,0.00,1.01,0.30,9.28,0.00,0.00,-0.00,0.00
2026-06-26 17:56:26.501,994.20,994.21,0.91,1.26,0.00,1.01,0.30,9.28,0.00,0.00,0.00,0.00
2026-06-26 17:56:26.502,994.20,994.21,0.91,1.26,0.00,1.01,0.28,9.25,0.00,0.00,0.00,0.00
2026-06-26 17:56:26.503,994.20,994.21,0.91,1.26,0.00,1.01,0.28,9.25,0.00,0.00,0.00,0.00
2026-06-26 17:56:26.505,994.20,994.21,0.91,1.26,0.00,1.01,0.28,9.25,0.00,0.00,0.00,0.00
2026-06-26 17:56:26.506,994.20,994.21,0.91,1.26,0.00,1.01,0.28,9.25,0.00,0.00,0.00,0.00
2026-06-26 17:56:26.510,994.20,994.21,0.91,1.26,0.00,1.01,0.28,9.25,0.00,0.00,0.00,0.00
2026-06-26 17:56:26.513,994.20,994.21,0.91,1.26,0.00,1.01,0.30,9.30,-0.00,-0.00,-0.00,0.00
2026-06-26 17:56:26.514,994.20,994.21,0.91,1.26,0.00,1.01,0.30,9.30,-0.00,-0.00,-0.00,0.00
2026-06-26 17:56:26.521,994.20,994.21,0.91,1.26,0.00,1.01,0.30,9.30,-0.00,-0.00,-0.00,0.00
2026-06-26 17:56:26.522,994.20,994.21,0.91,1.26,0.00,1.01,0.31,9.28,-0.00,0.00,0.00,0.00
2026-06-26 17:56:26.524,994.20,994.21,0.91,1.26,0.00,1.01,0.31,9.28,-0.00,0.00,0.00,0.00
2026-06-26 17:56:26.525,994.20,994.21,0.91,1.26,0.00,1.01,0.31,9.28,-0.00,0.00,0.00,0.00
2026-06-26 17:56:26.526,994.20,994.21,0.91,1.26,0.00,1.01,0.31,9.28,-0.00,0.00,0.00,0.00
2026-06-26 17:56:26.528,994.20,994.21,0.91,1.26,0.00,1.01,0.31,9.28,-0.00,0.00,0.00,0.00
2026-06-26 17:56:26.531,994.20,994.21,0.91,1.26,0.00,1.01,0.31,9.28,-0.00,0.00,-0.00,0.00
2026-06-26 17:56:26.532,994.20,994.21,0.91,1.26,0.00,1.01,0.28,9.24,-0.00,0.00,-0.00,0.00
2026-06-26 17:56:26.534,994.20,994.21,0.91,1.26,0.00,1.01,0.28,9.24,-0.00,0.00,-0.00,0.00
2026-06-26 17:56:26.540,994.20,994.21,0.91,1.26,0.00,1.01,0.28,9.24,-0.00,0.00,-0.00,0.00
2026-06-26 17:56:26.626,994.20,994.21,1.02,1.34,0.00,1.01,0.30,9.27,-0.00,0.00,0.00,0.00
2026-06-26 17:56:26.627,994.20,994.21,1.02,1.34,0.00,1.01,0.30,9.27,-0.00,0.00,0.00,0.00
2026-06-26 17:56:26.630,994.20,994.21,1.02,1.34,0.00,1.01,0.30,9.27,-0.00,0.00,0.00,0.00
2026-06-26 17:56:26.631,994.20,994.21,1.02,1.34,0.00,1.01,0.31,9.27,-0.00,-0.00,-0.00,0.00
2026-06-26 17:56:26.633,994.20,994.21,1.02,1.34,0.00,1.01,0.31,9.27,-0.00,-0.00,-0.00,0.00
2026-06-26 17:56:26.634,994.20,994.21,1.02,1.34,0.00,1.01,0.31,9.27,-0.00,-0.00,-0.00,0.00
2026-06-26 17:56:26.635,994.20,994.21,1.02,1.34,0.00,1.01,0.31,9.27,-0.00,-0.00,-0.00,0.00
2026-06-26 17:56:26.639,994.20,994.21,1.02,1.34,0.00,1.01,0.31,9.27,-0.00,-0.00,-0.00,0.00
2026-06-26 17:56:26.641,994.20,994.21,1.02,1.34,0.00,1.00,0.29,9.26,-0.00,0.00,-0.00,0.00
2026-06-26 17:56:26.643,994.20,994.21,1.02,1.34,0.00,1.00,0.29,9.26,-0.00,0.00,-0.00,0.00
2026-06-26 17:56:26.645,994.20,994.21,1.02,1.34,0.00,1.00,0.29,9.26,-0.00,0.00,-0.00,0.00
2026-06-26 17:56:26.649,994.20,994.21,1.02,1.34,0.00,1.00,0.29,9.26,-0.00,0.00,-0.00,0.00
2026-06-26 17:56:26.651,994.20,994.21,1.02,1.34,0.00,1.01,0.30,9.26,-0.00,-0.00,0.00,0.00
2026-06-26 17:56:26.653,994.20,994.21,1.02,1.34,0.00,1.01,0.30,9.26,-0.00,-0.00,0.00,0.00
2026-06-26 17:56:26.654,994.20,994.21,1.02,1.34,0.00,1.01,0.30,9.26,-0.00,-0.00,0.00,0.00
2026-06-26 17:56:26.658,994.20,994.21,1.02,1.34,0.00,1.01,0.30,9.26,-0.00,-0.00,0.00,0.00
2026-06-26 17:56:26.661,994.20,994.21,1.02,1.34,0.00,1.01,0.30,9.26,-0.00,-0.00,-0.00,0.00
2026-06-26 17:56:26.663,994.20,994.21,1.02,1.34,0.00,1.02,0.29,9.25,-0.00,-0.00,-0.00,0.00
2026-06-26 17:56:26.664,994.20,994.21,1.02,1.34,0.00,1.02,0.29,9.25,-0.00,-0.00,-0.00,0.00
2026-06-26 17:56:26.667,994.20,994.21,1.02,1.34,0.00,1.02,0.29,9.25,-0.00,-0.00,-0.00,0.00
2026-06-26 17:56:26.671,994.20,994.21,1.02,1.34,0.00,1.02,0.29,9.25,0.00,-0.00,0.00,0.00
2026-06-26 17:56:26.674,994.20,994.21,1.02,1.34,0.00,1.01,0.31,9.29,0.00,-0.00,0.00,0.00
2026-06-26 17:56:26.675,994.20,994.21,1.02,1.34,0.00,1.01,0.31,9.29,0.00,-0.00,0.00,0.00
2026-06-26 17:56:26.676,994.20,994.21,1.02,1.34,0.00,1.01,0.31,9.29,0.00,-0.00,0.00,0.00
2026-06-26 17:56:26.678,994.20,994.21,1.02,1.34,0.00,1.01,0.31,9.29,0.00,-0.00,0.00,0.00
2026-06-26 17:56:26.681,994.20,994.21,1.02,1.34,0.00,1.01,0.31,9.29,0.00,-0.00,0.00,0.00
2026-06-26 17:56:26.722,994.20,994.21,1.35,1.54,0.00,1.01,0.29,9.27,0.00,0.00,0.00,0.00
2026-06-26 17:56:26.724,994.20,994.21,1.35,1.54,0.00,1.01,0.29,9.27,0.00,0.00,0.00,0.00
2026-06-26 17:56:26.725,994.20,994.21,1.35,1.54,0.00,1.01,0.29,9.27,0.00,0.00,0.00,0.00
2026-06-26 17:56:26.771,994.20,994.21,1.35,1.54,0.00,1.01,0.31,9.26,0.00,-0.00,0.00,0.00
2026-06-26 17:56:26.772,994.20,994.21,1.35,1.54,0.00,1.01,0.30,9.28,0.00,0.00,-0.00,0.00
2026-06-26 17:56:26.774,994.20,994.21,1.35,1.54,0.00,1.01,0.30,9.28,0.00,0.00,-0.00,0.00
2026-06-26 17:56:26.775,994.20,994.21,1.35,1.54,0.00,1.01,0.30,9.28,0.00,0.00,-0.00,0.00
2026-06-26 17:56:26.776,994.20,994.21,1.35,1.54,0.00,1.01,0.30,9.28,0.00,0.00,-0.00,0.00
2026-06-26 17:56:26.777,994.20,994.21,1.35,1.54,0.00,1.01,0.30,9.28,0.00,0.00,-0.00,0.00
2026-06-26 17:56:26.779,994.20,994.21,1.35,1.54,0.00,1.01,0.30,9.28,0.00,0.00,-0.00,0.00
2026-06-26 17:56:26.781,994.20,994.21,1.35,1.54,0.00,1.01,0.30,9.28,0.00,0.00,-0.00,0.00
2026-06-26 17:56:26.782,994.20,994.21,1.35,1.54,0.00,1.01,0.30,9.26,-0.00,-0.00,0.00,0.00
2026-06-26 17:56:26.783,994.20,994.21,1.35,1.54,0.00,1.01,0.30,9.26,-0.00,-0.00,0.00,0.00
2026-06-26 17:56:26.785,994.20,994.21,1.35,1.54,0.00,1.01,0.30,9.26,-0.00,-0.00,0.00,0.00
2026-06-26 17:56:26.788,994.20,994.21,1.35,1.54,0.00,1.01,0.30,9.26,-0.00,-0.00,0.00,0.00
2026-06-26 17:56:26.792,994.20,994.21,1.35,1.54,0.00,1.01,0.30,9.26,0.00,0.00,-0.00,0.00
2026-06-26 17:56:26.793,994.20,994.21,1.35,1.54,0.00,1.01,0.29,9.27,0.00,0.00,-0.00,0.00
2026-06-26 17:56:26.795,994.20,994.21,1.35,1.54,0.00,1.01,0.29,9.27,0.00,0.00,-0.00,0.00
2026-06-26 17:56:26.798,994.20,994.21,1.35,1.54,0.00,1.01,0.29,9.27,0.00,0.00,-0.00,0.00
2026-06-26 17:56:26.802,994.20,994.21,1.35,1.54,0.00,1.01,0.29,9.27,0.00,0.00,0.00,0.00
2026-06-26 17:56:26.803,994.20,994.21,1.35,1.54,0.00,1.01,0.30,9.22,0.00,0.00,0.00,0.00
2026-06-26 17:56:26.804,994.20,994.21,1.35,1.54,0.00,1.01,0.30,9.22,0.00,0.00,0.00,0.00
2026-06-26 17:56:26.806,994.20,994.21,1.35,1.54,0.00,1.01,0.30,9.22,0.00,0.00,0.00,0.00
2026-06-26 17:56:26.811,994.20,994.21,1.35,1.54,0.00,1.01,0.30,9.22,0.00,0.00,0.00,0.00
2026-06-26 17:56:26.813,994.20,994.21,1.35,1.54,0.00,1.03,0.29,9.27,0.00,-0.00,-0.00,0.00
2026-06-26 17:56:26.816,994.20,994.21,1.35,1.54,0.00,1.03,0.29,9.27,0.00,-0.00,-0.00,0.00
2026-06-26 17:56:26.821,994.20,994.21,1.35,1.54,0.00,1.03,0.29,9.27,0.00,-0.00,0.00,0.00
2026-06-26 17:56:26.863,994.20,994.21,1.22,1.46,0.00,1.01,0.28,9.29,0.00,-0.00,0.00,0.00
2026-06-26 17:56:26.865,994.20,994.21,1.22,1.46,0.00,1.01,0.28,9.29,0.00,-0.00,0.00,0.00
2026-06-26 17:56:26.866,994.20,994.21,1.22,1.46,0.00,1.01,0.28,9.29,0.00,-0.00,0.00,0.00
2026-06-26 17:56:26.871,994.20,994.21,1.22,1.46,0.00,1.01,0.28,9.29,0.00,-0.00,0.00,0.00
2026-06-26 17:56:26.913,994.20,994.21,1.00,1.33,0.00,1.01,0.29,9.25,0.00,0.00,0.00,0.00
2026-06-26 17:56:26.914,994.20,994.21,1.00,1.33,0.00,1.01,0.29,9.25,0.00,0.00,0.00,0.00
2026-06-26 17:56:26.915,994.20,994.21,1.00,1.33,0.00,1.01,0.29,9.25,0.00,0.00,0.00,0.00
2026-06-26 17:56:26.921,994.20,994.21,1.00,1.33,0.00,1.01,0.29,9.25,0.00,0.00,0.00,0.00
2026-06-26 17:56:26.923,994.20,994.21,1.00,1.33,0.00,0.99,0.27,9.28,0.00,0.00,-0.00,0.00
2026-06-26 17:56:26.924,994.20,994.21,1.00,1.33,0.00,0.99,0.27,9.28,0.00,0.00,-0.00,0.00
2026-06-26 17:56:26.925,994.20,994.21,1.00,1.33,0.00,0.99,0.27,9.28,0.00,0.00,-0.00,0.00
2026-06-26 17:56:26.926,994.20,994.21,1.00,1.33,0.00,0.99,0.27,9.28,0.00,0.00,-0.00,0.00
2026-06-26 17:56:26.928,994.20,994.21,1.00,1.33,0.00,0.99,0.27,9.28,0.00,0.00,-0.00,0.00
2026-06-26 17:56:26.929,994.20,994.21,1.00,1.33,0.00,0.99,0.27,9.28,0.00,0.00,-0.00,0.00
2026-06-26 17:56:26.931,994.20,994.21,1.00,1.33,0.00,0.99,0.27,9.28,0.00,0.00,-0.00,0.00
2026-06-26 17:56:26.933,994.20,994.21,1.00,1.33,0.00,1.02,0.28,9.29,0.00,0.00,-0.00,0.00
2026-06-26 17:56:26.935,994.20,994.21,1.00,1.33,0.00,1.02,0.28,9.29,0.00,0.00,-0.00,0.00
2026-06-26 17:56:26.937,994.20,994.21,1.00,1.33,0.00,1.02,0.28,9.29,0.00,0.00,-0.00,0.00
2026-06-26 17:56:26.941,994.20,994.21,1.00,1.33,0.00,1.02,0.28,9.29,0.00,-0.00,0.00,0.00
2026-06-26 17:56:26.943,994.20,994.21,1.00,1.33,0.00,1.04,0.31,9.28,0.00,-0.00,0.00,0.00
2026-06-26 17:56:26.944,994.20,994.21,1.00,1.33,0.00,1.04,0.31,9.28,0.00,-0.00,0.00,0.00
2026-06-26 17:56:26.946,994.20,994.21,1.00,1.33,0.00,1.04,0.31,9.28,0.00,-0.00,0.00,0.00
2026-06-26 17:56:26.951,994.20,994.21,1.00,1.33,0.00,1.04,0.31,9.28,0.00,-0.00,0.00,0.00
2026-06-26 17:56:26.953,994.20,994.21,1.00,1.33,0.00,1.01,0.31,9.28,0.00,0.00,-0.00,0.00
2026-06-26 17:56:26.955,994.20,994.21,1.00,1.33,0.00,1.01,0.31,9.28,0.00,0.00,-0.00,0.00
2026-06-26 17:56:26.959,994.20,994.21,1.00,1.33,0.00,1.01,0.31,9.28,0.00,0.00,-0.00,0.00
2026-06-26 17:56:26.962,994.20,994.21,1.00,1.33,0.00,1.01,0.31,9.28,0.00,-0.00,0.00,0.00
2026-06-26 17:56:27.004,994.20,994.21,1.13,1.41,0.00,1.01,0.30,9.24,0.00,0.00,0.00,0.00
2026-06-26 17:56:27.005,994.20,994.21,1.13,1.41,0.00,1.01,0.30,9.24,0.00,0.00,0.00,0.00
2026-06-26 17:56:27.010,994.20,994.21,1.13,1.41,0.00,1.01,0.30,9.24,0.00,0.00,0.00,0.00
2026-06-26 17:56:27.013,994.20,994.21,1.13,1.41,0.00,1.02,0.29,9.26,0.00,0.00,0.00,0.00
2026-06-26 17:56:27.056,994.20,994.21,1.60,1.68,0.00,1.01,0.27,9.25,0.00,0.00,0.00,0.00
2026-06-26 17:56:27.061,994.20,994.21,1.60,1.68,0.00,1.01,0.27,9.25,0.00,0.00,0.00,0.00
2026-06-26 17:56:27.063,994.20,994.21,1.60,1.68,0.00,1.02,0.28,9.24,0.00,0.00,0.00,0.00
2026-06-26 17:56:27.064,994.20,994.21,1.60,1.68,0.00,1.02,0.28,9.24,0.00,0.00,0.00,0.00
2026-06-26 17:56:27.065,994.20,994.21,1.60,1.68,0.00,1.02,0.28,9.24,0.00,0.00,0.00,0.00
2026-06-26 17:56:27.069,994.20,994.21,1.60,1.68,0.00,1.02,0.28,9.24,0.00,0.00,0.00,0.00
2026-06-26 17:56:27.072,994.20,994.21,1.60,1.68,0.00,1.02,0.28,9.24,0.00,0.00,0.00,0.00
2026-06-26 17:56:27.074,994.20,994.21,1.60,1.68,0.00,1.02,0.31,9.27,0.00,0.00,0.00,0.00
2026-06-26 17:56:27.075,994.20,994.21,1.60,1.68,0.00,1.02,0.31,9.27,0.00,0.00,0.00,0.00
2026-06-26 17:56:27.076,994.20,994.21,1.60,1.68,0.00,1.02,0.31,9.27,0.00,0.00,0.00,0.00
2026-06-26 17:56:27.077,994.20,994.21,1.60,1.68,0.00,1.02,0.31,9.27,0.00,0.00,0.00,0.00
2026-06-26 17:56:27.079,994.20,994.21,1.60,1.68,0.00,1.02,0.31,9.27,0.00,0.00,0.00,0.00
2026-06-26 17:56:27.081,994.20,994.21,1.60,1.68,0.00,1.02,0.31,9.27,0.00,0.00,0.00,0.00
2026-06-26 17:56:27.083,994.20,994.21,1.60,1.68,0.00,1.01,0.28,9.27,0.00,-0.00,0.00,0.00
2026-06-26 17:56:27.084,994.20,994.21,1.60,1.68,0.00,1.01,0.28,9.27,0.00,-0.00,0.00,0.00
2026-06-26 17:56:27.088,994.20,994.21,1.60,1.68,0.00,1.01,0.28,9.27,0.00,-0.00,0.00,0.00
2026-06-26 17:56:27.092,994.20,994.21,1.60,1.68,0.00,1.01,0.28,9.27,0.00,0.00,-0.00,0.00
2026-06-26 17:56:27.093,994.20,994.21,1.60,1.68,0.00,1.01,0.28,9.28,0.00,0.00,-0.00,0.00
2026-06-26 17:56:27.095,994.20,994.21,1.60,1.68,0.00,1.01,0.28,9.28,0.00,0.00,-0.00,0.00
2026-06-26 17:56:27.099,994.20,994.21,1.60,1.68,0.00,1.01,0.28,9.28,0.00,0.00,-0.00,0.00
2026-06-26 17:56:27.102,994.20,994.21,1.60,1.68,0.00,1.01,0.28,9.28,-0.00,-0.00,-0.00,0.00
2026-06-26 17:56:27.103,994.20,994.21,1.60,1.68,0.00,1.00,0.28,9.26,-0.00,-0.00,-0.00,0.00
2026-06-26 17:56:27.145,994.20,994.21,1.28,1.50,0.00,0.99,0.28,9.28,0.00,0.00,0.00,0.00
2026-06-26 17:56:27.151,994.20,994.21,1.28,1.50,0.00,0.99,0.28,9.28,0.00,0.00,0.00,0.00
2026-06-26 17:56:27.152,994.20,994.21,1.28,1.50,0.00,1.00,0.29,9.27,0.00,0.00,0.00,0.00
2026-06-26 17:56:27.154,994.20,994.21,1.28,1.50,0.00,1.00,0.29,9.27,0.00,0.00,0.00,0.00
2026-06-26 17:56:27.198,994.20,994.21,1.07,1.37,0.00,1.02,0.29,9.29,0.00,0.00,0.00,0.00
2026-06-26 17:56:27.202,994.20,994.21,1.07,1.37,0.00,1.02,0.29,9.29,0.00,-0.00,-0.00,0.00
2026-06-26 17:56:27.203,994.20,994.21,1.07,1.37,0.00,1.01,0.32,9.26,0.00,-0.00,-0.00,0.00
2026-06-26 17:56:27.204,994.20,994.21,1.07,1.37,0.00,1.01,0.32,9.26,0.00,-0.00,-0.00,0.00
2026-06-26 17:56:27.206,994.20,994.21,1.07,1.37,0.00,1.01,0.32,9.26,0.00,-0.00,-0.00,0.00
2026-06-26 17:56:27.207,994.20,994.21,1.07,1.37,0.00,1.01,0.32,9.26,0.00,-0.00,-0.00,0.00
2026-06-26 17:56:27.212,994.20,994.21,1.07,1.37,0.00,1.01,0.32,9.26,0.00,-0.00,-0.00,0.00
2026-06-26 17:56:27.214,994.20,994.21,1.07,1.37,0.00,1.00,0.29,9.29,0.00,-0.00,0.00,0.00
2026-06-26 17:56:27.215,994.20,994.21,1.07,1.37,0.00,1.00,0.29,9.29,0.00,-0.00,0.00,0.00
2026-06-26 17:56:27.220,994.20,994.21,1.07,1.37,0.00,1.00,0.29,9.29,0.00,-0.00,0.00,0.00
2026-06-26 17:56:27.223,994.20,994.21,1.07,1.37,0.00,1.02,0.30,9.25,0.00,-0.00,0.00,0.00
2026-06-26 17:56:27.225,994.20,994.21,1.07,1.37,0.00,1.02,0.30,9.25,0.00,-0.00,0.00,0.00
2026-06-26 17:56:27.226,994.20,994.21,1.07,1.37,0.00,1.02,0.30,9.25,0.00,-0.00,0.00,0.00
2026-06-26 17:56:27.227,994.20,994.21,1.07,1.37,0.00,1.02,0.30,9.25,0.00,-0.00,0.00,0.00
2026-06-26 17:56:27.229,994.20,994.21,1.07,1.37,0.00,1.02,0.30,9.25,0.00,-0.00,0.00,0.00
2026-06-26 17:56:27.232,994.20,994.21,1.07,1.37,0.00,1.02,0.30,9.25,0.00,0.00,0.00,0.00
2026-06-26 17:56:27.234,994.20,994.21,1.07,1.37,0.00,1.00,0.30,9.27,0.00,0.00,0.00,0.00
2026-06-26 17:56:27.235,994.20,994.21,1.07,1.37,0.00,1.00,0.30,9.27,0.00,0.00,0.00,0.00
2026-06-26 17:56:27.237,994.20,994.21,1.07,1.37,0.00,1.00,0.30,9.27,0.00,0.00,0.00,0.00
2026-06-26 17:56:27.242,994.20,994.21,1.07,1.37,0.00,1.00,0.30,9.27,0.00,0.00,0.00,0.00
2026-06-26 17:56:27.244,994.20,994.21,1.07,1.37,0.00,1.01,0.30,9.30,0.00,0.00,0.00,0.00
2026-06-26 17:56:27.291,994.20,994.21,1.10,1.39,0.00,1.00,0.29,9.29,0.00,-0.00,-0.00,0.00
2026-06-26 17:56:27.293,994.20,994.21,1.10,1.39,0.00,0.99,0.28,9.27,0.00,0.00,0.00,0.00
2026-06-26 17:56:27.294,994.20,994.21,1.10,1.39,0.00,0.99,0.28,9.27,0.00,0.00,0.00,0.00
2026-06-26 17:56:27.341,994.20,994.21,0.84,1.22,0.00,1.01,0.30,9.29,0.00,0.00,0.00,0.00
2026-06-26 17:56:27.343,994.20,994.21,0.84,1.22,0.00,1.01,0.28,9.31,0.00,-0.00,0.00,0.00
2026-06-26 17:56:27.344,994.20,994.21,0.84,1.22,0.00,1.01,0.28,9.31,0.00,-0.00,0.00,0.00
2026-06-26 17:56:27.346,994.20,994.21,0.84,1.22,0.00,1.01,0.28,9.31,0.00,-0.00,0.00,0.00
2026-06-26 17:56:27.351,994.20,994.21,0.84,1.22,0.00,1.01,0.28,9.31,0.00,-0.00,0.00,0.00
2026-06-26 17:56:27.354,994.20,994.21,0.84,1.22,0.00,1.01,0.29,9.25,0.00,-0.00,-0.00,0.00
2026-06-26 17:56:27.359,994.20,994.21,0.84,1.22,0.00,1.01,0.29,9.25,0.00,-0.00,-0.00,0.00
2026-06-26 17:56:27.363,994.20,994.21,0.84,1.22,0.00,1.01,0.29,9.25,0.00,0.00,-0.00,0.00
2026-06-26 17:56:27.364,994.20,994.21,0.84,1.22,0.00,1.00,0.30,9.27,0.00,0.00,-0.00,0.00
2026-06-26 17:56:27.372,994.20,994.21,0.84,1.22,0.00,1.00,0.30,9.27,0.00,0.00,-0.00,0.00
2026-06-26 17:56:27.374,994.20,994.21,0.84,1.22,0.00,1.02,0.28,9.28,-0.00,-0.00,0.00,0.00
2026-06-26 17:56:27.376,994.20,994.21,0.84,1.22,0.00,1.02,0.28,9.28,-0.00,-0.00,0.00,0.00
2026-06-26 17:56:27.378,994.20,994.21,0.84,1.22,0.00,1.02,0.28,9.28,-0.00,-0.00,0.00,0.00
2026-06-26 17:56:27.379,994.20,994.21,0.84,1.22,0.00,1.02,0.28,9.28,-0.00,-0.00,0.00,0.00
2026-06-26 17:56:27.383,994.20,994.21,0.84,1.22,0.00,1.02,0.28,9.28,-0.00,0.00,-0.00,0.00
2026-06-26 17:56:27.384,994.20,994.21,0.84,1.22,0.00,1.01,0.30,9.28,-0.00,0.00,-0.00,0.00
2026-06-26 17:56:27.386,994.20,994.21,0.84,1.22,0.00,1.01,0.30,9.28,-0.00,0.00,-0.00,0.00
2026-06-26 17:56:27.428,994.20,994.21,0.73,1.13,0.00,1.01,0.29,9.27,-0.00,0.00,0.00,0.00
2026-06-26 17:56:27.432,994.20,994.21,0.73,1.13,0.00,1.01,0.29,9.27,0.00,0.00,0.00,0.00
2026-06-26 17:56:27.434,994.20,994.21,0.73,1.13,0.00,1.01,0.30,9.27,0.00,0.00,0.00,0.00
2026-06-26 17:56:27.435,994.20,994.21,0.73,1.13,0.00,1.01,0.30,9.27,0.00,0.00,0.00,0.00
2026-06-26 17:56:27.477,994.20,994.21,0.62,1.04,0.00,1.02,0.29,9.30,0.00,-0.00,0.00,0.00
2026-06-26 17:56:27.478,994.20,994.21,0.62,1.04,0.00,1.02,0.29,9.30,0.00,-0.00,0.00,0.00
2026-06-26 17:56:27.482,994.20,994.21,0.62,1.04,0.00,1.02,0.29,9.30,0.00,-0.00,0.00,0.00
2026-06-26 17:56:27.483,994.20,994.21,0.62,1.04,0.00,1.01,0.29,9.29,0.00,-0.00,-0.00,0.00
2026-06-26 17:56:27.485,994.20,994.21,0.62,1.04,0.00,1.01,0.29,9.29,0.00,-0.00,-0.00,0.00
2026-06-26 17:56:27.486,994.20,994.21,0.62,1.04,0.00,1.01,0.29,9.29,0.00,-0.00,-0.00,0.00
2026-06-26 17:56:27.490,994.20,994.21,0.62,1.04,0.00,1.01,0.29,9.29,0.00,-0.00,-0.00,0.00
2026-06-26 17:56:27.493,994.20,994.21,0.62,1.04,0.00,1.01,0.29,9.29,0.00,0.00,0.00,0.00
2026-06-26 17:56:27.494,994.20,994.21,0.62,1.04,0.00,1.01,0.29,9.33,0.00,0.00,0.00,0.00
2026-06-26 17:56:27.495,994.20,994.21,0.62,1.04,0.00,1.01,0.29,9.33,0.00,0.00,0.00,0.00
2026-06-26 17:56:27.497,994.20,994.21,0.62,1.04,0.00,1.01,0.29,9.33,0.00,0.00,0.00,0.00
2026-06-26 17:56:27.502,994.20,994.21,0.62,1.04,0.00,1.01,0.29,9.33,0.00,0.00,0.00,0.00
2026-06-26 17:56:27.504,994.20,994.21,0.62,1.04,0.00,0.97,0.28,9.22,0.00,-0.00,-0.00,0.00
2026-06-26 17:56:27.506,994.20,994.21,0.62,1.04,0.00,0.97,0.28,9.22,0.00,-0.00,-0.00,0.00
2026-06-26 17:56:27.507,994.20,994.21,0.62,1.04,0.00,0.97,0.28,9.22,0.00,-0.00,-0.00,0.00
2026-06-26 17:56:27.512,994.20,994.21,0.62,1.04,0.00,0.97,0.28,9.22,0.00,-0.00,-0.00,0.00
2026-06-26 17:56:27.514,994.20,994.21,0.62,1.04,0.00,1.00,0.29,9.27,-0.00,0.00,0.00,0.00
2026-06-26 17:56:27.515,994.20,994.21,0.62,1.04,0.00,1.00,0.29,9.27,-0.00,0.00,0.00,0.00
2026-06-26 17:56:27.516,994.20,994.21,0.62,1.04,0.00,1.00,0.29,9.27,-0.00,0.00,0.00,0.00
2026-06-26 17:56:27.520,994.20,994.21,0.62,1.04,0.00,1.00,0.29,9.27,-0.00,0.00,0.00,0.00
2026-06-26 17:56:27.523,994.20,994.21,0.62,1.04,0.00,1.00,0.29,9.27,-0.00,0.00,0.00,0.00
2026-06-26 17:56:27.525,994.20,994.21,0.62,1.04,0.00,0.99,0.29,9.27,-0.00,0.00,0.00,0.00
2026-06-26 17:56:27.527,994.20,994.21,0.62,1.04,0.00,0.99,0.29,9.27,-0.00,0.00,0.00,0.00
2026-06-26 17:56:27.573,994.20,994.21,0.97,1.30,0.00,1.01,0.28,9.29,0.00,-0.00,0.00,0.00
2026-06-26 17:56:27.574,994.20,994.21,0.97,1.30,0.00,1.02,0.29,9.27,0.00,0.00,0.00,0.00
2026-06-26 17:56:27.576,994.20,994.21,0.97,1.30,0.00,1.02,0.29,9.27,0.00,0.00,0.00,0.00
2026-06-26 17:56:27.622,994.21,994.21,0.71,1.12,0.00,1.02,0.30,9.28,0.00,0.00,0.00,0.00
2026-06-26 17:56:27.623,994.21,994.21,0.71,1.12,0.00,1.00,0.31,9.28,-0.00,0.00,0.00,0.00
2026-06-26 17:56:27.625,994.21,994.21,0.71,1.12,0.00,1.00,0.31,9.28,-0.00,0.00,0.00,0.00
2026-06-26 17:56:27.626,994.21,994.21,0.71,1.12,0.00,1.00,0.31,9.28,-0.00,0.00,0.00,0.00
2026-06-26 17:56:27.627,994.21,994.21,0.71,1.12,0.00,1.00,0.31,9.28,-0.00,0.00,0.00,0.00
2026-06-26 17:56:27.628,994.21,994.21,0.71,1.12,0.00,1.00,0.31,9.28,-0.00,0.00,0.00,0.00
2026-06-26 17:56:27.630,994.21,994.21,0.71,1.12,0.00,1.00,0.31,9.28,-0.00,0.00,0.00,0.00
2026-06-26 17:56:27.632,994.21,994.21,0.71,1.12,0.00,1.00,0.31,9.28,-0.00,0.00,0.00,0.00
2026-06-26 17:56:27.633,994.21,994.21,0.71,1.12,0.00,0.99,0.30,9.29,0.00,0.00,0.00,0.00
2026-06-26 17:56:27.635,994.21,994.21,0.71,1.12,0.00,0.99,0.30,9.29,0.00,0.00,0.00,0.00
2026-06-26 17:56:27.636,994.21,994.21,0.71,1.12,0.00,0.99,0.30,9.29,0.00,0.00,0.00,0.00
2026-06-26 17:56:27.642,994.21,994.21,0.71,1.12,0.00,0.99,0.30,9.29,0.00,0.00,0.00,0.00
2026-06-26 17:56:27.644,994.21,994.21,0.71,1.12,0.00,1.00,0.31,9.27,0.00,0.00,0.00,0.00
2026-06-26 17:56:27.646,994.21,994.21,0.71,1.12,0.00,1.00,0.31,9.27,0.00,0.00,0.00,0.00
2026-06-26 17:56:27.650,994.21,994.21,0.71,1.12,0.00,1.00,0.31,9.27,0.00,0.00,0.00,0.00
2026-06-26 17:56:27.653,994.21,994.21,0.71,1.12,0.00,1.00,0.31,9.27,-0.00,0.00,-0.00,0.00
2026-06-26 17:56:27.654,994.21,994.21,0.71,1.12,0.00,0.98,0.30,9.27,-0.00,0.00,-0.00,0.00
2026-06-26 17:56:27.656,994.21,994.21,0.71,1.12,0.00,0.98,0.30,9.27,-0.00,0.00,-0.00,0.00
2026-06-26 17:56:27.657,994.21,994.21,0.71,1.12,0.00,0.98,0.30,9.27,-0.00,0.00,-0.00,0.00
2026-06-26 17:56:27.663,994.21,994.21,0.71,1.12,0.00,0.98,0.30,9.27,-0.00,0.00,-0.00,0.00
2026-06-26 17:56:27.666,994.21,994.21,0.71,1.12,0.00,1.02,0.31,9.30,0.00,0.00,-0.00,0.00
2026-06-26 17:56:27.669,994.21,994.21,0.71,1.12,0.00,1.02,0.31,9.30,0.00,0.00,-0.00,0.00
2026-06-26 17:56:27.713,994.21,994.21,0.55,0.98,0.00,1.02,0.30,9.28,0.00,0.00,0.00,0.00
2026-06-26 17:56:27.715,994.21,994.21,0.55,0.98,0.00,1.01,0.29,9.28,0.00,0.00,0.00,0.00
2026-06-26 17:56:27.716,994.21,994.21,0.55,0.98,0.00,1.01,0.29,9.28,0.00,0.00,0.00,0.00
2026-06-26 17:56:27.717,994.21,994.21,0.55,0.98,0.00,1.01,0.29,9.28,0.00,0.00,0.00,0.00
2026-06-26 17:56:27.763,994.21,994.21,0.33,0.76,0.00,1.01,0.31,9.25,-0.00,0.00,0.00,0.00
2026-06-26 17:56:27.764,994.21,994.21,0.33,0.76,0.00,1.03,0.29,9.28,-0.00,0.00,0.00,0.00
2026-06-26 17:56:27.765,994.21,994.21,0.33,0.76,0.00,1.03,0.29,9.28,-0.00,0.00,0.00,0.00
2026-06-26 17:56:27.767,994.21,994.21,0.33,0.76,0.00,1.03,0.29,9.28,-0.00,0.00,0.00,0.00
2026-06-26 17:56:27.773,994.21,994.21,0.33,0.76,0.00,1.03,0.29,9.28,-0.00,0.00,0.00,0.00
2026-06-26 17:56:27.775,994.21,994.21,0.33,0.76,0.00,1.02,0.30,9.28,-0.00,0.00,0.00,0.00
2026-06-26 17:56:27.776,994.21,994.21,0.33,0.76,0.00,1.02,0.30,9.28,-0.00,0.00,0.00,0.00
2026-06-26 17:56:27.779,994.21,994.21,0.33,0.76,0.00,1.02,0.30,9.28,-0.00,0.00,0.00,0.00
2026-06-26 17:56:27.780,994.21,994.21,0.33,0.76,0.00,1.02,0.30,9.28,-0.00,0.00,0.00,0.00
2026-06-26 17:56:27.783,994.21,994.21,0.33,0.76,0.00,1.02,0.30,9.28,0.00,0.00,-0.00,0.00
2026-06-26 17:56:27.785,994.21,994.21,0.33,0.76,0.00,1.03,0.29,9.29,0.00,0.00,-0.00,0.00
2026-06-26 17:56:27.786,994.21,994.21,0.33,0.76,0.00,1.03,0.29,9.29,0.00,0.00,-0.00,0.00
2026-06-26 17:56:27.787,994.21,994.21,0.33,0.76,0.00,1.03,0.29,9.29,0.00,0.00,-0.00,0.00
2026-06-26 17:56:27.795,994.21,994.21,0.33,0.76,0.00,1.03,0.29,9.29,0.00,0.00,-0.00,0.00
2026-06-26 17:56:27.803,994.21,994.21,0.33,0.76,0.00,1.02,0.29,9.28,0.00,0.00,-0.00,0.00
2026-06-26 17:56:27.804,994.21,994.21,0.33,0.76,0.00,1.03,0.29,9.26,-0.00,0.00,-0.00,0.00
2026-06-26 17:56:27.805,994.21,994.21,0.33,0.76,0.00,1.03,0.29,9.26,-0.00,0.00,-0.00,0.00
2026-06-26 17:56:27.807,994.21,994.21,0.33,0.76,0.00,1.03,0.29,9.26,-0.00,0.00,-0.00,0.00
2026-06-26 17:56:27.808,994.21,994.21,0.33,0.76,0.00,1.03,0.29,9.26,-0.00,0.00,-0.00,0.00
2026-06-26 17:56:27.813,994.21,994.21,0.33,0.76,0.00,1.03,0.29,9.26,-0.00,0.00,-0.00,0.00
2026-06-26 17:56:27.856,994.21,994.21,-0.04,-0.26,0.00,1.03,0.28,9.29,0.00,0.00,-0.00,0.00
2026-06-26 17:56:27.857,994.21,994.21,-0.04,-0.26,0.00,1.03,0.28,9.29,0.00,0.00,-0.00,0.00
2026-06-26 17:56:27.863,994.21,994.21,-0.04,-0.26,0.00,1.03,0.28,9.29,0.00,0.00,-0.00,0.00
2026-06-26 17:56:27.907,994.20,994.21,0.52,0.96,0.00,1.01,0.29,9.27,0.00,-0.00,-0.00,0.00
2026-06-26 17:56:27.911,994.20,994.21,0.52,0.96,0.00,1.01,0.29,9.27,0.00,-0.00,-0.00,0.00
2026-06-26 17:56:27.914,994.20,994.21,0.52,0.96,0.00,1.01,0.29,9.27,0.00,0.00,-0.00,0.00
2026-06-26 17:56:27.915,994.20,994.21,0.52,0.96,0.00,1.02,0.32,9.29,0.00,0.00,-0.00,0.00
2026-06-26 17:56:27.917,994.20,994.21,0.52,0.96,0.00,1.02,0.32,9.29,0.00,0.00,-0.00,0.00
2026-06-26 17:56:27.920,994.20,994.21,0.52,0.96,0.00,1.02,0.32,9.29,0.00,0.00,-0.00,0.00
2026-06-26 17:56:27.924,994.20,994.21,0.52,0.96,0.00,1.02,0.32,9.29,0.00,0.00,-0.00,0.00
2026-06-26 17:56:27.925,994.20,994.21,0.52,0.96,0.00,1.01,0.29,9.27,0.00,0.00,-0.00,0.00
2026-06-26 17:56:27.926,994.20,994.21,0.52,0.96,0.00,1.01,0.29,9.27,0.00,0.00,-0.00,0.00
2026-06-26 17:56:27.927,994.20,994.21,0.52,0.96,0.00,1.01,0.29,9.27,0.00,0.00,-0.00,0.00
2026-06-26 17:56:27.929,994.20,994.21,0.52,0.96,0.00,1.01,0.29,9.27,0.00,0.00,-0.00,0.00
2026-06-26 17:56:27.930,994.20,994.21,0.52,0.96,0.00,1.01,0.29,9.27,0.00,0.00,-0.00,0.00
2026-06-26 17:56:27.934,994.20,994.21,0.52,0.96,0.00,1.01,0.29,9.27,0.00,0.00,-0.00,0.00
2026-06-26 17:56:27.935,994.20,994.21,0.52,0.96,0.00,0.99,0.30,9.29,0.00,0.00,-0.00,0.00
2026-06-26 17:56:27.937,994.20,994.21,0.52,0.96,0.00,0.99,0.30,9.29,0.00,0.00,-0.00,0.00
2026-06-26 17:56:27.938,994.20,994.21,0.52,0.96,0.00,0.99,0.30,9.29,0.00,0.00,-0.00,0.00
2026-06-26 17:56:27.943,994.20,994.21,0.52,0.96,0.00,0.99,0.30,9.29,0.00,0.00,-0.00,0.00
2026-06-26 17:56:27.944,994.20,994.21,0.52,0.96,0.00,1.01,0.28,9.29,-0.00,0.00,-0.00,0.00
2026-06-26 17:56:27.946,994.20,994.21,0.52,0.96,0.00,1.01,0.28,9.29,-0.00,0.00,-0.00,0.00
2026-06-26 17:56:27.947,994.20,994.21,0.52,0.96,0.00,1.01,0.28,9.29,-0.00,0.00,-0.00,0.00
2026-06-26 17:56:27.951,994.20,994.21,0.52,0.96,0.00,1.01,0.28,9.29,-0.00,0.00,-0.00,0.00
2026-06-26 17:56:27.954,994.20,994.21,0.52,0.96,0.00,1.01,0.28,9.29,-0.00,0.00,0.00,0.00
2026-06-26 17:56:27.956,994.20,994.21,0.52,0.96,0.00,1.03,0.30,9.26,-0.00,0.00,0.00,0.00
2026-06-26 17:56:28.025,994.20,994.20,0.32,0.74,0.00,1.02,0.29,9.27,0.00,0.00,0.00,0.00
2026-06-26 17:56:28.067,994.20,994.20,0.57,1.00,0.00,1.02,0.31,9.28,0.00,-0.00,0.00,0.00
2026-06-26 17:56:28.070,994.20,994.20,0.57,1.00,0.00,1.02,0.31,9.28,0.00,-0.00,0.00,0.00
2026-06-26 17:56:28.074,994.20,994.20,0.57,1.00,0.00,1.02,0.31,9.28,0.00,0.00,-0.00,0.00
2026-06-26 17:56:28.075,994.20,994.20,0.57,1.00,0.00,1.00,0.29,9.30,0.00,0.00,-0.00,0.00
2026-06-26 17:56:28.076,994.20,994.20,0.57,1.00,0.00,1.00,0.29,9.30,0.00,0.00,-0.00,0.00
2026-06-26 17:56:28.078,994.20,994.20,0.57,1.00,0.00,1.00,0.29,9.30,0.00,0.00,-0.00,0.00
2026-06-26 17:56:28.079,994.20,994.20,0.57,1.00,0.00,1.00,0.29,9.30,0.00,0.00,-0.00,0.00
2026-06-26 17:56:28.081,994.20,994.20,0.57,1.00,0.00,1.00,0.29,9.30,0.00,0.00,-0.00,0.00
2026-06-26 17:56:28.084,994.20,994.20,0.57,1.00,0.00,1.00,0.29,9.30,0.00,0.00,0.00,0.00
2026-06-26 17:56:28.085,994.20,994.20,0.57,1.00,0.00,1.02,0.28,9.30,0.00,0.00,0.00,0.00
2026-06-26 17:56:28.087,994.20,994.20,0.57,1.00,0.00,1.02,0.28,9.30,0.00,0.00,0.00,0.00
2026-06-26 17:56:28.088,994.20,994.20,0.57,1.00,0.00,1.02,0.28,9.30,0.00,0.00,0.00,0.00
2026-06-26 17:56:28.093,994.20,994.20,0.57,1.00,0.00,1.02,0.28,9.30,0.00,0.00,0.00,0.00
2026-06-26 17:56:28.095,994.20,994.20,0.57,1.00,0.00,1.01,0.30,9.28,0.00,0.00,-0.00,0.00
2026-06-26 17:56:28.097,994.20,994.20,0.57,1.00,0.00,1.01,0.30,9.28,0.00,0.00,-0.00,0.00
2026-06-26 17:56:28.104,994.20,994.20,0.57,1.00,0.00,1.01,0.30,9.28,0.00,-0.00,-0.00,0.00
2026-06-26 17:56:28.105,994.20,994.20,0.57,1.00,0.00,1.03,0.28,9.25,0.00,-0.00,-0.00,0.00
2026-06-26 17:56:28.150,994.20,994.21,0.89,1.25,0.00,1.00,0.29,9.28,0.00,0.00,0.00,0.00
2026-06-26 17:56:28.154,994.20,994.21,0.89,1.25,0.00,1.00,0.29,9.28,-0.00,0.00,-0.00,0.00
2026-06-26 17:56:28.155,994.20,994.21,0.89,1.25,0.00,1.02,0.31,9.27,-0.00,0.00,-0.00,0.00
2026-06-26 17:56:28.156,994.20,994.21,0.89,1.25,0.00,1.02,0.31,9.27,-0.00,0.00,-0.00,0.00
2026-06-26 17:56:28.158,994.20,994.21,0.89,1.25,0.00,1.02,0.31,9.27,-0.00,0.00,-0.00,0.00
2026-06-26 17:56:28.161,994.20,994.21,0.89,1.25,0.00,1.02,0.31,9.27,-0.00,0.00,-0.00,0.00
2026-06-26 17:56:28.164,994.20,994.21,0.89,1.25,0.00,1.02,0.31,9.27,0.00,0.00,0.00,0.00
2026-06-26 17:56:28.165,994.20,994.21,0.89,1.25,0.00,1.02,0.30,9.27,0.00,0.00,0.00,0.00
2026-06-26 17:56:28.207,994.20,994.21,0.97,1.30,0.00,1.00,0.29,9.27,0.00,-0.00,0.00,0.00
2026-06-26 17:56:28.211,994.20,994.21,0.97,1.30,0.00,1.00,0.29,9.27,0.00,-0.00,0.00,0.00
2026-06-26 17:56:28.215,994.20,994.21,0.97,1.30,0.00,1.00,0.29,9.27,0.00,-0.00,0.00,0.00
2026-06-26 17:56:28.217,994.20,994.21,0.97,1.30,0.00,1.01,0.30,9.27,0.00,-0.00,0.00,0.00
2026-06-26 17:56:28.218,994.20,994.21,0.97,1.30,0.00,1.01,0.30,9.27,0.00,-0.00,0.00,0.00
2026-06-26 17:56:28.224,994.20,994.21,0.97,1.30,0.00,1.01,0.30,9.27,0.00,-0.00,0.00,0.00
2026-06-26 17:56:28.225,994.20,994.21,0.97,1.30,0.00,1.01,0.31,9.28,-0.00,0.00,-0.00,0.00
2026-06-26 17:56:28.226,994.20,994.21,0.97,1.30,0.00,1.01,0.31,9.28,-0.00,0.00,-0.00,0.00
2026-06-26 17:56:28.227,994.20,994.21,0.97,1.30,0.00,1.01,0.31,9.28,-0.00,0.00,-0.00,0.00
2026-06-26 17:56:28.229,994.20,994.21,0.97,1.30,0.00,1.01,0.31,9.28,-0.00,0.00,-0.00,0.00
2026-06-26 17:56:28.230,994.20,994.21,0.97,1.30,0.00,1.01,0.31,9.28,-0.00,0.00,-0.00,0.00
2026-06-26 17:56:28.231,994.20,994.21,0.97,1.30,0.00,1.01,0.31,9.28,-0.00,0.00,-0.00,0.00
2026-06-26 17:56:28.235,994.20,994.21,0.97,1.30,0.00,1.01,0.31,9.28,0.00,-0.00,-0.00,0.00
2026-06-26 17:56:28.237,994.20,994.21,0.97,1.30,0.00,1.02,0.30,9.32,0.00,-0.00,-0.00,0.00
2026-06-26 17:56:28.243,994.20,994.21,0.97,1.30,0.00,1.02,0.30,9.32,0.00,-0.00,-0.00,0.00
2026-06-26 17:56:28.245,994.20,994.21,0.97,1.30,0.00,1.04,0.30,9.32,0.00,-0.00,0.00,0.00
2026-06-26 17:56:28.246,994.20,994.21,0.97,1.30,0.00,1.04,0.30,9.32,0.00,-0.00,0.00,0.00
2026-06-26 17:56:28.248,994.20,994.21,0.97,1.30,0.00,1.04,0.30,9.32,0.00,-0.00,0.00,0.00
2026-06-26 17:56:28.294,994.20,994.21,1.40,1.57,0.00,1.01,0.29,9.28,0.00,-0.00,-0.00,0.00
2026-06-26 17:56:28.295,994.20,994.21,1.40,1.57,0.00,1.01,0.30,9.24,0.00,0.00,-0.00,0.00
2026-06-26 17:56:28.297,994.20,994.21,1.40,1.57,0.00,1.01,0.30,9.24,0.00,0.00,-0.00,0.00
2026-06-26 17:56:28.298,994.20,994.21,1.40,1.57,0.00,1.01,0.30,9.24,0.00,0.00,-0.00,0.00
2026-06-26 17:56:28.304,994.20,994.21,1.40,1.57,0.00,1.01,0.30,9.24,0.00,0.00,-0.00,0.00
2026-06-26 17:56:28.305,994.20,994.21,1.40,1.57,0.00,1.03,0.30,9.28,0.00,0.00,-0.00,0.00
2026-06-26 17:56:28.307,994.20,994.21,1.40,1.57,0.00,1.03,0.30,9.28,0.00,0.00,-0.00,0.00
2026-06-26 17:56:28.354,994.20,994.21,1.58,1.67,0.00,1.00,0.29,9.28,0.00,-0.00,-0.00,0.00
2026-06-26 17:56:28.355,994.20,994.21,1.58,1.67,0.00,1.01,0.27,9.27,0.00,0.00,0.00,0.00
2026-06-26 17:56:28.356,994.20,994.21,1.58,1.67,0.00,1.01,0.27,9.27,0.00,0.00,0.00,0.00
2026-06-26 17:56:28.358,994.20,994.21,1.58,1.67,0.00,1.01,0.27,9.27,0.00,0.00,0.00,0.00
2026-06-26 17:56:28.362,994.20,994.21,1.58,1.67,0.00,1.01,0.27,9.27,0.00,0.00,0.00,0.00
2026-06-26 17:56:28.365,994.20,994.21,1.58,1.67,0.00,1.01,0.27,9.27,0.00,0.00,-0.00,0.00
2026-06-26 17:56:28.366,994.20,994.21,1.58,1.67,0.00,1.01,0.29,9.27,0.00,0.00,-0.00,0.00
2026-06-26 17:56:28.368,994.20,994.21,1.58,1.67,0.00,1.01,0.29,9.27,0.00,0.00,-0.00,0.00
2026-06-26 17:56:28.374,994.20,994.21,1.58,1.67,0.00,1.01,0.29,9.27,0.00,0.00,-0.00,0.00
2026-06-26 17:56:28.376,994.20,994.21,1.58,1.67,0.00,1.02,0.30,9.26,0.00,0.01,0.00,0.00
2026-06-26 17:56:28.378,994.20,994.21,1.58,1.67,0.00,1.02,0.30,9.26,0.00,0.01,0.00,0.00
2026-06-26 17:56:28.379,994.20,994.21,1.58,1.67,0.00,1.02,0.30,9.26,0.00,0.01,0.00,0.00
2026-06-26 17:56:28.380,994.20,994.21,1.58,1.67,0.00,1.02,0.30,9.26,0.00,0.01,0.00,0.00
2026-06-26 17:56:28.382,994.20,994.21,1.58,1.67,0.00,1.02,0.30,9.26,0.00,0.01,0.00,0.00
2026-06-26 17:56:28.384,994.20,994.21,1.58,1.67,0.00,1.02,0.30,9.26,-0.00,0.00,0.00,0.00
2026-06-26 17:56:28.386,994.20,994.21,1.58,1.67,0.00,1.02,0.30,9.27,-0.00,0.00,0.00,0.00
2026-06-26 17:56:28.387,994.20,994.21,1.58,1.67,0.00,1.02,0.30,9.27,-0.00,0.00,0.00,0.00
2026-06-26 17:56:28.391,994.20,994.21,1.58,1.67,0.00,1.02,0.30,9.27,-0.00,0.00,0.00,0.00
2026-06-26 17:56:28.430,994.20,994.21,1.84,1.80,0.00,1.00,0.28,9.26,0.00,0.00,-0.00,0.00
2026-06-26 17:56:28.434,994.20,994.21,1.84,1.80,0.00,1.00,0.28,9.26,0.00,-0.00,0.00,0.00
2026-06-26 17:56:28.435,994.20,994.21,1.84,1.80,0.00,1.03,0.29,9.28,0.00,-0.00,0.00,0.00
2026-06-26 17:56:28.437,994.20,994.21,1.84,1.80,0.00,1.03,0.29,9.28,0.00,-0.00,0.00,0.00
2026-06-26 17:56:28.438,994.20,994.21,1.84,1.80,0.00,1.03,0.29,9.28,0.00,-0.00,0.00,0.00
2026-06-26 17:56:28.441,994.20,994.21,1.84,1.80,0.00,1.03,0.29,9.28,0.00,-0.00,0.00,0.00
2026-06-26 17:56:28.445,994.20,994.21,1.84,1.80,0.00,1.03,0.29,9.28,0.00,-0.00,-0.00,0.00
2026-06-26 17:56:28.447,994.20,994.21,1.84,1.80,0.00,1.01,0.27,9.29,0.00,-0.00,-0.00,0.00
2026-06-26 17:56:28.451,994.20,994.21,1.84,1.80,0.00,1.01,0.27,9.29,0.00,-0.00,-0.00,0.00
2026-06-26 17:56:28.495,994.20,994.21,1.68,1.72,0.00,1.01,0.28,9.29,0.00,0.00,-0.00,0.00
2026-06-26 17:56:28.496,994.20,994.21,1.68,1.72,0.00,1.01,0.28,9.29,0.00,0.00,-0.00,0.00
2026-06-26 17:56:28.497,994.20,994.21,1.68,1.72,0.00,1.01,0.28,9.29,0.00,0.00,-0.00,0.00
2026-06-26 17:56:28.502,994.20,994.21,1.68,1.72,0.00,1.01,0.28,9.29,0.00,0.00,-0.00,0.00
2026-06-26 17:56:28.505,994.20,994.21,1.68,1.72,0.00,1.01,0.28,9.29,0.00,0.00,-0.00,0.00
2026-06-26 17:56:28.506,994.20,994.21,1.68,1.72,0.00,1.02,0.29,9.27,0.00,0.00,-0.00,0.00
2026-06-26 17:56:28.508,994.20,994.21,1.68,1.72,0.00,1.02,0.29,9.27,0.00,0.00,-0.00,0.00
2026-06-26 17:56:28.509,994.20,994.21,1.68,1.72,0.00,1.02,0.29,9.27,0.00,0.00,-0.00,0.00
2026-06-26 17:56:28.514,994.20,994.21,1.68,1.72,0.00,1.02,0.29,9.27,0.00,0.00,-0.00,0.00
2026-06-26 17:56:28.518,994.20,994.21,1.68,1.72,0.00,1.04,0.29,9.26,0.00,-0.00,0.00,0.00
2026-06-26 17:56:28.524,994.20,994.21,1.68,1.72,0.00,1.04,0.29,9.26,0.00,-0.00,0.00,0.00
2026-06-26 17:56:28.526,994.20,994.21,1.68,1.72,0.00,0.99,0.28,9.27,-0.00,-0.00,-0.00,0.00
2026-06-26 17:56:28.527,994.20,994.21,1.68,1.72,0.00,0.99,0.28,9.27,-0.00,-0.00,-0.00,0.00
2026-06-26 17:56:28.529,994.20,994.21,1.68,1.72,0.00,0.99,0.28,9.27,-0.00,-0.00,-0.00,0.00
2026-06-26 17:56:28.530,994.20,994.21,1.68,1.72,0.00,0.99,0.28,9.27,-0.00,-0.00,-0.00,0.00
2026-06-26 17:56:28.575,994.20,994.21,1.48,1.61,0.00,0.99,0.28,9.27,0.00,-0.00,0.00,0.00
2026-06-26 17:56:28.576,994.20,994.21,1.48,1.61,0.00,1.02,0.30,9.27,0.00,-0.00,0.00,0.00
2026-06-26 17:56:28.577,994.20,994.21,1.48,1.61,0.00,1.02,0.30,9.27,0.00,-0.00,0.00,0.00
2026-06-26 17:56:28.579,994.20,994.21,1.48,1.61,0.00,1.02,0.30,9.27,0.00,-0.00,0.00,0.00
2026-06-26 17:56:28.580,994.20,994.21,1.48,1.61,0.00,1.02,0.30,9.27,0.00,-0.00,0.00,0.00
2026-06-26 17:56:28.582,994.20,994.21,1.48,1.61,0.00,1.02,0.30,9.27,0.00,-0.00,0.00,0.00
2026-06-26 17:56:28.585,994.20,994.21,1.48,1.61,0.00,1.02,0.30,9.27,0.00,-0.00,-0.00,0.00
2026-06-26 17:56:28.586,994.20,994.21,1.48,1.61,0.00,1.03,0.31,9.29,0.00,-0.00,-0.00,0.00
2026-06-26 17:56:28.587,994.20,994.21,1.48,1.61,0.00,1.03,0.31,9.29,0.00,-0.00,-0.00,0.00
2026-06-26 17:56:28.589,994.20,994.21,1.48,1.61,0.00,1.03,0.31,9.29,0.00,-0.00,-0.00,0.00
2026-06-26 17:56:28.594,994.20,994.21,1.48,1.61,0.00,1.03,0.31,9.29,0.00,-0.00,-0.00,0.00
2026-06-26 17:56:28.636,994.20,994.21,1.39,1.56,0.00,1.03,0.30,9.29,0.00,0.00,-0.00,0.00
2026-06-26 17:56:28.638,994.20,994.21,1.39,1.56,0.00,1.03,0.30,9.29,0.00,0.00,-0.00,0.00
2026-06-26 17:56:28.640,994.20,994.21,1.39,1.56,0.00,1.03,0.30,9.29,0.00,0.00,-0.00,0.00
2026-06-26 17:56:28.645,994.20,994.21,1.39,1.56,0.00,1.03,0.30,9.29,0.00,0.00,0.00,0.00
2026-06-26 17:56:28.647,994.20,994.21,1.39,1.56,0.00,1.01,0.30,9.28,0.00,0.00,0.00,0.00
2026-06-26 17:56:28.648,994.20,994.21,1.39,1.56,0.00,1.01,0.30,9.28,0.00,0.00,0.00,0.00
2026-06-26 17:56:28.654,994.20,994.21,1.39,1.56,0.00,1.01,0.30,9.28,0.00,0.00,0.00,0.00
2026-06-26 17:56:28.656,994.20,994.21,1.39,1.56,0.00,1.03,0.29,9.27,0.00,0.00,0.00,0.00
2026-06-26 17:56:28.657,994.20,994.21,1.39,1.56,0.00,1.03,0.29,9.27,0.00,0.00,0.00,0.00
2026-06-26 17:56:28.659,994.20,994.21,1.39,1.56,0.00,1.03,0.29,9.27,0.00,0.00,0.00,0.00
2026-06-26 17:56:28.663,994.20,994.21,1.39,1.56,0.00,1.03,0.29,9.27,0.00,0.00,0.00,0.00
2026-06-26 17:56:28.667,994.20,994.21,1.39,1.56,0.00,1.01,0.28,9.29,0.00,-0.00,-0.00,0.00
2026-06-26 17:56:28.671,994.20,994.21,1.39,1.56,0.00,1.01,0.28,9.29,0.00,-0.00,-0.00,0.00
2026-06-26 17:56:28.712,994.20,994.21,1.34,1.54,0.00,1.00,0.30,9.26,-0.00,0.00,0.00,0.00
2026-06-26 17:56:28.715,994.20,994.21,1.34,1.54,0.00,1.00,0.30,9.26,0.00,0.00,0.00,0.00
2026-06-26 17:56:28.716,994.20,994.21,1.34,1.54,0.00,1.01,0.31,9.26,0.00,0.00,0.00,0.00
2026-06-26 17:56:28.717,994.20,994.21,1.34,1.54,0.00,1.01,0.31,9.26,0.00,0.00,0.00,0.00
2026-06-26 17:56:28.719,994.20,994.21,1.34,1.54,0.00,1.01,0.31,9.26,0.00,0.00,0.00,0.00
2026-06-26 17:56:28.723,994.20,994.21,1.34,1.54,0.00,1.01,0.31,9.26,0.00,0.00,0.00,0.00
2026-06-26 17:56:28.725,994.20,994.21,1.34,1.54,0.00,1.01,0.31,9.27,0.00,-0.00,-0.00,0.00
2026-06-26 17:56:28.727,994.20,994.21,1.34,1.54,0.00,1.01,0.31,9.27,0.00,-0.00,-0.00,0.00
2026-06-26 17:56:28.729,994.20,994.21,1.34,1.54,0.00,1.01,0.31,9.27,0.00,-0.00,-0.00,0.00
2026-06-26 17:56:28.731,994.20,994.21,1.34,1.54,0.00,1.01,0.31,9.27,0.00,-0.00,-0.00,0.00
2026-06-26 17:56:28.735,994.20,994.21,1.34,1.54,0.00,1.01,0.31,9.27,0.00,0.00,-0.00,0.00
2026-06-26 17:56:28.778,994.20,994.21,1.46,1.60,0.00,1.04,0.32,9.28,0.00,-0.00,0.00,0.00
2026-06-26 17:56:28.779,994.20,994.21,1.46,1.60,0.00,1.04,0.32,9.28,0.00,-0.00,0.00,0.00
2026-06-26 17:56:28.780,994.20,994.21,1.46,1.60,0.00,1.04,0.32,9.28,0.00,-0.00,0.00,0.00
2026-06-26 17:56:28.782,994.20,994.21,1.46,1.60,0.00,1.04,0.32,9.28,0.00,-0.00,0.00,0.00
2026-06-26 17:56:28.785,994.20,994.21,1.46,1.60,0.00,1.04,0.32,9.28,0.00,-0.00,0.00,0.00
2026-06-26 17:56:28.786,994.20,994.21,1.46,1.60,0.00,1.02,0.28,9.28,0.00,0.00,0.00,0.00
2026-06-26 17:56:28.787,994.20,994.21,1.46,1.60,0.00,1.02,0.28,9.28,0.00,0.00,0.00,0.00
2026-06-26 17:56:28.788,994.20,994.21,1.46,1.60,0.00,1.02,0.28,9.28,0.00,0.00,0.00,0.00
2026-06-26 17:56:28.791,994.20,994.21,1.46,1.60,0.00,1.02,0.28,9.28,0.00,0.00,0.00,0.00
2026-06-26 17:56:28.796,994.20,994.21,1.46,1.60,0.00,1.02,0.28,9.28,0.00,0.00,-0.00,0.00
2026-06-26 17:56:28.798,994.20,994.21,1.46,1.60,0.00,1.03,0.30,9.27,0.00,0.00,-0.00,0.00
2026-06-26 17:56:28.799,994.20,994.21,1.46,1.60,0.00,1.03,0.30,9.27,0.00,0.00,-0.00,0.00
2026-06-26 17:56:28.805,994.20,994.21,1.46,1.60,0.00,1.03,0.30,9.27,0.00,0.00,-0.00,0.00
2026-06-26 17:56:28.806,994.20,994.21,1.46,1.60,0.00,1.00,0.31,9.25,0.00,0.00,-0.00,0.00
2026-06-26 17:56:28.808,994.20,994.21,1.46,1.60,0.00,1.00,0.31,9.25,0.00,0.00,-0.00,0.00
2026-06-26 17:56:28.809,994.20,994.21,1.46,1.60,0.00,1.00,0.31,9.25,0.00,0.00,-0.00,0.00
2026-06-26 17:56:28.855,994.20,994.21,1.54,1.64,0.00,1.01,0.27,9.29,0.00,-0.00,-0.00,0.00
2026-06-26 17:56:28.856,994.20,994.21,1.54,1.64,0.00,1.01,0.30,9.27,0.00,0.00,0.00,0.00
2026-06-26 17:56:28.858,994.20,994.21,1.54,1.64,0.00,1.01,0.30,9.27,0.00,0.00,0.00,0.00
2026-06-26 17:56:28.859,994.20,994.21,1.54,1.64,0.00,1.01,0.30,9.27,0.00,0.00,0.00,0.00
2026-06-26 17:56:28.865,994.20,994.21,1.54,1.64,0.00,1.01,0.30,9.27,0.00,0.00,0.00,0.00
2026-06-26 17:56:28.867,994.20,994.21,1.54,1.64,0.00,1.01,0.31,9.28,0.00,0.00,0.00,0.00
2026-06-26 17:56:28.868,994.20,994.21,1.54,1.64,0.00,1.01,0.31,9.28,0.00,0.00,0.00,0.00
2026-06-26 17:56:28.871,994.20,994.21,1.54,1.64,0.00,1.01,0.31,9.28,0.00,0.00,0.00,0.00
2026-06-26 17:56:28.875,994.20,994.21,1.54,1.64,0.00,1.01,0.31,9.28,0.00,0.00,-0.00,0.00
2026-06-26 17:56:28.877,994.20,994.21,1.54,1.64,0.00,1.00,0.27,9.29,0.00,0.00,-0.00,0.00
2026-06-26 17:56:28.916,994.19,994.21,2.09,1.92,0.00,1.01,0.28,9.24,0.00,0.00,0.00,0.00
2026-06-26 17:56:28.917,994.19,994.21,2.09,1.92,0.00,1.02,0.31,9.27,0.00,0.00,0.00,0.00
2026-06-26 17:56:28.918,994.19,994.21,2.09,1.92,0.00,1.02,0.31,9.27,0.00,0.00,0.00,0.00
2026-06-26 17:56:28.920,994.19,994.21,2.09,1.92,0.00,1.02,0.31,9.27,0.00,0.00,0.00,0.00
2026-06-26 17:56:28.926,994.19,994.21,2.09,1.92,0.00,1.02,0.31,9.27,0.00,0.00,0.00,0.00
2026-06-26 17:56:28.927,994.19,994.21,2.09,1.92,0.00,1.00,0.28,9.28,0.00,0.00,0.00,0.00
2026-06-26 17:56:28.929,994.19,994.21,2.09,1.92,0.00,1.00,0.28,9.28,0.00,0.00,0.00,0.00
2026-06-26 17:56:28.930,994.19,994.21,2.09,1.92,0.00,1.00,0.28,9.28,0.00,0.00,0.00,0.00
2026-06-26 17:56:28.932,994.19,994.21,2.09,1.92,0.00,1.00,0.28,9.28,0.00,0.00,0.00,0.00
2026-06-26 17:56:28.936,994.19,994.21,2.09,1.92,0.00,1.00,0.28,9.28,0.00,-0.00,0.00,0.00
2026-06-26 17:56:28.937,994.19,994.21,2.09,1.92,0.00,1.01,0.30,9.28,0.00,-0.00,0.00,0.00
2026-06-26 17:56:28.938,994.19,994.21,2.09,1.92,0.00,1.01,0.30,9.28,0.00,-0.00,0.00,0.00
2026-06-26 17:56:28.942,994.19,994.21,2.09,1.92,0.00,1.01,0.30,9.28,0.00,-0.00,0.00,0.00
2026-06-26 17:56:28.946,994.19,994.21,2.09,1.92,0.00,1.01,0.30,9.28,0.00,-0.00,0.00,0.00
2026-06-26 17:56:28.948,994.19,994.21,2.09,1.92,0.00,1.02,0.30,9.29,0.00,-0.00,0.00,0.00
2026-06-26 17:56:28.953,994.19,994.21,2.09,1.92,0.00,1.02,0.30,9.29,0.00,-0.00,0.00,0.00
2026-06-26 17:56:28.996,994.19,994.21,2.04,1.90,0.00,1.01,0.30,9.27,0.00,0.00,0.00,0.00
2026-06-26 17:56:28.997,994.19,994.21,2.04,1.90,0.00,1.01,0.30,9.27,0.00,0.00,0.00,0.00
2026-06-26 17:56:28.999,994.19,994.21,2.04,1.90,0.00,1.01,0.30,9.27,0.00,0.00,0.00,0.00
2026-06-26 17:56:28.000,994.19,994.21,2.04,1.90,0.00,1.01,0.30,9.27,0.00,0.00,0.00,0.00
2026-06-26 17:56:29.005,994.19,994.21,2.04,1.90,0.00,1.01,0.30,9.27,0.00,0.00,0.00,0.00
2026-06-26 17:56:29.006,994.19,994.21,2.04,1.90,0.00,1.01,0.29,9.26,0.00,0.00,0.00,0.00
2026-06-26 17:56:29.008,994.19,994.21,2.04,1.90,0.00,1.01,0.29,9.26,0.00,0.00,0.00,0.00
2026-06-26 17:56:29.009,994.19,994.21,2.04,1.90,0.00,1.01,0.29,9.26,0.00,0.00,0.00,0.00
2026-06-26 17:56:29.012,994.19,994.21,2.04,1.90,0.00,1.01,0.29,9.26,0.00,0.00,0.00,0.00
2026-06-26 17:56:29.016,994.19,994.21,2.04,1.90,0.00,1.01,0.29,9.26,-0.00,0.00,0.00,0.00
2026-06-26 17:56:29.058,994.19,994.21,1.88,1.82,0.00,1.00,0.30,9.27,0.00,-0.00,0.00,0.00
2026-06-26 17:56:29.059,994.19,994.21,1.88,1.82,0.00,1.00,0.30,9.27,0.00,-0.00,0.00,0.00
2026-06-26 17:56:29.065,994.19,994.21,1.88,1.82,0.00,1.00,0.30,9.27,0.00,-0.00,0.00,0.00
2026-06-26 17:56:29.066,994.19,994.21,1.88,1.82,0.00,1.00,0.28,9.29,0.00,-0.00,0.00,0.00
2026-06-26 17:56:29.067,994.19,994.21,1.88,1.82,0.00,1.00,0.28,9.29,0.00,-0.00,0.00,0.00
2026-06-26 17:56:29.069,994.19,994.21,1.88,1.82,0.00,1.00,0.28,9.29,0.00,-0.00,0.00,0.00
2026-06-26 17:56:29.070,994.19,994.21,1.88,1.82,0.00,1.00,0.28,9.29,0.00,-0.00,0.00,0.00
2026-06-26 17:56:29.076,994.19,994.21,1.88,1.82,0.00,1.00,0.28,9.29,0.00,-0.00,0.00,0.00
2026-06-26 17:56:29.078,994.19,994.21,1.88,1.82,0.00,1.03,0.29,9.28,0.00,0.00,-0.00,0.00
2026-06-26 17:56:29.079,994.19,994.21,1.88,1.82,0.00,1.03,0.29,9.28,0.00,0.00,-0.00,0.00
2026-06-26 17:56:29.081,994.19,994.21,1.88,1.82,0.00,1.03,0.29,9.28,0.00,0.00,-0.00,0.00
2026-06-26 17:56:29.082,994.19,994.21,1.88,1.82,0.00,1.03,0.29,9.28,0.00,0.00,-0.00,0.00
2026-06-26 17:56:29.086,994.19,994.21,1.88,1.82,0.00,1.03,0.29,9.28,0.00,-0.00,0.00,0.00
2026-06-26 17:56:29.087,994.19,994.21,1.88,1.82,0.00,1.01,0.30,9.28,0.00,-0.00,0.00,0.00
2026-06-26 17:56:29.089,994.19,994.21,1.88,1.82,0.00,1.01,0.30,9.28,0.00,-0.00,0.00,0.00
2026-06-26 17:56:29.090,994.19,994.21,1.88,1.82,0.00,1.01,0.30,9.28,0.00,-0.00,0.00,0.00
2026-06-26 17:56:29.095,994.19,994.21,1.88,1.82,0.00,1.01,0.30,9.28,0.00,-0.00,0.00,0.00
2026-06-26 17:56:29.137,994.19,994.21,1.62,1.69,0.00,1.02,0.29,9.27,-0.00,0.00,0.00,0.00
2026-06-26 17:56:29.139,994.19,994.21,1.62,1.69,0.00,1.02,0.29,9.27,-0.00,0.00,0.00,0.00
2026-06-26 17:56:29.140,994.19,994.21,1.62,1.69,0.00,1.02,0.29,9.27,-0.00,0.00,0.00,0.00
2026-06-26 17:56:29.145,994.19,994.21,1.62,1.69,0.00,1.02,0.29,9.27,-0.00,0.00,0.00,0.00
2026-06-26 17:56:29.148,994.19,994.21,1.62,1.69,0.00,1.02,0.29,9.27,0.00,0.00,0.00,0.00
2026-06-26 17:56:29.152,994.19,994.21,1.62,1.69,0.00,1.02,0.29,9.27,0.00,0.00,0.00,0.00
2026-06-26 17:56:29.156,994.19,994.21,1.62,1.69,0.00,1.02,0.29,9.27,0.00,-0.00,0.00,0.00
2026-06-26 17:56:29.198,994.19,994.21,1.73,1.74,0.00,1.00,0.30,9.27,0.00,-0.00,0.00,0.00
2026-06-26 17:56:29.199,994.19,994.21,1.73,1.74,0.00,1.00,0.30,9.27,0.00,-0.00,0.00,0.00
2026-06-26 17:56:29.205,994.19,994.21,1.73,1.74,0.00,1.00,0.30,9.27,0.00,-0.00,0.00,0.00
2026-06-26 17:56:29.206,994.19,994.21,1.73,1.74,0.00,1.01,0.30,9.27,-0.00,0.00,0.00,0.00
2026-06-26 17:56:29.208,994.19,994.21,1.73,1.74,0.00,1.01,0.30,9.27,-0.00,0.00,0.00,0.00
2026-06-26 17:56:29.209,994.19,994.21,1.73,1.74,0.00,1.01,0.30,9.27,-0.00,0.00,0.00,0.00
2026-06-26 17:56:29.210,994.19,994.21,1.73,1.74,0.00,1.01,0.30,9.27,-0.00,0.00,0.00,0.00
2026-06-26 17:56:29.213,994.19,994.21,1.73,1.74,0.00,1.01,0.30,9.27,-0.00,0.00,0.00,0.00
2026-06-26 17:56:29.216,994.19,994.21,1.73,1.74,0.00,1.01,0.30,9.27,-0.00,0.00,-0.00,0.00
2026-06-26 17:56:29.218,994.19,994.21,1.73,1.74,0.00,1.01,0.29,9.27,-0.00,0.00,-0.00,0.00
2026-06-26 17:56:29.220,994.19,994.21,1.73,1.74,0.00,1.01,0.29,9.27,-0.00,0.00,-0.00,0.00
2026-06-26 17:56:29.226,994.19,994.21,1.73,1.74,0.00,1.01,0.29,9.27,-0.00,0.00,-0.00,0.00
2026-06-26 17:56:29.228,994.19,994.21,1.73,1.74,0.00,1.01,0.28,9.30,0.00,-0.00,0.00,0.00
2026-06-26 17:56:29.230,994.19,994.21,1.73,1.74,0.00,1.01,0.28,9.30,0.00,-0.00,0.00,0.00
2026-06-26 17:56:29.231,994.19,994.21,1.73,1.74,0.00,1.01,0.28,9.30,0.00,-0.00,0.00,0.00
2026-06-26 17:56:29.233,994.19,994.21,1.73,1.74,0.00,1.01,0.28,9.30,0.00,-0.00,0.00,0.00
2026-06-26 17:56:29.236,994.19,994.21,1.73,1.74,0.00,1.01,0.28,9.30,0.00,-0.00,0.00,0.00
2026-06-26 17:56:29.278,994.19,994.21,1.65,1.70,0.00,1.00,0.29,9.28,-0.00,0.00,0.00,0.00
2026-06-26 17:56:29.279,994.19,994.21,1.65,1.70,0.00,1.00,0.29,9.28,-0.00,0.00,0.00,0.00
2026-06-26 17:56:29.281,994.19,994.21,1.65,1.70,0.00,1.00,0.29,9.28,-0.00,0.00,0.00,0.00
2026-06-26 17:56:29.282,994.19,994.21,1.65,1.70,0.00,1.00,0.29,9.28,-0.00,0.00,0.00,0.00
2026-06-26 17:56:29.283,994.19,994.21,1.65,1.70,0.00,1.00,0.29,9.28,-0.00,0.00,0.00,0.00
2026-06-26 17:56:29.286,994.19,994.21,1.65,1.70,0.00,1.00,0.29,9.28,0.00,0.00,0.00,0.00
2026-06-26 17:56:29.288,994.19,994.21,1.65,1.70,0.00,1.00,0.31,9.26,0.00,0.00,0.00,0.00
2026-06-26 17:56:29.290,994.19,994.21,1.65,1.70,0.00,1.00,0.31,9.26,0.00,0.00,0.00,0.00
2026-06-26 17:56:29.296,994.19,994.21,1.65,1.70,0.00,1.00,0.31,9.26,0.00,0.00,0.00,0.00
2026-06-26 17:56:29.298,994.19,994.21,1.65,1.70,0.00,1.01,0.29,9.26,0.00,0.00,0.00,0.00
2026-06-26 17:56:29.345,994.19,994.21,2.07,1.91,0.00,1.00,0.29,9.29,0.00,-0.00,-0.00,0.00
2026-06-26 17:56:29.347,994.19,994.21,2.07,1.91,0.00,1.01,0.30,9.28,0.00,-0.00,-0.00,0.00
2026-06-26 17:56:29.348,994.19,994.21,2.07,1.91,0.00,1.01,0.30,9.28,0.00,-0.00,-0.00,0.00
2026-06-26 17:56:29.349,994.19,994.21,2.07,1.91,0.00,1.01,0.30,9.28,0.00,-0.00,-0.00,0.00
2026-06-26 17:56:29.350,994.19,994.21,2.07,1.91,0.00,1.01,0.30,9.28,0.00,-0.00,-0.00,0.00
2026-06-26 17:56:29.356,994.19,994.21,2.07,1.91,0.00,1.01,0.30,9.28,0.00,-0.00,-0.00,0.00
2026-06-26 17:56:29.358,994.19,994.21,2.07,1.91,0.00,1.03,0.31,9.27,-0.00,0.00,0.00,0.00
2026-06-26 17:56:29.362,994.19,994.21,2.07,1.91,0.00,1.03,0.31,9.27,-0.00,0.00,0.00,0.00
2026-06-26 17:56:29.366,994.19,994.21,2.07,1.91,0.00,1.03,0.31,9.27,0.00,0.00,-0.00,0.00
2026-06-26 17:56:29.368,994.19,994.21,2.07,1.91,0.00,1.01,0.28,9.26,0.00,0.00,-0.00,0.00
2026-06-26 17:56:29.370,994.19,994.21,2.07,1.91,0.00,1.01,0.28,9.26,0.00,0.00,-0.00,0.00
2026-06-26 17:56:29.376,994.19,994.21,2.07,1.91,0.00,1.01,0.28,9.26,0.00,0.00,-0.00,0.00
2026-06-26 17:56:29.377,994.19,994.21,2.07,1.91,0.00,1.02,0.27,9.27,-0.00,0.00,-0.00,0.00
2026-06-26 17:56:29.419,994.19,994.21,1.64,1.69,0.00,1.01,0.28,9.27,0.00,0.00,0.00,0.00
2026-06-26 17:56:29.420,994.19,994.21,1.64,1.69,0.00,1.01,0.28,9.27,0.00,0.00,0.00,0.00
2026-06-26 17:56:29.426,994.19,994.21,1.64,1.69,0.00,1.01,0.28,9.27,0.00,0.00,0.00,0.00
2026-06-26 17:56:29.428,994.19,994.21,1.64,1.69,0.00,1.00,0.29,9.27,-0.00,-0.00,0.00,0.00
2026-06-26 17:56:29.430,994.19,994.21,1.64,1.69,0.00,1.00,0.29,9.27,-0.00,-0.00,0.00,0.00
2026-06-26 17:56:29.431,994.19,994.21,1.64,1.69,0.00,1.00,0.29,9.27,-0.00,-0.00,0.00,0.00
2026-06-26 17:56:29.433,994.19,994.21,1.64,1.69,0.00,1.00,0.29,9.27,-0.00,-0.00,0.00,0.00
2026-06-26 17:56:29.436,994.19,994.21,1.64,1.69,0.00,1.00,0.29,9.27,-0.00,-0.00,0.00,0.00
2026-06-26 17:56:29.437,994.19,994.21,1.64,1.69,0.00,1.03,0.28,9.29,-0.00,0.00,-0.00,0.00
2026-06-26 17:56:29.439,994.19,994.21,1.64,1.69,0.00,1.03,0.28,9.29,-0.00,0.00,-0.00,0.00
2026-06-26 17:56:29.480,994.19,994.21,1.71,1.73,0.00,1.02,0.29,9.30,-0.00,-0.00,0.00,0.00
2026-06-26 17:56:29.482,994.19,994.21,1.71,1.73,0.00,1.02,0.29,9.30,-0.00,-0.00,0.00,0.00
2026-06-26 17:56:29.483,994.19,994.21,1.71,1.73,0.00,1.02,0.29,9.30,-0.00,-0.00,0.00,0.00
2026-06-26 17:56:29.487,994.19,994.21,1.71,1.73,0.00,1.02,0.29,9.30,-0.00,0.00,-0.00,0.00
2026-06-26 17:56:29.490,994.19,994.21,1.71,1.73,0.00,1.03,0.28,9.29,-0.00,0.00,-0.00,0.00
2026-06-26 17:56:29.494,994.19,994.21,1.71,1.73,0.00,1.03,0.28,9.29,-0.00,0.00,-0.00,0.00
2026-06-26 17:56:29.497,994.19,994.21,1.71,1.73,0.00,1.02,0.30,9.27,-0.00,0.00,0.00,0.00
2026-06-26 17:56:29.498,994.19,994.21,1.71,1.73,0.00,1.02,0.30,9.27,-0.00,0.00,0.00,0.00
2026-06-26 17:56:29.499,994.19,994.21,1.71,1.73,0.00,1.02,0.30,9.27,-0.00,0.00,0.00,0.00
2026-06-26 17:56:29.500,994.19,994.21,1.71,1.73,0.00,1.02,0.30,9.27,-0.00,0.00,0.00,0.00
2026-06-26 17:56:29.506,994.19,994.21,1.71,1.73,0.00,1.02,0.30,9.27,-0.00,0.00,0.00,0.00
2026-06-26 17:56:29.508,994.19,994.21,1.71,1.73,0.00,1.01,0.29,9.27,-0.00,0.00,-0.00,0.00
2026-06-26 17:56:29.510,994.19,994.21,1.71,1.73,0.00,1.01,0.29,9.27,-0.00,0.00,-0.00,0.00
2026-06-26 17:56:29.513,994.19,994.21,1.71,1.73,0.00,1.01,0.29,9.27,-0.00,0.00,-0.00,0.00
2026-06-26 17:56:29.516,994.19,994.21,1.71,1.73,0.00,1.01,0.29,9.27,-0.00,0.00,0.00,0.00
2026-06-26 17:56:29.518,994.19,994.21,1.71,1.73,0.00,0.98,0.30,9.26,-0.00,0.00,0.00,0.00
2026-06-26 17:56:29.560,994.19,994.20,1.66,1.71,0.00,1.01,0.30,9.27,-0.00,0.00,0.00,0.00
2026-06-26 17:56:29.566,994.19,994.20,1.66,1.71,0.00,1.01,0.30,9.27,-0.00,0.00,0.00,0.00
2026-06-26 17:56:29.567,994.19,994.20,1.66,1.71,0.00,1.01,0.29,9.26,0.00,0.00,-0.00,0.00
2026-06-26 17:56:29.568,994.19,994.20,1.66,1.71,0.00,1.01,0.29,9.26,0.00,0.00,-0.00,0.00
2026-06-26 17:56:29.570,994.19,994.20,1.66,1.71,0.00,1.01,0.29,9.26,0.00,0.00,-0.00,0.00
2026-06-26 17:56:29.572,994.19,994.20,1.66,1.71,0.00,1.01,0.29,9.26,0.00,0.00,-0.00,0.00
2026-06-26 17:56:29.577,994.19,994.20,1.66,1.71,0.00,1.01,0.29,9.26,0.00,0.00,0.00,0.00
2026-06-26 17:56:29.579,994.19,994.20,1.66,1.71,0.00,1.01,0.30,9.29,0.00,0.00,0.00,0.00
2026-06-26 17:56:29.626,994.19,994.20,1.67,1.71,0.00,1.00,0.29,9.28,0.00,-0.00,0.00,0.00
2026-06-26 17:56:29.628,994.19,994.20,1.67,1.71,0.00,1.04,0.29,9.27,0.00,0.00,0.00,0.00
2026-06-26 17:56:29.629,994.19,994.20,1.67,1.71,0.00,1.04,0.29,9.27,0.00,0.00,0.00,0.00
2026-06-26 17:56:29.631,994.19,994.20,1.67,1.71,0.00,1.04,0.29,9.27,0.00,0.00,0.00,0.00
2026-06-26 17:56:29.632,994.19,994.20,1.67,1.71,0.00,1.04,0.29,9.27,0.00,0.00,0.00,0.00
2026-06-26 17:56:29.634,994.19,994.20,1.67,1.71,0.00,1.04,0.29,9.27,0.00,0.00,0.00,0.00
2026-06-26 17:56:29.637,994.19,994.20,1.67,1.71,0.00,1.04,0.29,9.27,-0.00,-0.00,0.00,0.00
2026-06-26 17:56:29.639,994.19,994.20,1.67,1.71,0.00,1.02,0.32,9.31,-0.00,-0.00,0.00,0.00
2026-06-26 17:56:29.640,994.19,994.20,1.67,1.71,0.00,1.02,0.32,9.31,-0.00,-0.00,0.00,0.00
2026-06-26 17:56:29.647,994.19,994.20,1.67,1.71,0.00,1.02,0.32,9.31,-0.00,-0.00,0.00,0.00
2026-06-26 17:56:29.653,994.19,994.20,1.67,1.71,0.00,1.01,0.28,9.28,-0.00,0.00,-0.00,0.00
2026-06-26 17:56:29.657,994.19,994.20,1.67,1.71,0.00,1.01,0.28,9.28,0.00,-0.00,-0.00,0.00
2026-06-26 17:56:29.659,994.19,994.20,1.67,1.71,0.00,1.00,0.31,9.25,0.00,-0.00,-0.00,0.00
2026-06-26 17:56:29.706,994.19,994.20,1.59,1.67,0.00,1.01,0.28,9.25,-0.00,0.00,0.00,0.00
2026-06-26 17:56:29.708,994.19,994.20,1.59,1.67,0.00,1.02,0.28,9.24,-0.00,0.00,0.00,0.00
2026-06-26 17:56:29.710,994.19,994.20,1.59,1.67,0.00,1.02,0.28,9.24,-0.00,0.00,0.00,0.00
2026-06-26 17:56:29.711,994.19,994.20,1.59,1.67,0.00,1.02,0.28,9.24,-0.00,0.00,0.00,0.00
2026-06-26 17:56:29.716,994.19,994.20,1.59,1.67,0.00,1.02,0.28,9.24,-0.00,0.00,0.00,0.00
2026-06-26 17:56:29.718,994.19,994.20,1.59,1.67,0.00,1.00,0.30,9.27,0.00,0.00,0.00,0.00
2026-06-26 17:56:29.720,994.19,994.20,1.59,1.67,0.00,1.00,0.30,9.27,0.00,0.00,0.00,0.00
2026-06-26 17:56:29.767,994.19,994.20,1.86,1.81,0.00,1.03,0.31,9.26,0.00,0.00,0.00,0.00
2026-06-26 17:56:29.768,994.19,994.20,1.86,1.81,0.00,1.02,0.32,9.27,0.00,0.00,0.00,0.00
2026-06-26 17:56:29.770,994.19,994.20,1.86,1.81,0.00,1.02,0.32,9.27,0.00,0.00,0.00,0.00
2026-06-26 17:56:29.773,994.19,994.20,1.86,1.81,0.00,1.02,0.32,9.27,0.00,0.00,0.00,0.00
2026-06-26 17:56:29.777,994.19,994.20,1.86,1.81,0.00,1.02,0.32,9.27,0.00,0.00,-0.00,0.00
2026-06-26 17:56:29.779,994.19,994.20,1.86,1.81,0.00,1.02,0.30,9.27,0.00,0.00,-0.00,0.00
2026-06-26 17:56:29.780,994.19,994.20,1.86,1.81,0.00,1.02,0.30,9.27,0.00,0.00,-0.00,0.00
2026-06-26 17:56:29.782,994.19,994.20,1.86,1.81,0.00,1.02,0.30,9.27,0.00,0.00,-0.00,0.00
2026-06-26 17:56:29.787,994.19,994.20,1.86,1.81,0.00,1.02,0.30,9.27,0.00,0.00,-0.00,0.00
2026-06-26 17:56:29.789,994.19,994.20,1.86,1.81,0.00,1.01,0.30,9.26,0.00,-0.00,0.00,0.00
2026-06-26 17:56:29.791,994.19,994.20,1.86,1.81,0.00,1.01,0.30,9.26,0.00,-0.00,0.00,0.00
2026-06-26 17:56:29.797,994.19,994.20,1.86,1.81,0.00,1.01,0.30,9.26,0.00,-0.00,0.00,0.00
2026-06-26 17:56:29.798,994.19,994.20,1.86,1.81,0.00,1.01,0.28,9.27,0.00,-0.00,-0.00,0.00
2026-06-26 17:56:29.800,994.19,994.20,1.86,1.81,0.00,1.01,0.28,9.27,0.00,-0.00,-0.00,0.00
2026-06-26 17:56:29.803,994.19,994.20,1.86,1.81,0.00,1.01,0.28,9.27,0.00,-0.00,-0.00,0.00
2026-06-26 17:56:29.847,994.19,994.20,1.90,1.83,0.00,1.00,0.27,9.28,0.00,0.00,0.00,0.00
2026-06-26 17:56:29.849,994.19,994.20,1.90,1.83,0.00,1.02,0.29,9.29,0.00,0.00,0.00,0.00
2026-06-26 17:56:29.851,994.19,994.20,1.90,1.83,0.00,1.02,0.29,9.29,0.00,0.00,0.00,0.00
2026-06-26 17:56:29.857,994.19,994.20,1.90,1.83,0.00,1.02,0.29,9.29,0.00,0.00,0.00,0.00
2026-06-26 17:56:29.859,994.19,994.20,1.90,1.83,0.00,1.02,0.28,9.25,0.00,0.00,0.00,0.00
2026-06-26 17:56:29.863,994.19,994.20,1.90,1.83,0.00,1.02,0.28,9.25,0.00,0.00,0.00,0.00
2026-06-26 17:56:29.908,994.19,994.20,1.73,1.74,0.00,1.01,0.31,9.30,0.00,-0.00,0.00,0.00
2026-06-26 17:56:29.909,994.19,994.20,1.73,1.74,0.00,1.02,0.30,9.26,0.00,-0.00,0.00,0.00
2026-06-26 17:56:29.911,994.19,994.20,1.73,1.74,0.00,1.02,0.30,9.26,0.00,-0.00,0.00,0.00
2026-06-26 17:56:29.913,994.19,994.20,1.73,1.74,0.00,1.02,0.30,9.26,0.00,-0.00,0.00,0.00
2026-06-26 17:56:29.917,994.19,994.20,1.73,1.74,0.00,1.02,0.30,9.26,0.00,-0.00,-0.00,0.00
2026-06-26 17:56:29.919,994.19,994.20,1.73,1.74,0.00,1.01,0.30,9.26,0.00,-0.00,-0.00,0.00
2026-06-26 17:56:29.920,994.19,994.20,1.73,1.74,0.00,1.01,0.30,9.26,0.00,-0.00,-0.00,0.00
2026-06-26 17:56:29.924,994.19,994.20,1.73,1.74,0.00,1.01,0.30,9.26,0.00,-0.00,-0.00,0.00
2026-06-26 17:56:29.928,994.19,994.20,1.73,1.74,0.00,1.01,0.30,9.26,0.00,-0.00,0.00,0.00
2026-06-26 17:56:29.930,994.19,994.20,1.73,1.74,0.00,1.01,0.30,9.30,0.00,-0.00,0.00,0.00
2026-06-26 17:56:29.933,994.19,994.20,1.73,1.74,0.00,1.01,0.30,9.30,0.00,-0.00,0.00,0.00
2026-06-26 17:56:29.935,994.19,994.20,1.73,1.74,0.00,1.01,0.30,9.30,0.00,-0.00,0.00,0.00
2026-06-26 17:56:29.938,994.19,994.20,1.73,1.74,0.00,1.01,0.30,9.30,0.00,0.00,-0.00,0.00
2026-06-26 17:56:29.940,994.19,994.20,1.73,1.74,0.00,1.01,0.29,9.27,0.00,0.00,-0.00,0.00
2026-06-26 17:56:29.947,994.19,994.20,1.73,1.74,0.00,1.01,0.29,9.27,0.00,0.00,-0.00,0.00
2026-06-26 17:56:29.993,994.19,994.20,1.08,1.38,0.00,1.02,0.29,9.28,0.00,0.00,0.00,0.00
2026-06-26 17:56:29.997,994.19,994.20,1.08,1.38,0.00,1.02,0.29,9.28,0.00,0.00,0.00,0.00
2026-06-26 17:56:29.999,994.19,994.20,1.08,1.38,0.00,1.00,0.29,9.28,0.00,0.00,0.00,0.00
2026-06-26 17:56:29.001,994.19,994.20,1.08,1.38,0.00,1.00,0.29,9.28,0.00,0.00,0.00,0.00
2026-06-26 17:56:30.007,994.19,994.20,1.08,1.38,0.00,1.00,0.29,9.28,0.00,0.00,0.00,0.00
2026-06-26 17:56:30.048,994.19,994.20,1.15,1.42,0.00,1.01,0.31,9.27,0.00,0.00,0.00,0.00
2026-06-26 17:56:30.050,994.19,994.20,1.15,1.42,0.00,1.01,0.31,9.27,0.00,0.00,0.00,0.00
2026-06-26 17:56:30.051,994.19,994.20,1.15,1.42,0.00,1.01,0.31,9.27,0.00,0.00,0.00,0.00
2026-06-26 17:56:30.057,994.19,994.20,1.15,1.42,0.00,1.01,0.31,9.27,0.00,0.00,0.00,0.00
2026-06-26 17:56:30.059,994.19,994.20,1.15,1.42,0.00,1.01,0.30,9.26,0.00,0.00,0.00,0.00
2026-06-26 17:56:30.060,994.19,994.20,1.15,1.42,0.00,1.01,0.30,9.26,0.00,0.00,0.00,0.00
2026-06-26 17:56:30.067,994.19,994.20,1.15,1.42,0.00,1.01,0.30,9.26,0.00,0.00,0.00,0.00
2026-06-26 17:56:30.069,994.19,994.20,1.15,1.42,0.00,1.01,0.32,9.26,0.00,-0.00,-0.00,0.00
2026-06-26 17:56:30.071,994.19,994.20,1.15,1.42,0.00,1.01,0.32,9.26,0.00,-0.00,-0.00,0.00
2026-06-26 17:56:30.075,994.19,994.20,1.15,1.42,0.00,1.01,0.32,9.26,0.00,-0.00,-0.00,0.00
2026-06-26 17:56:30.078,994.19,994.20,1.15,1.42,0.00,1.01,0.32,9.26,0.00,0.00,-0.00,0.00
2026-06-26 17:56:30.081,994.19,994.20,1.15,1.42,0.00,0.99,0.28,9.27,0.00,0.00,-0.00,0.00
2026-06-26 17:56:30.083,994.19,994.20,1.15,1.42,0.00,0.99,0.28,9.27,0.00,0.00,-0.00,0.00
2026-06-26 17:56:30.084,994.19,994.20,1.15,1.42,0.00,0.99,0.28,9.27,0.00,0.00,-0.00,0.00
2026-06-26 17:56:30.087,994.19,994.20,1.15,1.42,0.00,0.99,0.28,9.27,0.00,0.00,-0.00,0.00
2026-06-26 17:56:30.089,994.19,994.20,1.15,1.42,0.00,1.01,0.29,9.27,0.00,0.00,-0.00,0.00
2026-06-26 17:56:30.091,994.19,994.20,1.15,1.42,0.00,1.01,0.29,9.27,0.00,0.00,-0.00,0.00
2026-06-26 17:56:30.129,994.19,994.20,1.42,1.58,0.00,1.02,0.29,9.28,0.00,0.00,0.00,0.00
2026-06-26 17:56:30.130,994.19,994.20,1.42,1.58,0.00,1.02,0.29,9.28,0.00,0.00,0.00,0.00
2026-06-26 17:56:30.132,994.19,994.20,1.42,1.58,0.00,1.02,0.29,9.28,0.00,0.00,0.00,0.00
2026-06-26 17:56:30.134,994.19,994.20,1.42,1.58,0.00,1.02,0.29,9.28,0.00,0.00,0.00,0.00
2026-06-26 17:56:30.137,994.19,994.20,1.42,1.58,0.00,1.02,0.29,9.28,0.00,0.00,0.00,0.00
2026-06-26 17:56:30.140,994.19,994.20,1.42,1.58,0.00,1.02,0.29,9.28,-0.00,-0.00,0.00,0.00
2026-06-26 17:56:30.148,994.19,994.20,1.42,1.58,0.00,1.02,0.29,9.28,-0.00,-0.00,0.00,0.00
2026-06-26 17:56:30.191,994.19,994.20,1.32,1.52,0.00,1.01,0.28,9.29,0.00,0.00,-0.00,0.00
2026-06-26 17:56:30.197,994.19,994.20,1.32,1.52,0.00,1.01,0.28,9.29,0.00,0.00,-0.00,0.00
2026-06-26 17:56:30.199,994.19,994.20,1.32,1.52,0.00,1.02,0.31,9.27,0.00,0.00,-0.00,0.00
2026-06-26 17:56:30.200,994.19,994.20,1.32,1.52,0.00,1.02,0.31,9.27,0.00,0.00,-0.00,0.00
2026-06-26 17:56:30.204,994.19,994.20,1.32,1.52,0.00,1.02,0.31,9.27,0.00,0.00,-0.00,0.00
2026-06-26 17:56:30.208,994.19,994.20,1.32,1.52,0.00,1.02,0.31,9.27,0.00,0.00,0.00,0.00
2026-06-26 17:56:30.209,994.19,994.20,1.32,1.52,0.00,1.02,0.28,9.26,0.00,0.00,0.00,0.00
2026-06-26 17:56:30.211,994.19,994.20,1.32,1.52,0.00,1.02,0.28,9.26,0.00,0.00,0.00,0.00
2026-06-26 17:56:30.212,994.19,994.20,1.32,1.52,0.00,1.02,0.28,9.26,0.00,0.00,0.00,0.00
2026-06-26 17:56:30.217,994.19,994.20,1.32,1.52,0.00,1.02,0.28,9.26,0.00,0.00,0.00,0.00
2026-06-26 17:56:30.219,994.19,994.20,1.32,1.52,0.00,1.02,0.29,9.26,-0.00,0.00,-0.00,0.00
2026-06-26 17:56:30.221,994.19,994.20,1.32,1.52,0.00,1.02,0.29,9.26,-0.00,0.00,-0.00,0.00
2026-06-26 17:56:30.228,994.19,994.20,1.32,1.52,0.00,1.02,0.29,9.26,-0.00,0.00,-0.00,0.00
2026-06-26 17:56:30.274,994.19,994.20,1.21,1.46,0.00,1.01,0.29,9.29,0.00,-0.00,0.00,0.00
2026-06-26 17:56:30.279,994.19,994.20,1.21,1.46,0.00,1.01,0.29,9.29,0.00,-0.00,0.00,0.00
2026-06-26 17:56:30.281,994.19,994.20,1.21,1.46,0.00,1.00,0.29,9.27,0.00,-0.00,0.00,0.00
2026-06-26 17:56:30.282,994.19,994.20,1.21,1.46,0.00,1.00,0.29,9.27,0.00,-0.00,0.00,0.00
2026-06-26 17:56:30.284,994.19,994.20,1.21,1.46,0.00,1.00,0.29,9.27,0.00,-0.00,0.00,0.00
2026-06-26 17:56:30.288,994.19,994.20,1.21,1.46,0.00,1.00,0.29,9.27,0.00,0.00,-0.00,0.00
2026-06-26 17:56:30.290,994.19,994.20,1.21,1.46,0.00,1.02,0.29,9.28,0.00,0.00,-0.00,0.00
2026-06-26 17:56:30.329,994.19,994.20,1.25,1.48,0.00,1.02,0.29,9.29,0.00,0.00,0.00,0.00
2026-06-26 17:56:30.331,994.19,994.20,1.25,1.48,0.00,1.02,0.29,9.29,0.00,0.00,0.00,0.00
2026-06-26 17:56:30.333,994.19,994.20,1.25,1.48,0.00,1.02,0.29,9.29,0.00,0.00,0.00,0.00
2026-06-26 17:56:30.334,994.19,994.20,1.25,1.48,0.00,1.02,0.29,9.29,0.00,0.00,0.00,0.00
2026-06-26 17:56:30.338,994.19,994.20,1.25,1.48,0.00,1.02,0.29,9.29,0.00,0.00,-0.00,0.00
2026-06-26 17:56:30.341,994.19,994.20,1.25,1.48,0.00,1.01,0.29,9.28,0.00,0.00,-0.00,0.00
2026-06-26 17:56:30.348,994.19,994.20,1.25,1.48,0.00,1.01,0.29,9.28,0.00,0.00,-0.00,0.00
2026-06-26 17:56:30.350,994.19,994.20,1.25,1.48,0.00,1.01,0.30,9.27,0.00,0.00,0.00,0.00
2026-06-26 17:56:30.352,994.19,994.20,1.25,1.48,0.00,1.01,0.30,9.27,0.00,0.00,0.00,0.00
2026-06-26 17:56:30.358,994.19,994.20,1.25,1.48,0.00,1.01,0.30,9.27,0.00,-0.00,-0.00,0.00
2026-06-26 17:56:30.360,994.19,994.20,1.25,1.48,0.00,1.02,0.28,9.25,0.00,-0.00,-0.00,0.00
2026-06-26 17:56:30.362,994.19,994.20,1.25,1.48,0.00,1.02,0.28,9.25,0.00,-0.00,-0.00,0.00
2026-06-26 17:56:30.368,994.19,994.20,1.25,1.48,0.00,1.02,0.28,9.25,0.00,-0.00,-0.00,0.00
2026-06-26 17:56:30.369,994.19,994.20,1.25,1.48,0.00,1.01,0.28,9.28,0.00,-0.00,-0.00,0.00
2026-06-26 17:56:30.371,994.19,994.20,1.25,1.48,0.00,1.01,0.28,9.28,0.00,-0.00,-0.00,0.00
2026-06-26 17:56:30.418,994.19,994.20,1.11,1.39,0.00,1.01,0.28,9.24,0.00,0.00,-0.00,0.00
2026-06-26 17:56:30.419,994.19,994.20,1.11,1.39,0.00,1.01,0.31,9.28,-0.00,-0.00,0.00,0.00
2026-06-26 17:56:30.421,994.19,994.20,1.11,1.39,0.00,1.01,0.31,9.28,-0.00,-0.00,0.00,0.00
2026-06-26 17:56:30.422,994.19,994.20,1.11,1.39,0.00,1.01,0.31,9.28,-0.00,-0.00,0.00,0.00
2026-06-26 17:56:30.428,994.19,994.20,1.11,1.39,0.00,1.01,0.31,9.28,-0.00,-0.00,0.00,0.00
2026-06-26 17:56:30.471,994.19,994.20,0.91,1.26,0.00,1.02,0.31,9.29,0.00,-0.00,0.00,0.00
2026-06-26 17:56:30.477,994.19,994.20,0.91,1.26,0.00,1.02,0.31,9.29,0.00,-0.00,0.00,0.00
2026-06-26 17:56:30.479,994.19,994.20,0.91,1.26,0.00,1.01,0.28,9.28,0.00,0.00,-0.00,0.00
2026-06-26 17:56:30.481,994.19,994.20,0.91,1.26,0.00,1.01,0.28,9.28,0.00,0.00,-0.00,0.00
2026-06-26 17:56:30.482,994.19,994.20,0.91,1.26,0.00,1.01,0.28,9.28,0.00,0.00,-0.00,0.00
2026-06-26 17:56:30.484,994.19,994.20,0.91,1.26,0.00,1.01,0.28,9.28,0.00,0.00,-0.00,0.00
2026-06-26 17:56:30.487,994.19,994.20,0.91,1.26,0.00,1.01,0.28,9.28,0.00,0.00,-0.00,0.00
2026-06-26 17:56:30.489,994.19,994.20,0.91,1.26,0.00,1.02,0.29,9.28,0.00,-0.00,-0.00,0.00
2026-06-26 17:56:30.491,994.19,994.20,0.91,1.26,0.00,1.02,0.29,9.28,0.00,-0.00,-0.00,0.00
2026-06-26 17:56:30.492,994.19,994.20,0.91,1.26,0.00,1.02,0.29,9.28,0.00,-0.00,-0.00,0.00
2026-06-26 17:56:30.498,994.19,994.20,0.91,1.26,0.00,1.02,0.29,9.28,0.00,-0.00,-0.00,0.00
2026-06-26 17:56:30.499,994.19,994.20,0.91,1.26,0.00,1.03,0.28,9.28,0.00,-0.00,0.00,0.00
2026-06-26 17:56:30.501,994.19,994.20,0.91,1.26,0.00,1.03,0.28,9.28,0.00,-0.00,0.00,0.00
2026-06-26 17:56:30.509,994.19,994.20,0.91,1.26,0.00,1.03,0.28,9.28,0.00,0.00,-0.00,0.00
2026-06-26 17:56:30.512,994.19,994.20,0.91,1.26,0.00,1.01,0.29,9.26,0.00,0.00,-0.00,0.00
2026-06-26 17:56:30.518,994.19,994.20,0.91,1.26,0.00,1.01,0.29,9.26,0.00,0.00,-0.00,0.00
2026-06-26 17:56:30.561,994.19,994.20,0.97,1.31,0.00,1.02,0.29,9.26,-0.00,-0.00,0.00,0.00
2026-06-26 17:56:30.565,994.19,994.20,0.97,1.31,0.00,1.02,0.29,9.26,-0.00,-0.00,0.00,0.00
2026-06-26 17:56:30.569,994.19,994.20,0.97,1.31,0.00,1.02,0.29,9.26,0.00,-0.00,0.00,0.00
2026-06-26 17:56:30.570,994.19,994.20,0.97,1.31,0.00,1.01,0.28,9.28,0.00,-0.00,0.00,0.00
2026-06-26 17:56:30.612,994.18,994.20,1.42,1.58,0.00,1.01,0.30,9.27,0.00,-0.00,-0.00,0.00
2026-06-26 17:56:30.618,994.18,994.20,1.42,1.58,0.00,1.01,0.30,9.27,0.00,-0.00,-0.00,0.00
2026-06-26 17:56:30.619,994.18,994.20,1.42,1.58,0.00,1.02,0.29,9.27,0.00,-0.00,0.00,0.00
2026-06-26 17:56:30.621,994.18,994.20,1.42,1.58,0.00,1.02,0.29,9.27,0.00,-0.00,0.00,0.00
2026-06-26 17:56:30.623,994.18,994.20,1.42,1.58,0.00,1.02,0.29,9.27,0.00,-0.00,0.00,0.00
2026-06-26 17:56:30.630,994.18,994.20,1.42,1.58,0.00,1.02,0.29,9.27,0.00,-0.00,0.00,0.00
2026-06-26 17:56:30.638,994.18,994.20,1.42,1.58,0.00,1.01,0.31,9.30,0.00,-0.00,-0.00,0.00
2026-06-26 17:56:30.640,994.18,994.20,1.42,1.58,0.00,0.99,0.30,9.29,0.00,-0.00,-0.00,0.00
2026-06-26 17:56:30.642,994.18,994.20,1.42,1.58,0.00,0.99,0.30,9.29,0.00,-0.00,-0.00,0.00
2026-06-26 17:56:30.648,994.18,994.20,1.42,1.58,0.00,0.99,0.30,9.29,0.00,-0.00,-0.00,0.00
2026-06-26 17:56:30.650,994.18,994.20,1.42,1.58,0.00,0.98,0.31,9.29,0.00,-0.00,0.00,0.00
2026-06-26 17:56:30.656,994.18,994.20,1.42,1.58,0.00,0.98,0.31,9.29,0.00,-0.00,0.00,0.00
2026-06-26 17:56:30.659,994.18,994.20,1.42,1.58,0.00,0.98,0.31,9.29,-0.00,0.00,-0.00,0.00
2026-06-26 17:56:30.707,994.18,994.20,1.49,1.62,0.00,0.99,0.31,9.27,0.00,-0.00,0.00,0.00
2026-06-26 17:56:30.709,994.18,994.20,1.49,1.62,0.00,1.00,0.31,9.26,-0.00,-0.00,0.00,0.00
2026-06-26 17:56:30.711,994.18,994.20,1.49,1.62,0.00,1.00,0.31,9.26,-0.00,-0.00,0.00,0.00
2026-06-26 17:56:30.749,994.18,994.20,1.80,1.78,0.00,1.01,0.32,9.27,0.00,0.00,0.00,0.00
2026-06-26 17:56:30.751,994.18,994.20,1.80,1.78,0.00,1.01,0.32,9.27,0.00,0.00,0.00,0.00
2026-06-26 17:56:30.752,994.18,994.20,1.80,1.78,0.00,1.01,0.32,9.27,0.00,0.00,0.00,0.00
2026-06-26 17:56:30.757,994.18,994.20,1.80,1.78,0.00,1.01,0.32,9.27,0.00,0.00,0.00,0.00
2026-06-26 17:56:30.759,994.18,994.20,1.80,1.78,0.00,1.01,0.30,9.27,0.00,-0.00,-0.00,0.00
2026-06-26 17:56:30.761,994.18,994.20,1.80,1.78,0.00,1.01,0.30,9.27,0.00,-0.00,-0.00,0.00
2026-06-26 17:56:30.762,994.18,994.20,1.80,1.78,0.00,1.01,0.30,9.27,0.00,-0.00,-0.00,0.00
2026-06-26 17:56:30.767,994.18,994.20,1.80,1.78,0.00,1.01,0.30,9.27,0.00,-0.00,-0.00,0.00
2026-06-26 17:56:30.770,994.18,994.20,1.80,1.78,0.00,1.01,0.30,9.31,0.00,0.00,0.00,0.00
2026-06-26 17:56:30.772,994.18,994.20,1.80,1.78,0.00,1.01,0.30,9.31,0.00,0.00,0.00,0.00
2026-06-26 17:56:30.778,994.18,994.20,1.80,1.78,0.00,1.01,0.30,9.31,0.00,0.00,0.00,0.00
2026-06-26 17:56:30.780,994.18,994.20,1.80,1.78,0.00,1.02,0.28,9.26,0.00,0.00,-0.00,0.00
2026-06-26 17:56:30.781,994.18,994.20,1.80,1.78,0.00,1.02,0.28,9.26,0.00,0.00,-0.00,0.00
2026-06-26 17:56:30.782,994.18,994.20,1.80,1.78,0.00,1.02,0.28,9.26,0.00,0.00,-0.00,0.00
2026-06-26 17:56:30.785,994.18,994.20,1.80,1.78,0.00,1.02,0.28,9.26,0.00,0.00,-0.00,0.00
2026-06-26 17:56:30.788,994.18,994.20,1.80,1.78,0.00,1.02,0.28,9.26,0.00,0.00,-0.00,0.00
2026-06-26 17:56:30.790,994.18,994.20,1.80,1.78,0.00,1.01,0.30,9.29,0.00,0.00,-0.00,0.00
2026-06-26 17:56:30.795,994.18,994.20,1.80,1.78,0.00,1.01,0.30,9.29,0.00,0.00,-0.00,0.00
2026-06-26 17:56:30.799,994.18,994.20,1.80,1.78,0.00,1.01,0.30,9.29,0.00,0.00,-0.00,0.00
2026-06-26 17:56:30.801,994.18,994.20,1.80,1.78,0.00,1.01,0.29,9.27,0.00,0.00,-0.00,0.00
2026-06-26 17:56:30.802,994.18,994.20,1.80,1.78,0.00,1.01,0.29,9.27,0.00,0.00,-0.00,0.00
2026-06-26 17:56:30.849,994.18,994.20,2.18,1.96,0.00,1.01,0.31,9.30,0.00,0.00,0.00,0.00
2026-06-26 17:56:30.896,994.18,994.20,2.02,1.88,0.00,1.00,0.29,9.28,0.00,0.00,0.00,0.00
2026-06-26 17:56:30.899,994.18,994.20,2.02,1.88,0.00,1.00,0.29,9.28,0.00,0.00,0.00,0.00
2026-06-26 17:56:30.901,994.18,994.20,2.02,1.88,0.00,1.03,0.30,9.28,0.00,0.00,0.00,0.00
2026-06-26 17:56:30.903,994.18,994.20,2.02,1.88,0.00,1.03,0.30,9.28,0.00,0.00,0.00,0.00
2026-06-26 17:56:30.908,994.18,994.20,2.02,1.88,0.00,1.03,0.30,9.28,0.00,0.00,0.00,0.00
2026-06-26 17:56:30.910,994.18,994.20,2.02,1.88,0.00,1.01,0.30,9.28,0.00,0.00,-0.00,0.00
2026-06-26 17:56:30.918,994.18,994.20,2.02,1.88,0.00,1.01,0.30,9.28,0.00,0.00,-0.00,0.00
2026-06-26 17:56:30.920,994.18,994.20,2.02,1.88,0.00,1.00,0.29,9.28,0.00,-0.00,0.00,0.00
2026-06-26 17:56:30.922,994.18,994.20,2.02,1.88,0.00,1.00,0.29,9.28,0.00,-0.00,0.00,0.00
2026-06-26 17:56:30.923,994.18,994.20,2.02,1.88,0.00,1.00,0.29,9.28,0.00,-0.00,0.00,0.00
2026-06-26 17:56:30.929,994.18,994.20,2.02,1.88,0.00,1.00,0.29,9.28,0.00,-0.00,0.00,0.00
2026-06-26 17:56:30.931,994.18,994.20,2.02,1.88,0.00,1.01,0.31,9.28,-0.00,0.00,0.00,0.00
2026-06-26 17:56:30.933,994.18,994.20,2.02,1.88,0.00,1.01,0.31,9.28,-0.00,0.00,0.00,0.00
2026-06-26 17:56:30.935,994.18,994.20,2.02,1.88,0.00,1.01,0.31,9.28,-0.00,0.00,0.00,0.00
2026-06-26 17:56:30.939,994.18,994.20,2.02,1.88,0.00,1.01,0.31,9.28,-0.00,0.00,0.00,0.00
2026-06-26 17:56:30.941,994.18,994.20,2.02,1.88,0.00,1.03,0.29,9.28,0.00,0.00,0.00,0.00
2026-06-26 17:56:30.943,994.18,994.20,2.02,1.88,0.00,1.03,0.29,9.28,0.00,0.00,0.00,0.00
2026-06-26 17:56:30.949,994.18,994.20,2.02,1.88,0.00,1.03,0.29,9.28,0.00,0.00,0.00,0.00
2026-06-26 17:56:30.990,994.18,994.20,2.08,1.91,0.00,1.01,0.28,9.29,0.00,-0.00,0.00,0.00
2026-06-26 17:56:31.032,994.18,994.20,1.92,1.83,0.00,1.02,0.28,9.27,0.00,0.00,0.00,0.00
2026-06-26 17:56:31.034,994.18,994.20,1.92,1.83,0.00,1.02,0.28,9.27,0.00,0.00,0.00,0.00
2026-06-26 17:56:31.035,994.18,994.20,1.92,1.83,0.00,1.02,0.28,9.27,0.00,0.00,0.00,0.00
2026-06-26 17:56:31.039,994.18,994.20,1.92,1.83,0.00,1.02,0.28,9.27,0.00,-0.01,0.00,0.00
2026-06-26 17:56:31.041,994.18,994.20,1.92,1.83,0.00,1.02,0.29,9.30,0.00,-0.01,0.00,0.00
2026-06-26 17:56:31.043,994.18,994.20,1.92,1.83,0.00,1.02,0.29,9.30,0.00,-0.01,0.00,0.00
2026-06-26 17:56:31.049,994.18,994.20,1.92,1.83,0.00,1.02,0.29,9.30,0.00,-0.01,0.00,0.00
2026-06-26 17:56:31.051,994.18,994.20,1.92,1.83,0.00,1.00,0.29,9.26,0.00,0.00,0.00,0.00
2026-06-26 17:56:31.053,994.18,994.20,1.92,1.83,0.00,1.00,0.29,9.26,0.00,0.00,0.00,0.00
2026-06-26 17:56:31.058,994.18,994.20,1.92,1.83,0.00,1.00,0.29,9.26,0.00,0.00,0.00,0.00
2026-06-26 17:56:31.060,994.18,994.20,1.92,1.83,0.00,1.01,0.32,9.25,0.00,0.00,-0.00,0.00
2026-06-26 17:56:31.062,994.18,994.20,1.92,1.83,0.00,1.01,0.32,9.25,0.00,0.00,-0.00,0.00
2026-06-26 17:56:31.063,994.18,994.20,1.92,1.83,0.00,1.01,0.32,9.25,0.00,0.00,-0.00,0.00
2026-06-26 17:56:31.069,994.18,994.20,1.92,1.83,0.00,1.01,0.32,9.25,0.00,0.00,-0.00,0.00
2026-06-26 17:56:31.076,994.18,994.20,1.92,1.83,0.00,1.03,0.30,9.27,0.00,-0.00,0.00,0.00
2026-06-26 17:56:31.080,994.18,994.20,1.92,1.83,0.00,1.03,0.30,9.27,0.00,-0.00,0.00,0.00
2026-06-26 17:56:31.082,994.18,994.20,1.92,1.83,0.00,1.01,0.27,9.30,0.00,-0.00,0.00,0.00
2026-06-26 17:56:31.083,994.18,994.20,1.92,1.83,0.00,1.01,0.27,9.30,0.00,-0.00,0.00,0.00
2026-06-26 17:56:31.085,994.18,994.20,1.92,1.83,0.00,1.01,0.27,9.30,0.00,-0.00,0.00,0.00
2026-06-26 17:56:31.088,994.18,994.20,1.92,1.83,0.00,1.01,0.27,9.30,0.00,-0.00,0.00,0.00
2026-06-26 17:56:31.131,994.18,994.20,1.77,1.76,0.00,0.99,0.28,9.29,0.00,0.00,-0.00,0.00
2026-06-26 17:56:31.179,994.18,994.20,1.88,1.82,0.00,1.01,0.29,9.27,0.00,0.00,0.00,0.00
2026-06-26 17:56:31.181,994.18,994.20,1.88,1.82,0.00,1.01,0.30,9.29,-0.00,0.00,0.00,0.00
2026-06-26 17:56:31.183,994.18,994.20,1.88,1.82,0.00,1.01,0.30,9.29,-0.00,0.00,0.00,0.00
2026-06-26 17:56:31.185,994.18,994.20,1.88,1.82,0.00,1.01,0.30,9.29,-0.00,0.00,0.00,0.00
2026-06-26 17:56:31.186,994.18,994.20,1.88,1.82,0.00,1.01,0.30,9.29,-0.00,0.00,0.00,0.00
2026-06-26 17:56:31.190,994.18,994.20,1.88,1.82,0.00,1.01,0.30,9.29,0.00,0.00,0.00,0.00
2026-06-26 17:56:31.192,994.18,994.20,1.88,1.82,0.00,1.01,0.29,9.30,0.00,0.00,0.00,0.00
2026-06-26 17:56:31.193,994.18,994.20,1.88,1.82,0.00,1.01,0.29,9.30,0.00,0.00,0.00,0.00
2026-06-26 17:56:31.199,994.18,994.20,1.88,1.82,0.00,1.01,0.29,9.30,0.00,0.00,0.00,0.00
2026-06-26 17:56:31.201,994.18,994.20,1.88,1.82,0.00,1.01,0.28,9.29,-0.00,0.00,0.00,0.00
2026-06-26 17:56:31.203,994.18,994.20,1.88,1.82,0.00,1.01,0.28,9.29,-0.00,0.00,0.00,0.00
2026-06-26 17:56:31.206,994.18,994.20,1.88,1.82,0.00,1.01,0.28,9.29,-0.00,0.00,0.00,0.00
2026-06-26 17:56:31.210,994.18,994.20,1.88,1.82,0.00,1.01,0.28,9.29,-0.00,0.00,-0.00,0.00
2026-06-26 17:56:31.213,994.18,994.20,1.88,1.82,0.00,1.01,0.29,9.29,-0.00,0.00,-0.00,0.00
2026-06-26 17:56:31.215,994.18,994.20,1.88,1.82,0.00,1.01,0.29,9.29,-0.00,0.00,-0.00,0.00
2026-06-26 17:56:31.220,994.18,994.20,1.88,1.82,0.00,1.01,0.29,9.29,0.00,-0.00,0.00,0.00
2026-06-26 17:56:31.222,994.18,994.20,1.88,1.82,0.00,1.00,0.32,9.28,0.00,-0.00,0.00,0.00
2026-06-26 17:56:31.225,994.18,994.20,1.88,1.82,0.00,1.00,0.32,9.28,0.00,-0.00,0.00,0.00
2026-06-26 17:56:31.230,994.18,994.20,1.88,1.82,0.00,1.00,0.32,9.28,0.00,0.00,0.00,0.00
2026-06-26 17:56:31.270,994.18,994.20,2.12,1.93,0.00,1.01,0.30,9.27,0.00,0.00,0.00,0.00
2026-06-26 17:56:31.272,994.18,994.20,2.12,1.93,0.00,1.03,0.30,9.27,0.00,0.00,0.00,0.00
2026-06-26 17:56:31.274,994.18,994.20,2.12,1.93,0.00,1.03,0.30,9.27,0.00,0.00,0.00,0.00
2026-06-26 17:56:31.319,994.18,994.20,2.12,1.93,0.00,1.02,0.31,9.27,0.00,0.00,0.00,0.00
2026-06-26 17:56:31.321,994.18,994.20,2.12,1.93,0.00,0.99,0.29,9.29,0.00,0.00,0.00,0.00
2026-06-26 17:56:31.323,994.18,994.20,2.12,1.93,0.00,0.99,0.29,9.29,0.00,0.00,0.00,0.00
2026-06-26 17:56:31.327,994.18,994.20,2.12,1.93,0.00,0.99,0.29,9.29,0.00,0.00,0.00,0.00
2026-06-26 17:56:31.331,994.18,994.20,2.12,1.93,0.00,0.99,0.29,9.29,0.00,0.00,0.00,0.00
2026-06-26 17:56:31.333,994.18,994.20,2.12,1.93,0.00,1.01,0.30,9.31,0.00,0.00,0.00,0.00
2026-06-26 17:56:31.334,994.18,994.20,2.12,1.93,0.00,1.01,0.30,9.31,0.00,0.00,0.00,0.00
2026-06-26 17:56:31.336,994.18,994.20,2.12,1.93,0.00,1.01,0.30,9.31,0.00,0.00,0.00,0.00
2026-06-26 17:56:31.339,994.18,994.20,2.12,1.93,0.00,1.01,0.30,9.31,0.00,0.00,0.00,0.00
2026-06-26 17:56:31.341,994.18,994.20,2.12,1.93,0.00,1.02,0.29,9.28,0.00,0.00,-0.00,0.00
2026-06-26 17:56:31.343,994.18,994.20,2.12,1.93,0.00,1.02,0.29,9.28,0.00,0.00,-0.00,0.00
2026-06-26 17:56:31.346,994.18,994.20,2.12,1.93,0.00,1.02,0.29,9.28,0.00,0.00,-0.00,0.00
2026-06-26 17:56:31.352,994.18,994.20,2.12,1.93,0.00,1.02,0.29,9.28,0.00,0.00,0.00,0.00
2026-06-26 17:56:31.359,994.18,994.20,2.12,1.93,0.00,1.03,0.28,9.30,0.00,0.00,0.00,0.00
2026-06-26 17:56:31.361,994.18,994.20,2.12,1.93,0.00,1.01,0.31,9.26,-0.00,0.00,0.00,0.00
2026-06-26 17:56:31.363,994.18,994.20,2.12,1.93,0.00,1.01,0.31,9.26,-0.00,0.00,0.00,0.00
2026-06-26 17:56:31.367,994.18,994.20,2.12,1.93,0.00,1.01,0.31,9.26,-0.00,0.00,0.00,0.00
2026-06-26 17:56:31.371,994.18,994.20,2.12,1.93,0.00,1.01,0.31,9.26,0.00,0.00,0.00,0.00
2026-06-26 17:56:31.410,994.18,994.20,2.01,1.88,0.00,1.01,0.31,9.29,0.00,-0.00,0.00,0.00
2026-06-26 17:56:31.412,994.18,994.20,2.01,1.88,0.00,1.02,0.31,9.25,0.00,-0.00,0.00,0.00
2026-06-26 17:56:31.414,994.18,994.20,2.01,1.88,0.00,1.02,0.31,9.25,0.00,-0.00,0.00,0.00
2026-06-26 17:56:31.417,994.18,994.20,2.01,1.88,0.00,1.02,0.31,9.25,0.00,-0.00,0.00,0.00
2026-06-26 17:56:31.460,994.18,994.20,2.59,2.13,0.00,1.01,0.32,9.25,-0.00,0.00,-0.00,0.00
2026-06-26 17:56:31.462,994.18,994.20,2.59,2.13,0.00,1.01,0.31,9.25,-0.00,0.00,-0.00,0.00
2026-06-26 17:56:31.464,994.18,994.20,2.59,2.13,0.00,1.01,0.31,9.25,-0.00,0.00,-0.00,0.00
2026-06-26 17:56:31.470,994.18,994.20,2.59,2.13,0.00,1.01,0.31,9.25,-0.00,0.00,-0.00,0.00
2026-06-26 17:56:31.471,994.18,994.20,2.59,2.13,0.00,1.01,0.29,9.27,0.00,0.00,0.00,0.00
2026-06-26 17:56:31.473,994.18,994.20,2.59,2.13,0.00,1.01,0.29,9.27,0.00,0.00,0.00,0.00
2026-06-26 17:56:31.476,994.18,994.20,2.59,2.13,0.00,1.01,0.29,9.27,0.00,0.00,0.00,0.00
2026-06-26 17:56:31.480,994.18,994.20,2.59,2.13,0.00,1.01,0.29,9.27,0.00,-0.00,0.00,0.00
2026-06-26 17:56:31.483,994.18,994.20,2.59,2.13,0.00,1.05,0.29,9.29,0.00,-0.00,0.00,0.00
2026-06-26 17:56:31.484,994.18,994.20,2.59,2.13,0.00,1.05,0.29,9.29,0.00,-0.00,0.00,0.00
2026-06-26 17:56:31.486,994.18,994.20,2.59,2.13,0.00,1.05,0.29,9.29,0.00,-0.00,0.00,0.00
2026-06-26 17:56:31.490,994.18,994.20,2.59,2.13,0.00,1.05,0.29,9.29,0.00,-0.00,0.00,0.00
2026-06-26 17:56:31.492,994.18,994.20,2.59,2.13,0.00,0.99,0.29,9.28,-0.00,0.00,-0.00,0.00
2026-06-26 17:56:31.493,994.18,994.20,2.59,2.13,0.00,0.99,0.29,9.28,-0.00,0.00,-0.00,0.00
2026-06-26 17:56:31.498,994.18,994.20,2.59,2.13,0.00,0.99,0.29,9.28,-0.00,0.00,-0.00,0.00
2026-06-26 17:56:31.501,994.18,994.20,2.59,2.13,0.00,1.00,0.29,9.28,0.00,0.00,-0.00,0.00
2026-06-26 17:56:31.502,994.18,994.20,2.59,2.13,0.00,1.00,0.29,9.28,0.00,0.00,-0.00,0.00
2026-06-26 17:56:31.505,994.18,994.20,2.59,2.13,0.00,1.00,0.29,9.28,0.00,0.00,-0.00,0.00
2026-06-26 17:56:31.510,994.18,994.20,2.59,2.13,0.00,1.00,0.29,9.28,0.00,0.00,-0.00,0.00
2026-06-26 17:56:31.553,994.18,994.20,2.55,2.11,0.00,1.02,0.30,9.26,0.00,0.00,-0.00,0.00
2026-06-26 17:56:31.557,994.18,994.20,2.55,2.11,0.00,1.02,0.30,9.26,0.00,0.00,-0.00,0.00
2026-06-26 17:56:31.561,994.18,994.20,2.55,2.11,0.00,1.02,0.30,9.26,0.00,0.00,-0.00,0.00
2026-06-26 17:56:31.604,994.18,994.20,2.20,1.97,0.00,1.03,0.30,9.28,-0.00,0.00,-0.00,0.00
2026-06-26 17:56:31.610,994.18,994.20,2.20,1.97,0.00,1.03,0.30,9.28,-0.00,0.00,-0.00,0.00
2026-06-26 17:56:31.611,994.18,994.20,2.20,1.97,0.00,1.01,0.29,9.27,-0.00,0.00,0.00,0.00
2026-06-26 17:56:31.613,994.18,994.20,2.20,1.97,0.00,1.01,0.29,9.27,-0.00,0.00,0.00,0.00
2026-06-26 17:56:31.614,994.18,994.20,2.20,1.97,0.00,1.01,0.29,9.27,-0.00,0.00,0.00,0.00
2026-06-26 17:56:31.618,994.18,994.20,2.20,1.97,0.00,1.01,0.29,9.27,-0.00,0.00,0.00,0.00
2026-06-26 17:56:31.622,994.18,994.20,2.20,1.97,0.00,1.01,0.29,9.30,-0.00,0.00,0.00,0.00
2026-06-26 17:56:31.624,994.18,994.20,2.20,1.97,0.00,1.01,0.29,9.30,-0.00,0.00,0.00,0.00
2026-06-26 17:56:31.629,994.18,994.20,2.20,1.97,0.00,1.01,0.29,9.30,-0.00,0.00,0.00,0.00
2026-06-26 17:56:31.635,994.18,994.20,2.20,1.97,0.00,0.98,0.29,9.29,0.00,0.00,0.00,0.00
2026-06-26 17:56:31.636,994.18,994.20,2.20,1.97,0.00,0.98,0.29,9.29,0.00,0.00,0.00,0.00
2026-06-26 17:56:31.641,994.18,994.20,2.20,1.97,0.00,0.98,0.29,9.29,0.00,0.00,0.00,0.00
2026-06-26 17:56:31.643,994.18,994.20,2.20,1.97,0.00,1.02,0.30,9.28,0.00,0.00,0.00,0.00
2026-06-26 17:56:31.644,994.18,994.20,2.20,1.97,0.00,1.02,0.30,9.28,0.00,0.00,0.00,0.00
2026-06-26 17:56:31.650,994.18,994.20,2.20,1.97,0.00,1.02,0.30,9.28,0.00,0.00,0.00,0.00
2026-06-26 17:56:31.652,994.18,994.20,2.20,1.97,0.00,1.01,0.29,9.27,0.00,-0.00,0.00,0.00
2026-06-26 17:56:31.691,994.18,994.20,2.27,2.00,0.00,1.02,0.28,9.28,0.00,0.00,0.00,0.00
2026-06-26 17:56:31.693,994.18,994.20,2.27,2.00,0.00,1.01,0.28,9.28,0.00,0.00,0.00,0.00
2026-06-26 17:56:31.700,994.18,994.20,2.27,2.00,0.00,1.01,0.28,9.28,-0.00,-0.00,0.00,0.00
2026-06-26 17:56:31.702,994.18,994.20,2.27,2.00,0.00,1.00,0.29,9.26,-0.00,-0.00,0.00,0.00
2026-06-26 17:56:31.742,994.18,994.20,2.44,2.07,0.00,1.01,0.30,9.27,0.00,0.00,0.00,0.00
2026-06-26 17:56:31.743,994.18,994.20,2.44,2.07,0.00,1.01,0.30,9.27,0.00,0.00,0.00,0.00
2026-06-26 17:56:31.747,994.18,994.20,2.44,2.07,0.00,1.01,0.30,9.27,0.00,0.00,0.00,0.00
2026-06-26 17:56:31.751,994.18,994.20,2.44,2.07,0.00,1.01,0.30,9.27,0.00,0.00,0.00,0.00
2026-06-26 17:56:31.752,994.18,994.20,2.44,2.07,0.00,1.04,0.29,9.29,0.00,0.00,0.00,0.00
2026-06-26 17:56:31.754,994.18,994.20,2.44,2.07,0.00,1.04,0.29,9.29,0.00,0.00,0.00,0.00
2026-06-26 17:56:31.759,994.18,994.20,2.44,2.07,0.00,1.04,0.29,9.29,0.00,0.00,0.00,0.00
2026-06-26 17:56:31.761,994.18,994.20,2.44,2.07,0.00,1.01,0.31,9.26,0.00,0.00,-0.00,0.00
2026-06-26 17:56:31.763,994.18,994.20,2.44,2.07,0.00,1.01,0.31,9.26,0.00,0.00,-0.00,0.00
2026-06-26 17:56:31.765,994.18,994.20,2.44,2.07,0.00,1.01,0.31,9.26,0.00,0.00,-0.00,0.00
2026-06-26 17:56:31.770,994.18,994.20,2.44,2.07,0.00,1.01,0.31,9.26,0.00,0.00,-0.00,0.00
2026-06-26 17:56:31.773,994.18,994.20,2.44,2.07,0.00,1.01,0.28,9.30,0.00,0.00,-0.00,0.00
2026-06-26 17:56:31.778,994.18,994.20,2.44,2.07,0.00,1.01,0.28,9.30,0.00,0.00,-0.00,0.00
2026-06-26 17:56:31.783,994.18,994.20,2.44,2.07,0.00,1.01,0.28,9.30,-0.00,-0.00,0.00,0.00
2026-06-26 17:56:31.784,994.18,994.20,2.44,2.07,0.00,1.01,0.30,9.28,-0.00,-0.00,0.00,0.00
2026-06-26 17:56:31.786,994.18,994.20,2.44,2.07,0.00,1.01,0.30,9.28,-0.00,-0.00,0.00,0.00
2026-06-26 17:56:31.832,994.18,994.20,2.50,2.10,0.00,1.02,0.29,9.28,0.00,0.00,0.00,0.00
2026-06-26 17:56:31.834,994.18,994.20,2.50,2.10,0.00,1.02,0.29,9.28,0.00,0.00,0.00,0.00
2026-06-26 17:56:31.835,994.18,994.20,2.50,2.10,0.00,1.02,0.29,9.28,0.00,0.00,0.00,0.00
2026-06-26 17:56:31.837,994.18,994.20,2.50,2.10,0.00,1.02,0.29,9.28,0.00,0.00,0.00,0.00
2026-06-26 17:56:31.841,994.18,994.20,2.50,2.10,0.00,1.02,0.29,9.28,0.00,0.00,0.00,0.00
2026-06-26 17:56:31.884,994.18,994.20,2.16,1.95,0.00,1.00,0.31,9.27,-0.00,-0.00,0.00,0.00
2026-06-26 17:56:31.886,994.18,994.20,2.16,1.95,0.00,1.00,0.31,9.27,-0.00,-0.00,0.00,0.00
2026-06-26 17:56:31.890,994.18,994.20,2.16,1.95,0.00,1.00,0.31,9.27,-0.00,-0.00,0.00,0.00
2026-06-26 17:56:31.894,994.18,994.20,2.16,1.95,0.00,1.03,0.29,9.29,0.00,0.00,0.00,0.00
2026-06-26 17:56:31.902,994.18,994.20,2.16,1.95,0.00,1.03,0.29,9.29,-0.00,0.00,0.00,0.00
2026-06-26 17:56:31.904,994.18,994.20,2.16,1.95,0.00,1.01,0.29,9.29,-0.00,0.00,0.00,0.00
2026-06-26 17:56:31.910,994.18,994.20,2.16,1.95,0.00,1.01,0.29,9.29,-0.00,0.00,0.00,0.00
2026-06-26 17:56:31.912,994.18,994.20,2.16,1.95,0.00,1.01,0.30,9.27,0.00,-0.00,0.00,0.00
2026-06-26 17:56:31.914,994.18,994.20,2.16,1.95,0.00,1.01,0.30,9.27,0.00,-0.00,0.00,0.00
2026-06-26 17:56:31.915,994.18,994.20,2.16,1.95,0.00,1.01,0.30,9.27,0.00,-0.00,0.00,0.00
2026-06-26 17:56:31.921,994.18,994.20,2.16,1.95,0.00,1.01,0.30,9.27,0.00,-0.00,0.00,0.00
2026-06-26 17:56:31.922,994.18,994.20,2.16,1.95,0.00,1.03,0.26,9.28,0.00,-0.00,0.00,0.00
2026-06-26 17:56:31.924,994.18,994.20,2.16,1.95,0.00,1.03,0.26,9.28,0.00,-0.00,0.00,0.00
2026-06-26 17:56:31.930,994.18,994.20,2.16,1.95,0.00,1.03,0.26,9.28,0.00,-0.00,0.00,0.00
2026-06-26 17:56:31.972,994.18,994.21,2.25,1.99,0.00,1.01,0.29,9.26,0.00,0.00,0.00,0.00
2026-06-26 17:56:31.973,994.18,994.21,2.25,1.99,0.00,1.01,0.29,9.26,0.00,0.00,0.00,0.00
2026-06-26 17:56:31.975,994.18,994.21,2.25,1.99,0.00,1.01,0.29,9.26,0.00,0.00,0.00,0.00
2026-06-26 17:56:31.980,994.18,994.21,2.25,1.99,0.00,1.01,0.29,9.26,0.00,0.00,0.00,0.00
2026-06-26 17:56:31.982,994.18,994.21,2.25,1.99,0.00,1.01,0.31,9.31,0.00,-0.00,0.00,0.00
2026-06-26 17:56:31.983,994.18,994.21,2.25,1.99,0.00,1.01,0.31,9.31,0.00,-0.00,0.00,0.00
2026-06-26 17:56:32.022,994.18,994.21,2.32,2.02,0.00,1.00,0.31,9.28,0.00,0.00,0.00,0.00
2026-06-26 17:56:32.023,994.18,994.21,2.32,2.02,0.00,1.00,0.31,9.28,0.00,0.00,0.00,0.00
2026-06-26 17:56:32.024,994.18,994.21,2.32,2.02,0.00,1.00,0.31,9.28,0.00,0.00,0.00,0.00
2026-06-26 17:56:32.026,994.18,994.21,2.32,2.02,0.00,1.00,0.31,9.28,0.00,0.00,0.00,0.00
2026-06-26 17:56:32.031,994.18,994.21,2.32,2.02,0.00,1.00,0.31,9.28,0.00,0.00,-0.00,0.00
2026-06-26 17:56:32.032,994.18,994.21,2.32,2.02,0.00,1.01,0.29,9.28,0.00,0.00,-0.00,0.00
2026-06-26 17:56:32.033,994.18,994.21,2.32,2.02,0.00,1.01,0.29,9.28,0.00,0.00,-0.00,0.00
2026-06-26 17:56:32.035,994.18,994.21,2.32,2.02,0.00,1.01,0.29,9.28,0.00,0.00,-0.00,0.00
2026-06-26 17:56:32.036,994.18,994.21,2.32,2.02,0.00,1.01,0.29,9.28,0.00,0.00,-0.00,0.00
2026-06-26 17:56:32.037,994.18,994.21,2.32,2.02,0.00,1.01,0.29,9.28,0.00,0.00,-0.00,0.00
2026-06-26 17:56:32.039,994.18,994.21,2.32,2.02,0.00,1.01,0.29,9.28,0.00,0.00,-0.00,0.00
2026-06-26 17:56:32.042,994.18,994.21,2.32,2.02,0.00,1.02,0.29,9.31,0.00,0.00,-0.00,0.00
2026-06-26 17:56:32.044,994.18,994.21,2.32,2.02,0.00,1.02,0.29,9.31,0.00,0.00,-0.00,0.00
2026-06-26 17:56:32.047,994.18,994.21,2.32,2.02,0.00,1.02,0.29,9.31,0.00,0.00,-0.00,0.00
2026-06-26 17:56:32.052,994.18,994.21,2.32,2.02,0.00,1.02,0.29,9.31,0.00,-0.00,-0.00,0.00
2026-06-26 17:56:32.053,994.18,994.21,2.32,2.02,0.00,1.00,0.29,9.27,0.00,-0.00,-0.00,0.00
2026-06-26 17:56:32.055,994.18,994.21,2.32,2.02,0.00,1.00,0.29,9.27,0.00,-0.00,-0.00,0.00
2026-06-26 17:56:32.061,994.18,994.21,2.32,2.02,0.00,1.00,0.29,9.27,0.00,-0.00,-0.00,0.00
2026-06-26 17:56:32.062,994.18,994.21,2.32,2.02,0.00,1.02,0.30,9.27,0.00,-0.00,0.00,0.00
2026-06-26 17:56:32.064,994.18,994.21,2.32,2.02,0.00,1.02,0.30,9.27,0.00,-0.00,0.00,0.00
2026-06-26 17:56:32.065,994.18,994.21,2.32,2.02,0.00,1.02,0.30,9.27,0.00,-0.00,0.00,0.00
2026-06-26 17:56:32.071,994.18,994.21,2.32,2.02,0.00,1.02,0.30,9.27,0.00,-0.00,0.00,0.00
2026-06-26 17:56:32.113,994.18,994.20,2.24,1.98,0.00,1.03,0.29,9.27,0.00,-0.00,0.00,0.00
2026-06-26 17:56:32.114,994.18,994.20,2.24,1.98,0.00,1.03,0.29,9.27,0.00,-0.00,0.00,0.00
2026-06-26 17:56:32.115,994.18,994.20,2.24,1.98,0.00,1.03,0.29,9.27,0.00,-0.00,0.00,0.00
2026-06-26 17:56:32.120,994.18,994.20,2.24,1.98,0.00,1.03,0.29,9.27,0.00,-0.00,0.00,0.00
2026-06-26 17:56:32.122,994.18,994.20,2.24,1.98,0.00,1.01,0.28,9.27,0.00,0.00,0.00,0.00
2026-06-26 17:56:32.163,994.19,994.20,1.93,1.84,0.00,1.00,0.29,9.27,-0.00,-0.00,0.00,0.00
2026-06-26 17:56:32.164,994.19,994.20,1.93,1.84,0.00,1.00,0.29,9.27,-0.00,-0.00,0.00,0.00
2026-06-26 17:56:32.169,994.19,994.20,1.93,1.84,0.00,1.00,0.29,9.27,-0.00,-0.00,0.00,0.00
2026-06-26 17:56:32.171,994.19,994.20,1.93,1.84,0.00,1.00,0.29,9.27,-0.00,-0.00,0.00,0.00
2026-06-26 17:56:32.173,994.19,994.20,1.93,1.84,0.00,1.00,0.31,9.28,-0.00,-0.00,0.00,0.00
2026-06-26 17:56:32.174,994.19,994.20,1.93,1.84,0.00,1.00,0.31,9.28,-0.00,-0.00,0.00,0.00
2026-06-26 17:56:32.175,994.19,994.20,1.93,1.84,0.00,1.00,0.31,9.28,-0.00,-0.00,0.00,0.00
2026-06-26 17:56:32.181,994.19,994.20,1.93,1.84,0.00,1.00,0.31,9.28,-0.00,-0.00,0.00,0.00
2026-06-26 17:56:32.183,994.19,994.20,1.93,1.84,0.00,1.01,0.27,9.28,-0.00,0.00,0.00,0.00
2026-06-26 17:56:32.185,994.19,994.20,1.93,1.84,0.00,1.01,0.27,9.28,-0.00,0.00,0.00,0.00
2026-06-26 17:56:32.186,994.19,994.20,1.93,1.84,0.00,1.01,0.27,9.28,-0.00,0.00,0.00,0.00
2026-06-26 17:56:32.188,994.19,994.20,1.93,1.84,0.00,1.01,0.27,9.28,-0.00,0.00,0.00,0.00
2026-06-26 17:56:32.192,994.19,994.20,1.93,1.84,0.00,1.01,0.27,9.28,0.00,-0.00,-0.00,0.00
2026-06-26 17:56:32.193,994.19,994.20,1.93,1.84,0.00,1.01,0.30,9.26,0.00,-0.00,-0.00,0.00
2026-06-26 17:56:32.195,994.19,994.20,1.93,1.84,0.00,1.01,0.30,9.26,0.00,-0.00,-0.00,0.00
2026-06-26 17:56:32.199,994.19,994.20,1.93,1.84,0.00,1.01,0.30,9.26,0.00,-0.00,-0.00,0.00
2026-06-26 17:56:32.202,994.19,994.20,1.93,1.84,0.00,1.01,0.30,9.26,0.00,0.00,0.00,0.00
2026-06-26 17:56:32.204,994.19,994.20,1.93,1.84,0.00,1.01,0.29,9.27,0.00,0.00,0.00,0.00
2026-06-26 17:56:32.209,994.19,994.20,1.93,1.84,0.00,1.01,0.29,9.27,0.00,0.00,0.00,0.00
2026-06-26 17:56:32.212,994.19,994.20,1.93,1.84,0.00,1.02,0.28,9.26,0.00,0.00,-0.00,0.00
2026-06-26 17:56:32.254,994.19,994.20,1.58,1.67,0.00,1.01,0.31,9.28,0.00,0.00,-0.00,0.00
2026-06-26 17:56:32.255,994.19,994.20,1.58,1.67,0.00,1.01,0.31,9.28,0.00,0.00,-0.00,0.00
2026-06-26 17:56:32.261,994.19,994.20,1.58,1.67,0.00,1.01,0.31,9.28,0.00,0.00,-0.00,0.00
2026-06-26 17:56:32.304,994.19,994.20,1.06,1.37,0.00,1.01,0.30,9.25,0.00,0.00,0.00,0.00
2026-06-26 17:56:32.305,994.19,994.20,1.06,1.37,0.00,1.01,0.30,9.25,0.00,0.00,0.00,0.00
2026-06-26 17:56:32.311,994.19,994.20,1.06,1.37,0.00,1.01,0.30,9.25,0.00,0.00,0.00,0.00
2026-06-26 17:56:32.312,994.19,994.20,1.06,1.37,0.00,1.00,0.31,9.27,-0.00,-0.00,0.00,0.00
2026-06-26 17:56:32.315,994.19,994.20,1.06,1.37,0.00,1.00,0.31,9.27,-0.00,-0.00,0.00,0.00
2026-06-26 17:56:32.316,994.19,994.20,1.06,1.37,0.00,1.00,0.31,9.27,-0.00,-0.00,0.00,0.00
2026-06-26 17:56:32.321,994.19,994.20,1.06,1.37,0.00,1.00,0.31,9.27,-0.00,-0.00,0.00,0.00
2026-06-26 17:56:32.323,994.19,994.20,1.06,1.37,0.00,1.01,0.29,9.30,-0.00,-0.00,0.00,0.00
2026-06-26 17:56:32.324,994.19,994.20,1.06,1.37,0.00,1.01,0.29,9.30,-0.00,-0.00,0.00,0.00
2026-06-26 17:56:32.325,994.19,994.20,1.06,1.37,0.00,1.01,0.29,9.30,-0.00,-0.00,0.00,0.00
2026-06-26 17:56:32.331,994.19,994.20,1.06,1.37,0.00,1.01,0.29,9.30,-0.00,-0.00,0.00,0.00
2026-06-26 17:56:32.333,994.19,994.20,1.06,1.37,0.00,1.01,0.28,9.30,0.00,-0.00,-0.00,0.00
2026-06-26 17:56:32.334,994.19,994.20,1.06,1.37,0.00,1.01,0.28,9.30,0.00,-0.00,-0.00,0.00
2026-06-26 17:56:32.335,994.19,994.20,1.06,1.37,0.00,1.01,0.28,9.30,0.00,-0.00,-0.00,0.00
2026-06-26 17:56:32.337,994.19,994.20,1.06,1.37,0.00,1.01,0.28,9.30,0.00,-0.00,-0.00,0.00
2026-06-26 17:56:32.341,994.19,994.20,1.06,1.37,0.00,1.01,0.28,9.30,0.00,-0.00,-0.00,0.00
2026-06-26 17:56:32.343,994.19,994.20,1.06,1.37,0.00,1.01,0.30,9.29,0.00,0.00,-0.00,0.00
2026-06-26 17:56:32.351,994.19,994.20,1.06,1.37,0.00,1.01,0.30,9.29,0.00,0.00,-0.00,0.00
2026-06-26 17:56:32.354,994.19,994.20,1.06,1.37,0.00,1.03,0.29,9.28,0.00,0.00,-0.00,0.00
2026-06-26 17:56:32.401,994.19,994.20,0.86,1.23,0.00,1.01,0.31,9.31,0.00,0.00,0.00,0.00
2026-06-26 17:56:32.403,994.19,994.20,0.86,1.23,0.00,1.01,0.29,9.27,0.00,0.00,0.00,0.00
2026-06-26 17:56:32.445,994.19,994.20,0.82,1.20,0.00,1.02,0.30,9.29,0.00,-0.00,0.00,0.00
2026-06-26 17:56:32.448,994.19,994.20,0.82,1.20,0.00,1.02,0.30,9.29,0.00,-0.00,0.00,0.00
2026-06-26 17:56:32.452,994.19,994.20,0.82,1.20,0.00,1.02,0.30,9.29,-0.00,0.00,0.00,0.00
2026-06-26 17:56:32.453,994.19,994.20,0.82,1.20,0.00,1.02,0.27,9.29,-0.00,0.00,0.00,0.00
2026-06-26 17:56:32.454,994.19,994.20,0.82,1.20,0.00,1.02,0.27,9.29,-0.00,0.00,0.00,0.00
2026-06-26 17:56:32.456,994.19,994.20,0.82,1.20,0.00,1.02,0.27,9.29,-0.00,0.00,0.00,0.00
2026-06-26 17:56:32.461,994.19,994.20,0.82,1.20,0.00,1.02,0.27,9.29,-0.00,0.00,0.00,0.00
2026-06-26 17:56:32.463,994.19,994.20,0.82,1.20,0.00,1.02,0.30,9.27,0.00,-0.00,0.00,0.00
2026-06-26 17:56:32.464,994.19,994.20,0.82,1.20,0.00,1.02,0.30,9.27,0.00,-0.00,0.00,0.00
2026-06-26 17:56:32.465,994.19,994.20,0.82,1.20,0.00,1.02,0.30,9.27,0.00,-0.00,0.00,0.00
2026-06-26 17:56:32.472,994.19,994.20,0.82,1.20,0.00,1.02,0.30,9.27,0.00,-0.00,0.00,0.00
2026-06-26 17:56:32.473,994.19,994.20,0.82,1.20,0.00,1.03,0.29,9.27,0.00,0.00,0.00,0.00
2026-06-26 17:56:32.474,994.19,994.20,0.82,1.20,0.00,1.03,0.29,9.27,0.00,0.00,0.00,0.00
2026-06-26 17:56:32.475,994.19,994.20,0.82,1.20,0.00,1.03,0.29,9.27,0.00,0.00,0.00,0.00
2026-06-26 17:56:32.479,994.19,994.20,0.82,1.20,0.00,1.03,0.29,9.27,0.00,0.00,0.00,0.00
2026-06-26 17:56:32.482,994.19,994.20,0.82,1.20,0.00,1.03,0.29,9.27,0.00,-0.00,0.00,0.00
2026-06-26 17:56:32.484,994.19,994.20,0.82,1.20,0.00,1.02,0.29,9.32,0.00,-0.00,0.00,0.00
2026-06-26 17:56:32.485,994.19,994.20,0.82,1.20,0.00,1.02,0.29,9.32,0.00,-0.00,0.00,0.00
2026-06-26 17:56:32.487,994.19,994.20,0.82,1.20,0.00,1.02,0.29,9.32,0.00,-0.00,0.00,0.00
2026-06-26 17:56:32.489,994.19,994.20,0.82,1.20,0.00,1.02,0.29,9.32,0.00,-0.00,0.00,0.00
2026-06-26 17:56:32.492,994.19,994.20,0.82,1.20,0.00,1.02,0.29,9.32,0.00,-0.00,0.00,0.00
2026-06-26 17:56:32.493,994.19,994.20,0.82,1.20,0.00,1.00,0.29,9.28,0.00,-0.00,0.00,0.00
2026-06-26 17:56:32.494,994.19,994.20,0.82,1.20,0.00,1.00,0.29,9.28,0.00,-0.00,0.00,0.00
2026-06-26 17:56:32.496,994.19,994.20,0.82,1.20,0.00,1.00,0.29,9.28,0.00,-0.00,0.00,0.00
2026-06-26 17:56:32.500,994.19,994.20,0.82,1.20,0.00,1.00,0.29,9.28,0.00,-0.00,0.00,0.00
2026-06-26 17:56:32.543,994.19,994.20,0.64,1.06,0.00,1.01,0.30,9.28,0.00,0.00,0.00,0.00
2026-06-26 17:56:32.544,994.19,994.20,0.64,1.06,0.00,1.01,0.30,9.28,0.00,0.00,0.00,0.00
2026-06-26 17:56:32.586,994.19,994.20,0.91,1.27,0.00,1.03,0.29,9.30,-0.00,0.00,0.00,0.00
2026-06-26 17:56:32.588,994.19,994.20,0.91,1.27,0.00,1.03,0.29,9.30,-0.00,0.00,0.00,0.00
2026-06-26 17:56:32.591,994.19,994.20,0.91,1.27,0.00,1.03,0.29,9.30,-0.00,0.00,0.00,0.00
2026-06-26 17:56:32.593,994.19,994.20,0.91,1.27,0.00,1.02,0.28,9.29,0.00,0.00,0.00,0.00
2026-06-26 17:56:32.594,994.19,994.20,0.91,1.27,0.00,1.02,0.28,9.29,0.00,0.00,0.00,0.00
2026-06-26 17:56:32.595,994.19,994.20,0.91,1.27,0.00,1.02,0.28,9.29,0.00,0.00,0.00,0.00
2026-06-26 17:56:32.596,994.19,994.20,0.91,1.27,0.00,1.02,0.28,9.29,0.00,0.00,0.00,0.00
2026-06-26 17:56:32.602,994.19,994.20,0.91,1.27,0.00,1.02,0.28,9.29,0.00,0.00,0.00,0.00
2026-06-26 17:56:32.603,994.19,994.20,0.91,1.27,0.00,1.02,0.30,9.28,0.00,0.00,-0.00,0.00
2026-06-26 17:56:32.604,994.19,994.20,0.91,1.27,0.00,1.02,0.30,9.28,0.00,0.00,-0.00,0.00
2026-06-26 17:56:32.605,994.19,994.20,0.91,1.27,0.00,1.02,0.30,9.28,0.00,0.00,-0.00,0.00
2026-06-26 17:56:32.610,994.19,994.20,0.91,1.27,0.00,1.02,0.30,9.28,0.00,0.00,-0.00,0.00
2026-06-26 17:56:32.613,994.19,994.20,0.91,1.27,0.00,1.02,0.31,9.27,0.00,0.00,-0.00,0.00
2026-06-26 17:56:32.615,994.19,994.20,0.91,1.27,0.00,1.02,0.31,9.27,0.00,0.00,-0.00,0.00
2026-06-26 17:56:32.620,994.19,994.20,0.91,1.27,0.00,1.02,0.31,9.27,0.00,0.00,-0.00,0.00
2026-06-26 17:56:32.622,994.19,994.20,0.91,1.27,0.00,1.02,0.30,9.26,0.00,-0.00,0.00,0.00
2026-06-26 17:56:32.624,994.19,994.20,0.91,1.27,0.00,1.02,0.30,9.26,0.00,-0.00,0.00,0.00
2026-06-26 17:56:32.625,994.19,994.20,0.91,1.27,0.00,1.02,0.30,9.26,0.00,-0.00,0.00,0.00
2026-06-26 17:56:32.628,994.19,994.20,0.91,1.27,0.00,1.02,0.30,9.26,0.00,-0.00,0.00,0.00
2026-06-26 17:56:32.632,994.19,994.20,0.91,1.27,0.00,1.02,0.30,9.26,-0.00,0.00,0.00,0.00
2026-06-26 17:56:32.634,994.19,994.20,0.91,1.27,0.00,1.03,0.30,9.27,-0.00,0.00,0.00,0.00
2026-06-26 17:56:32.635,994.19,994.20,0.91,1.27,0.00,1.03,0.30,9.27,-0.00,0.00,0.00,0.00
2026-06-26 17:56:32.637,994.19,994.20,0.91,1.27,0.00,1.03,0.30,9.27,-0.00,0.00,0.00,0.00
2026-06-26 17:56:32.639,994.19,994.20,0.91,1.27,0.00,1.03,0.30,9.27,-0.00,0.00,0.00,0.00
2026-06-26 17:56:32.642,994.19,994.20,0.91,1.27,0.00,1.03,0.30,9.27,-0.00,0.00,0.00,0.00
2026-06-26 17:56:32.682,994.19,994.20,0.94,1.29,0.00,1.03,0.29,9.28,0.00,0.00,0.00,0.00
2026-06-26 17:56:32.684,994.19,994.20,0.94,1.29,0.00,1.02,0.29,9.25,0.00,0.00,0.00,0.00
2026-06-26 17:56:32.685,994.19,994.20,0.94,1.29,0.00,1.02,0.29,9.25,0.00,0.00,0.00,0.00
2026-06-26 17:56:32.686,994.19,994.20,0.94,1.29,0.00,1.02,0.29,9.25,0.00,0.00,0.00,0.00
2026-06-26 17:56:32.732,994.19,994.20,0.49,0.93,0.00,1.02,0.29,9.27,-0.00,0.00,0.00,0.00
2026-06-26 17:56:32.734,994.19,994.20,0.49,0.93,0.00,1.01,0.30,9.32,0.00,-0.00,-0.00,0.00
2026-06-26 17:56:32.735,994.19,994.20,0.49,0.93,0.00,1.01,0.30,9.32,0.00,-0.00,-0.00,0.00
2026-06-26 17:56:32.737,994.19,994.20,0.49,0.93,0.00,1.01,0.30,9.32,0.00,-0.00,-0.00,0.00
2026-06-26 17:56:32.739,994.19,994.20,0.49,0.93,0.00,1.01,0.30,9.32,0.00,-0.00,-0.00,0.00
2026-06-26 17:56:32.742,994.19,994.20,0.49,0.93,0.00,1.01,0.30,9.32,0.00,-0.00,-0.00,0.00
2026-06-26 17:56:32.743,994.19,994.20,0.49,0.93,0.00,1.02,0.32,9.30,0.00,0.00,0.00,0.00
2026-06-26 17:56:32.744,994.19,994.20,0.49,0.93,0.00,1.02,0.32,9.30,0.00,0.00,0.00,0.00
2026-06-26 17:56:32.745,994.19,994.20,0.49,0.93,0.00,1.02,0.32,9.30,0.00,0.00,0.00,0.00
2026-06-26 17:56:32.747,994.19,994.20,0.49,0.93,0.00,1.02,0.32,9.30,0.00,0.00,0.00,0.00
2026-06-26 17:56:32.752,994.19,994.20,0.49,0.93,0.00,1.02,0.32,9.30,0.00,0.00,0.00,0.00
2026-06-26 17:56:32.754,994.19,994.20,0.49,0.93,0.00,1.02,0.30,9.30,0.00,-0.00,0.00,0.00
2026-06-26 17:56:32.755,994.19,994.20,0.49,0.93,0.00,1.02,0.30,9.30,0.00,-0.00,0.00,0.00
2026-06-26 17:56:32.760,994.19,994.20,0.49,0.93,0.00,1.02,0.30,9.30,0.00,-0.00,0.00,0.00
2026-06-26 17:56:32.763,994.19,994.20,0.49,0.93,0.00,1.02,0.30,9.30,0.00,-0.01,0.00,0.00
2026-06-26 17:56:32.764,994.19,994.20,0.49,0.93,0.00,0.98,0.27,9.24,0.00,-0.01,0.00,0.00
2026-06-26 17:56:32.765,994.19,994.20,0.49,0.93,0.00,0.98,0.27,9.24,0.00,-0.01,0.00,0.00
2026-06-26 17:56:32.769,994.19,994.20,0.49,0.93,0.00,0.98,0.27,9.24,0.00,-0.01,0.00,0.00
2026-06-26 17:56:32.773,994.19,994.20,0.49,0.93,0.00,0.98,0.27,9.24,0.00,-0.00,0.00,0.00
2026-06-26 17:56:32.775,994.19,994.20,0.49,0.93,0.00,1.02,0.28,9.27,0.00,-0.00,0.00,0.00
2026-06-26 17:56:32.781,994.19,994.20,0.49,0.93,0.00,1.02,0.28,9.27,0.00,-0.00,0.00,0.00
2026-06-26 17:56:32.824,994.19,994.20,1.02,1.34,0.00,1.01,0.30,9.30,0.00,-0.00,0.00,0.00
2026-06-26 17:56:32.833,994.19,994.20,1.02,1.34,0.00,1.01,0.30,9.30,0.00,-0.00,0.00,0.00
2026-06-26 17:56:32.875,994.19,994.20,1.33,1.53,0.00,1.00,0.30,9.28,0.00,0.00,0.00,0.00
2026-06-26 17:56:32.876,994.19,994.20,1.33,1.53,0.00,1.00,0.30,9.28,0.00,0.00,0.00,0.00
2026-06-26 17:56:32.880,994.19,994.20,1.33,1.53,0.00,1.00,0.30,9.28,0.00,0.00,0.00,0.00
2026-06-26 17:56:32.883,994.19,994.20,1.33,1.53,0.00,1.00,0.30,9.28,0.00,0.00,0.00,0.00
2026-06-26 17:56:32.884,994.19,994.20,1.33,1.53,0.00,1.03,0.30,9.28,0.00,0.00,0.00,0.00
2026-06-26 17:56:32.886,994.19,994.20,1.33,1.53,0.00,1.03,0.30,9.28,0.00,0.00,0.00,0.00
2026-06-26 17:56:32.887,994.19,994.20,1.33,1.53,0.00,1.03,0.30,9.28,0.00,0.00,0.00,0.00
2026-06-26 17:56:32.888,994.19,994.20,1.33,1.53,0.00,1.03,0.30,9.28,0.00,0.00,0.00,0.00
2026-06-26 17:56:32.889,994.19,994.20,1.33,1.53,0.00,1.03,0.30,9.28,0.00,0.00,0.00,0.00
2026-06-26 17:56:32.892,994.19,994.20,1.33,1.53,0.00,1.03,0.30,9.28,0.00,0.00,0.00,0.00
2026-06-26 17:56:32.894,994.19,994.20,1.33,1.53,0.00,1.00,0.28,9.28,0.00,-0.00,0.00,0.00
2026-06-26 17:56:32.896,994.19,994.20,1.33,1.53,0.00,1.00,0.28,9.28,0.00,-0.00,0.00,0.00
2026-06-26 17:56:32.899,994.19,994.20,1.33,1.53,0.00,1.00,0.28,9.28,0.00,-0.00,0.00,0.00
2026-06-26 17:56:32.903,994.19,994.20,1.33,1.53,0.00,1.00,0.28,9.28,0.00,-0.00,-0.00,0.00
2026-06-26 17:56:32.904,994.19,994.20,1.33,1.53,0.00,1.03,0.30,9.28,0.00,-0.00,-0.00,0.00
2026-06-26 17:56:32.905,994.19,994.20,1.33,1.53,0.00,1.03,0.30,9.28,0.00,-0.00,-0.00,0.00
2026-06-26 17:56:32.906,994.19,994.20,1.33,1.53,0.00,1.03,0.30,9.28,0.00,-0.00,-0.00,0.00
2026-06-26 17:56:32.910,994.19,994.20,1.33,1.53,0.00,1.03,0.30,9.28,0.00,-0.00,-0.00,0.00
2026-06-26 17:56:32.913,994.19,994.20,1.33,1.53,0.00,1.03,0.30,9.28,0.00,-0.00,-0.00,0.00
2026-06-26 17:56:32.915,994.19,994.20,1.33,1.53,0.00,1.00,0.30,9.27,0.00,-0.00,-0.00,0.00
2026-06-26 17:56:32.916,994.19,994.20,1.33,1.53,0.00,1.00,0.30,9.27,0.00,-0.00,-0.00,0.00
2026-06-26 17:56:32.919,994.19,994.20,1.33,1.53,0.00,1.00,0.30,9.27,0.00,-0.00,-0.00,0.00
2026-06-26 17:56:32.923,994.19,994.20,1.33,1.53,0.00,1.00,0.30,9.27,-0.00,0.00,0.00,0.00
2026-06-26 17:56:32.966,994.19,994.20,1.42,1.58,0.00,1.03,0.28,9.25,0.00,-0.00,0.00,0.00
2026-06-26 17:56:32.969,994.19,994.20,1.42,1.58,0.00,1.03,0.28,9.25,0.00,-0.00,0.00,0.00
2026-06-26 17:56:32.973,994.19,994.20,1.42,1.58,0.00,1.03,0.28,9.25,0.00,0.00,0.00,0.00
2026-06-26 17:56:32.974,994.19,994.20,1.42,1.58,0.00,1.02,0.30,9.24,0.00,0.00,0.00,0.00
2026-06-26 17:56:33.015,994.19,994.20,1.08,1.38,0.00,1.02,0.28,9.26,0.00,0.00,-0.00,0.00
2026-06-26 17:56:33.017,994.19,994.20,1.08,1.38,0.00,1.02,0.28,9.26,0.00,0.00,-0.00,0.00
2026-06-26 17:56:33.022,994.19,994.20,1.08,1.38,0.00,1.02,0.28,9.26,0.00,0.00,-0.00,0.00
2026-06-26 17:56:33.023,994.19,994.20,1.08,1.38,0.00,1.03,0.28,9.27,0.00,-0.00,-0.00,0.00
2026-06-26 17:56:33.025,994.19,994.20,1.08,1.38,0.00,1.03,0.28,9.27,0.00,-0.00,-0.00,0.00
2026-06-26 17:56:33.026,994.19,994.20,1.08,1.38,0.00,1.03,0.28,9.27,0.00,-0.00,-0.00,0.00
2026-06-26 17:56:33.027,994.19,994.20,1.08,1.38,0.00,1.03,0.28,9.27,0.00,-0.00,-0.00,0.00
2026-06-26 17:56:33.033,994.19,994.20,1.08,1.38,0.00,1.03,0.28,9.27,0.00,-0.00,-0.00,0.00
2026-06-26 17:56:33.035,994.19,994.20,1.08,1.38,0.00,1.01,0.31,9.30,-0.00,0.00,-0.00,0.00
2026-06-26 17:56:33.040,994.19,994.20,1.08,1.38,0.00,1.01,0.31,9.30,-0.00,0.00,-0.00,0.00
2026-06-26 17:56:33.044,994.19,994.20,1.08,1.38,0.00,1.01,0.31,9.30,0.00,0.00,-0.00,0.00
2026-06-26 17:56:33.045,994.19,994.20,1.08,1.38,0.00,1.02,0.29,9.28,0.00,0.00,-0.00,0.00
2026-06-26 17:56:33.047,994.19,994.20,1.08,1.38,0.00,1.02,0.29,9.28,0.00,0.00,-0.00,0.00
2026-06-26 17:56:33.053,994.19,994.20,1.08,1.38,0.00,1.02,0.29,9.28,0.00,0.00,-0.00,0.00
2026-06-26 17:56:33.054,994.19,994.20,1.08,1.38,0.00,1.04,0.28,9.33,0.00,0.00,0.00,0.00
2026-06-26 17:56:33.057,994.19,994.20,1.08,1.38,0.00,1.04,0.28,9.33,0.00,0.00,0.00,0.00
2026-06-26 17:56:33.063,994.19,994.20,1.08,1.38,0.00,1.04,0.28,9.33,0.00,0.00,0.00,0.00
2026-06-26 17:56:33.064,994.19,994.20,1.08,1.38,0.00,1.00,0.29,9.28,-0.00,0.00,0.00,0.00
2026-06-26 17:56:33.065,994.19,994.20,1.08,1.38,0.00,1.00,0.29,9.28,-0.00,0.00,0.00,0.00
2026-06-26 17:56:33.104,994.19,994.20,0.52,0.95,0.00,1.01,0.29,9.27,0.00,0.00,0.00,0.00
2026-06-26 17:56:33.105,994.19,994.20,0.52,0.95,0.00,1.01,0.29,9.27,0.00,0.00,0.00,0.00
2026-06-26 17:56:33.111,994.19,994.20,0.52,0.95,0.00,1.01,0.29,9.27,0.00,0.00,0.00,0.00
2026-06-26 17:56:33.114,994.19,994.20,0.52,0.95,0.00,1.03,0.29,9.25,0.00,0.00,0.00,0.00
2026-06-26 17:56:33.157,994.19,994.20,0.65,1.07,0.00,1.02,0.28,9.29,0.00,-0.00,0.00,0.00
2026-06-26 17:56:33.162,994.19,994.20,0.65,1.07,0.00,1.02,0.28,9.29,0.00,-0.00,0.00,0.00
2026-06-26 17:56:33.164,994.19,994.20,0.65,1.07,0.00,0.99,0.28,9.26,0.00,0.00,-0.00,0.00
2026-06-26 17:56:33.165,994.19,994.20,0.65,1.07,0.00,0.99,0.28,9.26,0.00,0.00,-0.00,0.00
2026-06-26 17:56:33.166,994.19,994.20,0.65,1.07,0.00,0.99,0.28,9.26,0.00,0.00,-0.00,0.00
2026-06-26 17:56:33.167,994.19,994.20,0.65,1.07,0.00,0.99,0.28,9.26,0.00,0.00,-0.00,0.00
2026-06-26 17:56:33.172,994.19,994.20,0.65,1.07,0.00,0.99,0.28,9.26,0.00,0.00,-0.00,0.00
2026-06-26 17:56:33.174,994.19,994.20,0.65,1.07,0.00,1.04,0.31,9.28,0.00,0.00,0.00,0.00
2026-06-26 17:56:33.175,994.19,994.20,0.65,1.07,0.00,1.04,0.31,9.28,0.00,0.00,0.00,0.00
2026-06-26 17:56:33.177,994.19,994.20,0.65,1.07,0.00,1.04,0.31,9.28,0.00,0.00,0.00,0.00
2026-06-26 17:56:33.181,994.19,994.20,0.65,1.07,0.00,1.04,0.31,9.28,0.00,0.00,0.00,0.00
2026-06-26 17:56:33.184,994.19,994.20,0.65,1.07,0.00,1.04,0.31,9.28,0.00,0.00,-0.00,0.00
2026-06-26 17:56:33.185,994.19,994.20,0.65,1.07,0.00,1.03,0.29,9.29,0.00,0.00,-0.00,0.00
2026-06-26 17:56:33.186,994.19,994.20,0.65,1.07,0.00,1.03,0.29,9.29,0.00,0.00,-0.00,0.00
2026-06-26 17:56:33.187,994.19,994.20,0.65,1.07,0.00,1.03,0.29,9.29,0.00,0.00,-0.00,0.00
2026-06-26 17:56:33.189,994.19,994.20,0.65,1.07,0.00,1.03,0.29,9.29,0.00,0.00,-0.00,0.00
2026-06-26 17:56:33.190,994.19,994.20,0.65,1.07,0.00,1.03,0.29,9.29,0.00,0.00,-0.00,0.00
2026-06-26 17:56:33.191,994.19,994.20,0.65,1.07,0.00,1.03,0.29,9.29,0.00,0.00,-0.00,0.00
2026-06-26 17:56:33.194,994.19,994.20,0.65,1.07,0.00,1.00,0.27,9.28,-0.00,-0.00,-0.00,0.00
2026-06-26 17:56:33.196,994.19,994.20,0.65,1.07,0.00,1.00,0.27,9.28,-0.00,-0.00,-0.00,0.00
2026-06-26 17:56:33.201,994.19,994.20,0.65,1.07,0.00,1.00,0.27,9.28,-0.00,-0.00,-0.00,0.00
2026-06-26 17:56:33.204,994.19,994.20,0.65,1.07,0.00,1.00,0.27,9.28,0.00,0.00,-0.00,0.00
2026-06-26 17:56:33.246,994.19,994.20,0.65,1.07,0.00,1.00,0.27,9.29,0.00,0.00,0.00,0.00
2026-06-26 17:56:33.247,994.19,994.20,0.65,1.07,0.00,1.00,0.27,9.29,0.00,0.00,0.00,0.00
2026-06-26 17:56:33.253,994.19,994.20,0.65,1.07,0.00,1.00,0.27,9.29,0.00,0.00,0.00,0.00
2026-06-26 17:56:33.256,994.19,994.20,0.65,1.07,0.00,1.01,0.28,9.26,0.00,0.00,-0.00,0.00
2026-06-26 17:56:33.298,994.19,994.20,0.92,1.27,0.00,1.03,0.30,9.30,0.00,0.00,0.00,0.00
2026-06-26 17:56:33.303,994.19,994.20,0.92,1.27,0.00,1.03,0.30,9.30,0.00,0.00,0.00,0.00
2026-06-26 17:56:33.305,994.19,994.20,0.92,1.27,0.00,1.01,0.30,9.27,-0.00,0.00,0.00,0.00
2026-06-26 17:56:33.306,994.19,994.20,0.92,1.27,0.00,1.01,0.30,9.27,-0.00,0.00,0.00,0.00
2026-06-26 17:56:33.308,994.19,994.20,0.92,1.27,0.00,1.01,0.30,9.27,-0.00,0.00,0.00,0.00
2026-06-26 17:56:33.313,994.19,994.20,0.92,1.27,0.00,1.01,0.30,9.27,-0.00,0.00,0.00,0.00
2026-06-26 17:56:33.315,994.19,994.20,0.92,1.27,0.00,1.02,0.29,9.24,0.00,0.00,0.00,0.00
2026-06-26 17:56:33.316,994.19,994.20,0.92,1.27,0.00,1.02,0.29,9.24,0.00,0.00,0.00,0.00
2026-06-26 17:56:33.317,994.19,994.20,0.92,1.27,0.00,1.02,0.29,9.24,0.00,0.00,0.00,0.00
2026-06-26 17:56:33.318,994.19,994.20,0.92,1.27,0.00,1.02,0.29,9.24,0.00,0.00,0.00,0.00
2026-06-26 17:56:33.323,994.19,994.20,0.92,1.27,0.00,1.02,0.29,9.24,0.00,0.00,0.00,0.00
2026-06-26 17:56:33.325,994.19,994.20,0.92,1.27,0.00,1.02,0.29,9.27,0.00,-0.00,-0.00,0.00
2026-06-26 17:56:33.326,994.19,994.20,0.92,1.27,0.00,1.02,0.29,9.27,0.00,-0.00,-0.00,0.00
2026-06-26 17:56:33.328,994.19,994.20,0.92,1.27,0.00,1.02,0.29,9.27,0.00,-0.00,-0.00,0.00
2026-06-26 17:56:33.333,994.19,994.20,0.92,1.27,0.00,1.02,0.29,9.27,0.00,-0.00,-0.00,0.00
2026-06-26 17:56:33.335,994.19,994.20,0.92,1.27,0.00,1.01,0.29,9.27,0.00,-0.00,0.00,0.00
2026-06-26 17:56:33.336,994.19,994.20,0.92,1.27,0.00,1.01,0.29,9.27,0.00,-0.00,0.00,0.00
2026-06-26 17:56:33.337,994.19,994.20,0.92,1.27,0.00,1.01,0.29,9.27,0.00,-0.00,0.00,0.00
2026-06-26 17:56:33.339,994.19,994.20,0.92,1.27,0.00,1.01,0.29,9.27,0.00,-0.00,0.00,0.00
2026-06-26 17:56:33.340,994.19,994.20,0.92,1.27,0.00,1.01,0.29,9.27,0.00,-0.00,0.00,0.00
2026-06-26 17:56:33.344,994.19,994.20,0.92,1.27,0.00,1.01,0.29,9.27,0.00,-0.00,0.00,0.00
2026-06-26 17:56:33.346,994.19,994.20,0.92,1.27,0.00,1.02,0.29,9.31,0.00,-0.00,0.00,0.00
2026-06-26 17:56:33.389,994.19,994.19,0.60,1.03,0.00,1.01,0.27,9.29,0.00,-0.00,0.00,0.00
2026-06-26 17:56:33.392,994.19,994.19,0.60,1.03,0.00,1.01,0.27,9.29,0.00,-0.00,0.00,0.00
2026-06-26 17:56:33.395,994.19,994.19,0.60,1.03,0.00,1.02,0.30,9.29,0.00,-0.00,-0.00,0.00
2026-06-26 17:56:33.396,994.19,994.19,0.60,1.03,0.00,1.02,0.30,9.29,0.00,-0.00,-0.00,0.00
2026-06-26 17:56:33.438,994.19,994.19,0.43,0.87,0.00,1.01,0.29,9.27,0.00,0.00,0.00,0.00
2026-06-26 17:56:33.439,994.19,994.19,0.43,0.87,0.00,1.01,0.29,9.27,0.00,0.00,0.00,0.00
2026-06-26 17:56:33.442,994.19,994.19,0.43,0.87,0.00,1.01,0.29,9.27,0.00,0.00,0.00,0.00
2026-06-26 17:56:33.444,994.19,994.19,0.43,0.87,0.00,1.01,0.29,9.27,0.00,-0.00,0.00,0.00
2026-06-26 17:56:33.445,994.19,994.19,0.43,0.87,0.00,1.02,0.30,9.29,0.00,-0.00,0.00,0.00
2026-06-26 17:56:33.446,994.19,994.19,0.43,0.87,0.00,1.02,0.30,9.29,0.00,-0.00,0.00,0.00
2026-06-26 17:56:33.448,994.19,994.19,0.43,0.87,0.00,1.02,0.30,9.29,0.00,-0.00,0.00,0.00
2026-06-26 17:56:33.454,994.19,994.19,0.43,0.87,0.00,1.02,0.30,9.29,0.00,0.00,-0.00,0.00
2026-06-26 17:56:33.456,994.19,994.19,0.43,0.87,0.00,1.03,0.30,9.26,0.00,0.00,-0.00,0.00
2026-06-26 17:56:33.457,994.19,994.19,0.43,0.87,0.00,1.03,0.30,9.26,0.00,0.00,-0.00,0.00
2026-06-26 17:56:33.465,994.19,994.19,0.43,0.87,0.00,1.03,0.30,9.26,0.00,0.00,-0.00,0.00
2026-06-26 17:56:33.467,994.19,994.19,0.43,0.87,0.00,1.01,0.30,9.27,0.00,0.00,-0.00,0.00
2026-06-26 17:56:33.471,994.19,994.19,0.43,0.87,0.00,1.01,0.30,9.27,0.00,0.00,-0.00,0.00
2026-06-26 17:56:33.474,994.19,994.19,0.43,0.87,0.00,1.01,0.30,9.27,0.00,-0.00,0.00,0.00
2026-06-26 17:56:33.475,994.19,994.19,0.43,0.87,0.00,1.01,0.29,9.28,0.00,-0.00,0.00,0.00
2026-06-26 17:56:33.477,994.19,994.19,0.43,0.87,0.00,1.01,0.29,9.28,0.00,-0.00,0.00,0.00
2026-06-26 17:56:33.478,994.19,994.19,0.43,0.87,0.00,1.01,0.29,9.28,0.00,-0.00,0.00,0.00
2026-06-26 17:56:33.484,994.19,994.19,0.43,0.87,0.00,1.01,0.29,9.28,0.00,-0.00,0.00,0.00
2026-06-26 17:56:33.486,994.19,994.19,0.43,0.87,0.00,1.01,0.28,9.26,0.00,0.00,0.00,0.00
2026-06-26 17:56:33.487,994.19,994.19,0.43,0.87,0.00,1.01,0.28,9.26,0.00,0.00,0.00,0.00
2026-06-26 17:56:33.488,994.19,994.19,0.43,0.87,0.00,1.01,0.28,9.26,0.00,0.00,0.00,0.00
2026-06-26 17:56:33.534,994.19,994.19,0.38,0.82,0.00,1.01,0.29,9.26,-0.00,-0.00,0.00,0.00
2026-06-26 17:56:33.535,994.19,994.19,0.38,0.82,0.00,1.00,0.30,9.27,0.00,0.00,-0.00,0.00
2026-06-26 17:56:33.536,994.19,994.19,0.38,0.82,0.00,1.00,0.30,9.27,0.00,0.00,-0.00,0.00
2026-06-26 17:56:33.538,994.19,994.19,0.38,0.82,0.00,1.00,0.30,9.27,0.00,0.00,-0.00,0.00
2026-06-26 17:56:33.584,994.19,994.19,0.90,1.25,0.00,1.02,0.32,9.27,0.00,-0.00,0.00,0.00
2026-06-26 17:56:33.585,994.19,994.19,0.90,1.25,0.00,0.99,0.28,9.27,0.00,0.00,0.00,0.00
2026-06-26 17:56:33.587,994.19,994.19,0.90,1.25,0.00,0.99,0.28,9.27,0.00,0.00,0.00,0.00
2026-06-26 17:56:33.588,994.19,994.19,0.90,1.25,0.00,0.99,0.28,9.27,0.00,0.00,0.00,0.00
2026-06-26 17:56:33.590,994.19,994.19,0.90,1.25,0.00,0.99,0.28,9.27,0.00,0.00,0.00,0.00
2026-06-26 17:56:33.591,994.19,994.19,0.90,1.25,0.00,0.99,0.28,9.27,0.00,0.00,0.00,0.00
2026-06-26 17:56:33.594,994.19,994.19,0.90,1.25,0.00,0.99,0.28,9.27,0.00,0.00,-0.00,0.00
2026-06-26 17:56:33.595,994.19,994.19,0.90,1.25,0.00,1.03,0.28,9.27,0.00,0.00,-0.00,0.00
2026-06-26 17:56:33.597,994.19,994.19,0.90,1.25,0.00,1.03,0.28,9.27,0.00,0.00,-0.00,0.00
2026-06-26 17:56:33.598,994.19,994.19,0.90,1.25,0.00,1.03,0.28,9.27,0.00,0.00,-0.00,0.00
2026-06-26 17:56:33.602,994.19,994.19,0.90,1.25,0.00,1.03,0.28,9.27,0.00,0.00,-0.00,0.00
2026-06-26 17:56:33.605,994.19,994.19,0.90,1.25,0.00,1.00,0.29,9.27,-0.00,0.00,-0.00,0.00
2026-06-26 17:56:33.606,994.19,994.19,0.90,1.25,0.00,1.00,0.29,9.27,-0.00,0.00,-0.00,0.00
2026-06-26 17:56:33.607,994.19,994.19,0.90,1.25,0.00,1.00,0.29,9.27,-0.00,0.00,-0.00,0.00
2026-06-26 17:56:33.612,994.19,994.19,0.90,1.25,0.00,1.00,0.29,9.27,-0.00,0.00,-0.00,0.00
2026-06-26 17:56:33.615,994.19,994.19,0.90,1.25,0.00,1.01,0.29,9.23,0.00,0.00,-0.00,0.00
2026-06-26 17:56:33.616,994.19,994.19,0.90,1.25,0.00,1.01,0.29,9.23,0.00,0.00,-0.00,0.00
2026-06-26 17:56:33.617,994.19,994.19,0.90,1.25,0.00,1.01,0.29,9.23,0.00,0.00,-0.00,0.00
2026-06-26 17:56:33.619,994.19,994.19,0.90,1.25,0.00,1.01,0.29,9.23,0.00,0.00,-0.00,0.00
2026-06-26 17:56:33.622,994.19,994.19,0.90,1.25,0.00,1.01,0.29,9.23,0.00,0.00,-0.00,0.00
2026-06-26 17:56:33.625,994.19,994.19,0.90,1.25,0.00,1.01,0.29,9.26,0.00,0.00,0.00,0.00
2026-06-26 17:56:33.627,994.19,994.19,0.90,1.25,0.00,1.01,0.29,9.26,0.00,0.00,0.00,0.00
2026-06-26 17:56:33.631,994.19,994.19,0.90,1.25,0.00,1.01,0.29,9.26,0.00,0.00,0.00,0.00
2026-06-26 17:56:33.675,994.19,994.20,1.10,1.39,0.00,0.99,0.32,9.25,0.00,-0.00,0.00,0.00
2026-06-26 17:56:33.677,994.19,994.20,1.10,1.39,0.00,1.02,0.31,9.27,0.00,-0.00,0.00,0.00
2026-06-26 17:56:33.678,994.19,994.20,1.10,1.39,0.00,1.02,0.31,9.27,0.00,-0.00,0.00,0.00
2026-06-26 17:56:33.724,994.19,994.20,0.76,1.16,0.00,1.01,0.30,9.27,0.00,0.00,-0.00,0.00
2026-06-26 17:56:33.725,994.19,994.20,0.76,1.16,0.00,0.99,0.31,9.28,0.00,-0.00,-0.00,0.00
2026-06-26 17:56:33.727,994.19,994.20,0.76,1.16,0.00,0.99,0.31,9.28,0.00,-0.00,-0.00,0.00
2026-06-26 17:56:33.728,994.19,994.20,0.76,1.16,0.00,0.99,0.31,9.28,0.00,-0.00,-0.00,0.00
2026-06-26 17:56:33.731,994.19,994.20,0.76,1.16,0.00,0.99,0.31,9.28,0.00,-0.00,-0.00,0.00
2026-06-26 17:56:33.735,994.19,994.20,0.76,1.16,0.00,0.99,0.31,9.28,-0.00,0.00,0.00,0.00
2026-06-26 17:56:33.737,994.19,994.20,0.76,1.16,0.00,1.02,0.29,9.27,-0.00,0.00,0.00,0.00
2026-06-26 17:56:33.739,994.19,994.20,0.76,1.16,0.00,1.02,0.29,9.27,-0.00,0.00,0.00,0.00
2026-06-26 17:56:33.740,994.19,994.20,0.76,1.16,0.00,1.02,0.29,9.27,-0.00,0.00,0.00,0.00
2026-06-26 17:56:33.743,994.19,994.20,0.76,1.16,0.00,1.02,0.29,9.27,-0.00,0.00,0.00,0.00
2026-06-26 17:56:33.745,994.19,994.20,0.76,1.16,0.00,1.02,0.28,9.25,0.00,0.00,-0.00,0.00
2026-06-26 17:56:33.747,994.19,994.20,0.76,1.16,0.00,1.02,0.28,9.25,0.00,0.00,-0.00,0.00
2026-06-26 17:56:33.748,994.19,994.20,0.76,1.16,0.00,1.02,0.28,9.25,0.00,0.00,-0.00,0.00
2026-06-26 17:56:33.754,994.19,994.20,0.76,1.16,0.00,1.02,0.28,9.25,0.00,0.00,-0.00,0.00
2026-06-26 17:56:33.755,994.19,994.20,0.76,1.16,0.00,1.00,0.29,9.27,0.00,0.00,-0.00,0.00
2026-06-26 17:56:33.757,994.19,994.20,0.76,1.16,0.00,1.00,0.29,9.27,0.00,0.00,-0.00,0.00
2026-06-26 17:56:33.758,994.19,994.20,0.76,1.16,0.00,1.00,0.29,9.27,0.00,0.00,-0.00,0.00
2026-06-26 17:56:33.764,994.19,994.20,0.76,1.16,0.00,1.00,0.29,9.27,0.00,0.00,-0.00,0.00
2026-06-26 17:56:33.765,994.19,994.20,0.76,1.16,0.00,1.01,0.29,9.27,0.00,-0.00,0.00,0.00
2026-06-26 17:56:33.767,994.19,994.20,0.76,1.16,0.00,1.01,0.29,9.27,0.00,-0.00,0.00,0.00
2026-06-26 17:56:33.768,994.19,994.20,0.76,1.16,0.00,1.01,0.29,9.27,0.00,-0.00,0.00,0.00
2026-06-26 17:56:33.772,994.19,994.20,0.76,1.16,0.00,1.01,0.29,9.27,0.00,-0.00,0.00,0.00
2026-06-26 17:56:33.775,994.19,994.20,0.76,1.16,0.00,1.01,0.29,9.27,0.00,-0.00,0.00,0.00
2026-06-26 17:56:33.818,994.19,994.19,0.41,0.85,0.00,1.03,0.28,9.27,0.00,-0.00,-0.00,0.00
2026-06-26 17:56:33.820,994.19,994.19,0.41,0.85,0.00,1.03,0.28,9.27,0.00,-0.00,-0.00,0.00
