timestamp,pressure_bag,pressure_bme,diff_pressure,v_wind_est,speed,accel_x,accel_y,accel_z,gyro_x,gyro_y,gyro_z,power
2026-06-26 19:39:18.786,994.29,994.29,-0.19,-0.58,0.00,1.04,0.23,9.28,-0.00,-0.00,0.00,0.00
2026-06-26 19:39:18.790,994.29,994.29,-0.19,-0.58,0.00,1.04,0.23,9.28,-0.00,-0.00,-0.00,0.00
2026-06-26 19:39:18.792,994.29,994.29,-0.19,-0.58,0.00,1.06,0.22,9.29,-0.00,-0.00,-0.00,0.00
2026-06-26 19:39:18.793,994.29,994.29,-0.19,-0.58,0.00,1.06,0.22,9.29,-0.00,-0.00,-0.00,0.00
2026-06-26 19:39:18.795,994.29,994.29,-0.19,-0.58,0.00,1.06,0.22,9.29,-0.00,-0.00,-0.00,0.00
2026-06-26 19:39:18.797,994.29,994.29,-0.19,-0.58,0.00,1.06,0.22,9.29,-0.00,-0.00,-0.00,0.00
2026-06-26 19:39:18.800,994.29,994.29,-0.19,-0.58,0.00,1.06,0.22,9.29,0.00,0.00,-0.00,0.00
2026-06-26 19:39:18.801,994.29,994.29,-0.19,-0.58,0.00,1.08,0.26,9.28,0.00,0.00,-0.00,0.00
2026-06-26 19:39:18.802,994.29,994.29,-0.19,-0.58,0.00,1.08,0.26,9.28,0.00,0.00,-0.00,0.00
2026-06-26 19:39:18.803,994.29,994.29,-0.19,-0.58,0.00,1.08,0.26,9.28,0.00,0.00,-0.00,0.00
2026-06-26 19:39:18.807,994.29,994.29,-0.19,-0.58,0.00,1.08,0.26,9.28,0.00,0.00,-0.00,0.00
2026-06-26 19:39:18.810,994.29,994.29,-0.19,-0.58,0.00,1.08,0.26,9.28,0.00,0.00,-0.00,0.00
2026-06-26 19:39:18.811,994.29,994.29,-0.19,-0.58,0.00,1.05,0.22,9.28,0.00,0.00,-0.00,0.00
2026-06-26 19:39:18.813,994.29,994.29,-0.19,-0.58,0.00,1.05,0.22,9.28,0.00,0.00,-0.00,0.00
2026-06-26 19:39:18.819,994.29,994.29,-0.19,-0.58,0.00,1.05,0.22,9.28,0.00,-0.00,-0.00,0.00
2026-06-26 19:39:18.967,994.30,994.29,-0.37,-0.80,0.00,1.06,0.23,9.28,0.00,0.00,0.00,0.00
2026-06-26 19:39:18.970,994.30,994.29,-0.37,-0.80,0.00,1.06,0.23,9.28,-0.00,-0.00,0.00,0.00
2026-06-26 19:39:18.971,994.30,994.29,-0.37,-0.80,0.00,1.06,0.22,9.27,-0.00,-0.00,0.00,0.00
2026-06-26 19:39:18.972,994.30,994.29,-0.37,-0.80,0.00,1.06,0.22,9.27,-0.00,-0.00,0.00,0.00
2026-06-26 19:39:18.974,994.30,994.29,-0.37,-0.80,0.00,1.06,0.22,9.27,-0.00,-0.00,0.00,0.00
2026-06-26 19:39:18.975,994.30,994.29,-0.37,-0.80,0.00,1.06,0.22,9.27,-0.00,-0.00,0.00,0.00
2026-06-26 19:39:18.979,994.30,994.29,-0.37,-0.80,0.00,1.06,0.22,9.27,-0.00,-0.00,0.00,0.00
2026-06-26 19:39:18.981,994.30,994.29,-0.37,-0.80,0.00,1.07,0.24,9.26,-0.00,-0.00,0.00,0.00
2026-06-26 19:39:18.983,994.30,994.29,-0.37,-0.80,0.00,1.07,0.24,9.26,-0.00,-0.00,0.00,0.00
2026-06-26 19:39:18.989,994.30,994.29,-0.37,-0.80,0.00,1.07,0.24,9.26,-0.00,-0.00,0.00,0.00
2026-06-26 19:39:18.991,994.30,994.29,-0.37,-0.80,0.00,1.06,0.23,9.29,-0.00,0.00,-0.00,0.00
2026-06-26 19:39:18.994,994.30,994.29,-0.37,-0.80,0.00,1.06,0.23,9.29,-0.00,0.00,-0.00,0.00
2026-06-26 19:39:18.996,994.30,994.29,-0.37,-0.80,0.00,1.06,0.23,9.29,-0.00,0.00,-0.00,0.00
2026-06-26 19:39:18.000,994.30,994.29,-0.37,-0.80,0.00,1.06,0.23,9.29,0.00,0.00,0.00,0.00
2026-06-26 19:39:19.141,994.30,994.30,-0.10,-0.43,0.00,1.09,0.23,9.28,-0.00,0.00,0.00,0.00
2026-06-26 19:39:19.142,994.30,994.30,-0.10,-0.43,0.00,1.05,0.23,9.28,-0.00,0.00,0.00,0.00
2026-06-26 19:39:19.143,994.30,994.30,-0.10,-0.43,0.00,1.05,0.23,9.28,-0.00,0.00,0.00,0.00
2026-06-26 19:39:19.145,994.30,994.30,-0.10,-0.43,0.00,1.05,0.23,9.28,-0.00,0.00,0.00,0.00
2026-06-26 19:39:19.147,994.30,994.30,-0.10,-0.43,0.00,1.05,0.23,9.28,-0.00,0.00,0.00,0.00
2026-06-26 19:39:19.150,994.30,994.30,-0.10,-0.43,0.00,1.05,0.23,9.28,-0.00,0.00,0.00,0.00
2026-06-26 19:39:19.151,994.30,994.30,-0.10,-0.43,0.00,1.06,0.22,9.29,0.00,0.00,0.00,0.00
2026-06-26 19:39:19.152,994.30,994.30,-0.10,-0.43,0.00,1.06,0.22,9.29,0.00,0.00,0.00,0.00
2026-06-26 19:39:19.154,994.30,994.30,-0.10,-0.43,0.00,1.06,0.22,9.29,0.00,0.00,0.00,0.00
2026-06-26 19:39:19.155,994.30,994.30,-0.10,-0.43,0.00,1.06,0.22,9.29,0.00,0.00,0.00,0.00
2026-06-26 19:39:19.160,994.30,994.30,-0.10,-0.43,0.00,1.06,0.22,9.29,0.00,0.00,0.00,0.00
2026-06-26 19:39:19.161,994.30,994.30,-0.10,-0.43,0.00,1.06,0.22,9.28,0.00,0.00,-0.00,0.00
2026-06-26 19:39:19.164,994.30,994.30,-0.10,-0.43,0.00,1.06,0.22,9.28,0.00,0.00,-0.00,0.00
2026-06-26 19:39:19.167,994.30,994.30,-0.10,-0.43,0.00,1.06,0.22,9.28,0.00,0.00,-0.00,0.00
2026-06-26 19:39:19.170,994.30,994.30,-0.10,-0.43,0.00,1.06,0.22,9.28,-0.00,0.00,0.00,0.00
2026-06-26 19:39:19.172,994.30,994.30,-0.10,-0.43,0.00,1.04,0.25,9.26,-0.00,0.00,0.00,0.00
2026-06-26 19:39:19.173,994.30,994.30,-0.10,-0.43,0.00,1.04,0.25,9.26,-0.00,0.00,0.00,0.00
2026-06-26 19:39:19.174,994.30,994.30,-0.10,-0.43,0.00,1.04,0.25,9.26,-0.00,0.00,0.00,0.00
2026-06-26 19:39:19.175,994.30,994.30,-0.10,-0.43,0.00,1.04,0.25,9.26,-0.00,0.00,0.00,0.00
2026-06-26 19:39:19.314,994.30,994.30,-0.33,-0.77,0.00,1.06,0.22,9.26,-0.00,0.00,0.00,0.00
2026-06-26 19:39:19.320,994.30,994.30,-0.33,-0.77,0.00,1.06,0.22,9.26,-0.00,0.00,0.00,0.00
2026-06-26 19:39:19.322,994.30,994.30,-0.33,-0.77,0.00,1.07,0.22,9.27,-0.00,0.00,0.00,0.00
2026-06-26 19:39:19.323,994.30,994.30,-0.33,-0.77,0.00,1.07,0.22,9.27,-0.00,0.00,0.00,0.00
2026-06-26 19:39:19.324,994.30,994.30,-0.33,-0.77,0.00,1.07,0.22,9.27,-0.00,0.00,0.00,0.00
2026-06-26 19:39:19.326,994.30,994.30,-0.33,-0.77,0.00,1.07,0.22,9.27,-0.00,0.00,0.00,0.00
2026-06-26 19:39:19.330,994.30,994.30,-0.33,-0.77,0.00,1.07,0.22,9.27,-0.00,0.00,-0.00,0.00
2026-06-26 19:39:19.332,994.30,994.30,-0.33,-0.77,0.00,1.06,0.23,9.25,-0.00,0.00,-0.00,0.00
2026-06-26 19:39:19.333,994.30,994.30,-0.33,-0.77,0.00,1.06,0.23,9.25,-0.00,0.00,-0.00,0.00
2026-06-26 19:39:19.334,994.30,994.30,-0.33,-0.77,0.00,1.06,0.23,9.25,-0.00,0.00,-0.00,0.00
2026-06-26 19:39:19.336,994.30,994.30,-0.33,-0.77,0.00,1.06,0.23,9.25,-0.00,0.00,-0.00,0.00
2026-06-26 19:39:19.341,994.30,994.30,-0.33,-0.77,0.00,1.06,0.23,9.25,-0.00,0.00,-0.00,0.00
2026-06-26 19:39:19.342,994.30,994.30,-0.33,-0.77,0.00,1.06,0.21,9.29,0.00,0.00,0.00,0.00
2026-06-26 19:39:19.343,994.30,994.30,-0.33,-0.77,0.00,1.06,0.21,9.29,0.00,0.00,0.00,0.00
2026-06-26 19:39:19.344,994.30,994.30,-0.33,-0.77,0.00,1.06,0.21,9.29,0.00,0.00,0.00,0.00
2026-06-26 19:39:19.346,994.30,994.30,-0.33,-0.77,0.00,1.06,0.21,9.29,0.00,0.00,0.00,0.00
2026-06-26 19:39:19.347,994.30,994.30,-0.33,-0.77,0.00,1.06,0.21,9.29,0.00,0.00,0.00,0.00
2026-06-26 19:39:19.348,994.30,994.30,-0.33,-0.77,0.00,1.06,0.21,9.29,0.00,0.00,0.00,0.00
2026-06-26 19:39:19.349,994.30,994.30,-0.33,-0.77,0.00,1.06,0.21,9.29,0.00,0.00,0.00,0.00
2026-06-26 19:39:19.351,994.30,994.30,-0.33,-0.77,0.00,1.05,0.24,9.28,0.00,-0.00,0.00,0.00
2026-06-26 19:39:19.492,994.30,994.30,-0.22,-0.62,0.00,1.07,0.24,9.26,0.00,-0.01,-0.00,0.00
2026-06-26 19:39:19.496,994.30,994.30,-0.22,-0.62,0.00,1.07,0.24,9.26,0.00,-0.01,-0.00,0.00
2026-06-26 19:39:19.502,994.30,994.30,-0.22,-0.62,0.00,1.07,0.24,9.26,0.00,-0.01,-0.00,0.00
2026-06-26 19:39:19.504,994.30,994.30,-0.22,-0.62,0.00,1.07,0.23,9.30,0.00,-0.00,0.00,0.00
2026-06-26 19:39:19.507,994.30,994.30,-0.22,-0.62,0.00,1.07,0.23,9.30,0.00,-0.00,0.00,0.00
2026-06-26 19:39:19.511,994.30,994.30,-0.22,-0.62,0.00,1.07,0.23,9.30,0.00,-0.00,0.00,0.00
2026-06-26 19:39:19.512,994.30,994.30,-0.22,-0.62,0.00,1.07,0.25,9.25,0.00,-0.00,0.00,0.00
2026-06-26 19:39:19.514,994.30,994.30,-0.22,-0.62,0.00,1.07,0.25,9.25,0.00,-0.00,0.00,0.00
2026-06-26 19:39:19.515,994.30,994.30,-0.22,-0.62,0.00,1.07,0.25,9.25,0.00,-0.00,0.00,0.00
2026-06-26 19:39:19.519,994.30,994.30,-0.22,-0.62,0.00,1.07,0.25,9.25,0.00,-0.00,0.00,0.00
2026-06-26 19:39:19.522,994.30,994.30,-0.22,-0.62,0.00,1.07,0.25,9.25,-0.00,0.00,-0.00,0.00
2026-06-26 19:39:19.523,994.30,994.30,-0.22,-0.62,0.00,1.07,0.23,9.27,-0.00,0.00,-0.00,0.00
2026-06-26 19:39:19.525,994.30,994.30,-0.22,-0.62,0.00,1.07,0.23,9.27,-0.00,0.00,-0.00,0.00
2026-06-26 19:39:19.530,994.30,994.30,-0.22,-0.62,0.00,1.07,0.23,9.27,-0.00,0.00,-0.00,0.00
2026-06-26 19:39:19.672,994.30,994.30,-0.23,-0.64,0.00,1.07,0.25,9.27,0.00,-0.00,0.00,0.00
2026-06-26 19:39:19.673,994.30,994.30,-0.23,-0.64,0.00,1.07,0.25,9.27,0.00,-0.00,0.00,0.00
2026-06-26 19:39:19.674,994.30,994.30,-0.23,-0.64,0.00,1.07,0.25,9.27,0.00,-0.00,0.00,0.00
2026-06-26 19:39:19.676,994.30,994.30,-0.23,-0.64,0.00,1.07,0.25,9.27,0.00,-0.00,0.00,0.00
2026-06-26 19:39:19.677,994.30,994.30,-0.23,-0.64,0.00,1.07,0.25,9.27,0.00,-0.00,0.00,0.00
2026-06-26 19:39:19.681,994.30,994.30,-0.23,-0.64,0.00,1.07,0.25,9.27,0.00,-0.00,0.00,0.00
2026-06-26 19:39:19.682,994.30,994.30,-0.23,-0.64,0.00,1.07,0.24,9.28,0.00,-0.00,0.00,0.00
2026-06-26 19:39:19.684,994.30,994.30,-0.23,-0.64,0.00,1.07,0.24,9.28,0.00,-0.00,0.00,0.00
2026-06-26 19:39:19.685,994.30,994.30,-0.23,-0.64,0.00,1.07,0.24,9.28,0.00,-0.00,0.00,0.00
2026-06-26 19:39:19.689,994.30,994.30,-0.23,-0.64,0.00,1.07,0.24,9.28,0.00,-0.00,0.00,0.00
2026-06-26 19:39:19.693,994.30,994.30,-0.23,-0.64,0.00,1.07,0.22,9.28,0.00,0.00,0.00,0.00
2026-06-26 19:39:19.695,994.30,994.30,-0.23,-0.64,0.00,1.07,0.22,9.28,0.00,0.00,0.00,0.00
2026-06-26 19:39:19.696,994.30,994.30,-0.23,-0.64,0.00,1.07,0.22,9.28,0.00,0.00,0.00,0.00
2026-06-26 19:39:19.697,994.30,994.30,-0.23,-0.64,0.00,1.07,0.22,9.28,0.00,0.00,0.00,0.00
2026-06-26 19:39:19.699,994.30,994.30,-0.23,-0.64,0.00,1.07,0.22,9.28,0.00,0.00,0.00,0.00
2026-06-26 19:39:19.701,994.30,994.30,-0.23,-0.64,0.00,1.07,0.22,9.28,0.00,-0.00,-0.00,0.00
2026-06-26 19:39:19.703,994.30,994.30,-0.23,-0.64,0.00,1.06,0.23,9.26,0.00,-0.00,-0.00,0.00
2026-06-26 19:39:19.704,994.30,994.30,-0.23,-0.64,0.00,1.06,0.23,9.26,0.00,-0.00,-0.00,0.00
2026-06-26 19:39:19.705,994.30,994.30,-0.23,-0.64,0.00,1.06,0.23,9.26,0.00,-0.00,-0.00,0.00
2026-06-26 19:39:19.709,994.30,994.30,-0.23,-0.64,0.00,1.06,0.23,9.26,0.00,-0.00,-0.00,0.00
2026-06-26 19:39:19.851,994.30,994.30,-0.22,-0.61,0.00,1.08,0.22,9.27,0.00,-0.00,-0.00,0.00
2026-06-26 19:39:19.852,994.30,994.30,-0.22,-0.61,0.00,1.06,0.25,9.27,-0.00,0.00,0.00,0.00
2026-06-26 19:39:19.854,994.30,994.30,-0.22,-0.61,0.00,1.06,0.25,9.27,-0.00,0.00,0.00,0.00
2026-06-26 19:39:19.855,994.30,994.30,-0.22,-0.61,0.00,1.06,0.25,9.27,-0.00,0.00,0.00,0.00
2026-06-26 19:39:19.861,994.30,994.30,-0.22,-0.61,0.00,1.06,0.25,9.27,-0.00,0.00,0.00,0.00
2026-06-26 19:39:19.863,994.30,994.30,-0.22,-0.61,0.00,1.05,0.24,9.27,0.00,-0.00,0.00,0.00
2026-06-26 19:39:19.865,994.30,994.30,-0.22,-0.61,0.00,1.05,0.24,9.27,0.00,-0.00,0.00,0.00
2026-06-26 19:39:19.870,994.30,994.30,-0.22,-0.61,0.00,1.05,0.24,9.27,0.00,-0.00,0.00,0.00
2026-06-26 19:39:19.873,994.30,994.30,-0.22,-0.61,0.00,1.03,0.22,9.27,0.00,-0.00,0.00,0.00
2026-06-26 19:39:19.874,994.30,994.30,-0.22,-0.61,0.00,1.03,0.22,9.27,0.00,-0.00,0.00,0.00
2026-06-26 19:39:19.875,994.30,994.30,-0.22,-0.61,0.00,1.03,0.22,9.27,0.00,-0.00,0.00,0.00
2026-06-26 19:39:19.877,994.30,994.30,-0.22,-0.61,0.00,1.03,0.22,9.27,0.00,-0.00,0.00,0.00
2026-06-26 19:39:19.882,994.30,994.30,-0.22,-0.61,0.00,1.03,0.22,9.27,0.00,-0.00,0.00,0.00
2026-06-26 19:39:19.883,994.30,994.30,-0.22,-0.61,0.00,1.06,0.22,9.30,0.00,0.00,0.00,0.00
2026-06-26 19:39:19.884,994.30,994.30,-0.22,-0.61,0.00,1.06,0.22,9.30,0.00,0.00,0.00,0.00
2026-06-26 19:39:20.025,994.30,994.31,0.11,0.44,0.00,1.05,0.22,9.30,0.00,0.00,-0.00,0.00
2026-06-26 19:39:20.029,994.30,994.31,0.11,0.44,0.00,1.09,0.21,9.28,0.00,0.00,-0.00,0.00
2026-06-26 19:39:20.033,994.30,994.31,0.11,0.44,0.00,1.09,0.21,9.28,0.00,0.00,0.00,0.00
2026-06-26 19:39:20.034,994.30,994.31,0.11,0.44,0.00,1.06,0.23,9.27,0.00,0.00,0.00,0.00
2026-06-26 19:39:20.038,994.30,994.31,0.11,0.44,0.00,1.06,0.23,9.27,0.00,0.00,0.00,0.00
2026-06-26 19:39:20.042,994.30,994.31,0.11,0.44,0.00,1.06,0.23,9.27,-0.00,0.00,0.00,0.00
2026-06-26 19:39:20.044,994.30,994.31,0.11,0.44,0.00,1.07,0.24,9.27,-0.00,0.00,0.00,0.00
2026-06-26 19:39:20.045,994.30,994.31,0.11,0.44,0.00,1.07,0.24,9.27,-0.00,0.00,0.00,0.00
2026-06-26 19:39:20.046,994.30,994.31,0.11,0.44,0.00,1.07,0.24,9.27,-0.00,0.00,0.00,0.00
2026-06-26 19:39:20.047,994.30,994.31,0.11,0.44,0.00,1.07,0.24,9.27,-0.00,0.00,0.00,0.00
2026-06-26 19:39:20.049,994.30,994.31,0.11,0.44,0.00,1.07,0.24,9.27,-0.00,0.00,0.00,0.00
2026-06-26 19:39:20.050,994.30,994.31,0.11,0.44,0.00,1.07,0.24,9.27,-0.00,0.00,0.00,0.00
2026-06-26 19:39:20.052,994.30,994.31,0.11,0.44,0.00,1.07,0.24,9.27,0.00,0.00,-0.00,0.00
2026-06-26 19:39:20.054,994.30,994.31,0.11,0.44,0.00,1.05,0.23,9.26,0.00,0.00,-0.00,0.00
2026-06-26 19:39:20.055,994.30,994.31,0.11,0.44,0.00,1.05,0.23,9.26,0.00,0.00,-0.00,0.00
2026-06-26 19:39:20.056,994.30,994.31,0.11,0.44,0.00,1.05,0.23,9.26,0.00,0.00,-0.00,0.00
2026-06-26 19:39:20.060,994.30,994.31,0.11,0.44,0.00,1.05,0.23,9.26,0.00,0.00,-0.00,0.00
2026-06-26 19:39:20.202,994.31,994.31,-0.25,-0.66,0.00,1.06,0.25,9.27,0.00,-0.00,0.00,0.00
2026-06-26 19:39:20.204,994.31,994.31,-0.25,-0.66,0.00,1.06,0.22,9.27,0.00,-0.00,0.00,0.00
2026-06-26 19:39:20.205,994.31,994.31,-0.25,-0.66,0.00,1.06,0.22,9.27,0.00,-0.00,0.00,0.00
2026-06-26 19:39:20.206,994.31,994.31,-0.25,-0.66,0.00,1.06,0.22,9.27,0.00,-0.00,0.00,0.00
2026-06-26 19:39:20.210,994.31,994.31,-0.25,-0.66,0.00,1.06,0.22,9.27,0.00,-0.00,0.00,0.00
2026-06-26 19:39:20.213,994.31,994.31,-0.25,-0.66,0.00,1.06,0.22,9.27,-0.00,0.00,0.00,0.00
2026-06-26 19:39:20.214,994.31,994.31,-0.25,-0.66,0.00,1.05,0.23,9.28,-0.00,0.00,0.00,0.00
2026-06-26 19:39:20.215,994.31,994.31,-0.25,-0.66,0.00,1.05,0.23,9.28,-0.00,0.00,0.00,0.00
2026-06-26 19:39:20.216,994.31,994.31,-0.25,-0.66,0.00,1.05,0.23,9.28,-0.00,0.00,0.00,0.00
2026-06-26 19:39:20.221,994.31,994.31,-0.25,-0.66,0.00,1.05,0.23,9.28,-0.00,0.00,0.00,0.00
2026-06-26 19:39:20.223,994.31,994.31,-0.25,-0.66,0.00,1.05,0.23,9.28,0.00,-0.00,0.00,0.00
2026-06-26 19:39:20.224,994.31,994.31,-0.25,-0.66,0.00,1.07,0.23,9.25,0.00,-0.00,0.00,0.00
2026-06-26 19:39:20.225,994.31,994.31,-0.25,-0.66,0.00,1.07,0.23,9.25,0.00,-0.00,0.00,0.00
2026-06-26 19:39:20.226,994.31,994.31,-0.25,-0.66,0.00,1.07,0.23,9.25,0.00,-0.00,0.00,0.00
2026-06-26 19:39:20.231,994.31,994.31,-0.25,-0.66,0.00,1.07,0.23,9.25,0.00,-0.00,0.00,0.00
2026-06-26 19:39:20.233,994.31,994.31,-0.25,-0.66,0.00,1.06,0.23,9.26,0.00,-0.00,0.00,0.00
2026-06-26 19:39:20.234,994.31,994.31,-0.25,-0.66,0.00,1.06,0.23,9.26,0.00,-0.00,0.00,0.00
2026-06-26 19:39:20.235,994.31,994.31,-0.25,-0.66,0.00,1.06,0.23,9.26,0.00,-0.00,0.00,0.00
2026-06-26 19:39:20.237,994.31,994.31,-0.25,-0.66,0.00,1.06,0.23,9.26,0.00,-0.00,0.00,0.00
2026-06-26 19:39:20.374,994.31,994.31,-0.43,-0.86,0.00,1.06,0.24,9.28,-0.00,0.00,-0.00,0.00
2026-06-26 19:39:20.376,994.31,994.31,-0.43,-0.86,0.00,1.06,0.22,9.23,-0.00,0.00,-0.00,0.00
2026-06-26 19:39:20.379,994.31,994.31,-0.43,-0.86,0.00,1.06,0.22,9.23,-0.00,0.00,-0.00,0.00
2026-06-26 19:39:20.383,994.31,994.31,-0.43,-0.86,0.00,1.06,0.22,9.23,0.00,0.00,-0.00,0.00
2026-06-26 19:39:20.384,994.31,994.31,-0.43,-0.86,0.00,1.05,0.25,9.26,0.00,0.00,-0.00,0.00
2026-06-26 19:39:20.385,994.31,994.31,-0.43,-0.86,0.00,1.05,0.25,9.26,0.00,0.00,-0.00,0.00
2026-06-26 19:39:20.387,994.31,994.31,-0.43,-0.86,0.00,1.05,0.25,9.26,0.00,0.00,-0.00,0.00
2026-06-26 19:39:20.390,994.31,994.31,-0.43,-0.86,0.00,1.05,0.25,9.26,0.00,0.00,-0.00,0.00
2026-06-26 19:39:20.393,994.31,994.31,-0.43,-0.86,0.00,1.05,0.25,9.26,0.00,0.00,-0.00,0.00
2026-06-26 19:39:20.394,994.31,994.31,-0.43,-0.86,0.00,1.06,0.24,9.27,0.00,0.00,-0.00,0.00
2026-06-26 19:39:20.396,994.31,994.31,-0.43,-0.86,0.00,1.06,0.24,9.27,0.00,0.00,-0.00,0.00
2026-06-26 19:39:20.397,994.31,994.31,-0.43,-0.86,0.00,1.06,0.24,9.27,0.00,0.00,-0.00,0.00
2026-06-26 19:39:20.398,994.31,994.31,-0.43,-0.86,0.00,1.06,0.24,9.27,0.00,0.00,-0.00,0.00
2026-06-26 19:39:20.399,994.31,994.31,-0.43,-0.86,0.00,1.06,0.24,9.27,0.00,0.00,-0.00,0.00
2026-06-26 19:39:20.401,994.31,994.31,-0.43,-0.86,0.00,1.06,0.24,9.27,0.00,0.00,-0.00,0.00
2026-06-26 19:39:20.403,994.31,994.31,-0.43,-0.86,0.00,1.06,0.22,9.30,-0.00,0.00,-0.00,0.00
2026-06-26 19:39:20.405,994.31,994.31,-0.43,-0.86,0.00,1.06,0.22,9.30,-0.00,0.00,-0.00,0.00
2026-06-26 19:39:20.406,994.31,994.31,-0.43,-0.86,0.00,1.06,0.22,9.30,-0.00,0.00,-0.00,0.00
2026-06-26 19:39:20.407,994.31,994.31,-0.43,-0.86,0.00,1.06,0.22,9.30,-0.00,0.00,-0.00,0.00
2026-06-26 19:39:20.412,994.31,994.31,-0.43,-0.86,0.00,1.06,0.22,9.30,-0.00,0.00,-0.00,0.00
2026-06-26 19:39:20.554,994.31,994.31,-0.53,-0.96,0.00,1.06,0.22,9.28,-0.00,-0.00,-0.00,0.00
2026-06-26 19:39:20.555,994.31,994.31,-0.53,-0.96,0.00,1.06,0.22,9.28,-0.00,-0.00,-0.00,0.00
2026-06-26 19:39:20.556,994.31,994.31,-0.53,-0.96,0.00,1.06,0.22,9.28,-0.00,-0.00,-0.00,0.00
2026-06-26 19:39:20.558,994.31,994.31,-0.53,-0.96,0.00,1.06,0.22,9.28,-0.00,-0.00,-0.00,0.00
2026-06-26 19:39:20.563,994.31,994.31,-0.53,-0.96,0.00,1.06,0.22,9.28,-0.00,-0.00,-0.00,0.00
2026-06-26 19:39:20.564,994.31,994.31,-0.53,-0.96,0.00,1.04,0.24,9.27,0.00,-0.00,0.00,0.00
2026-06-26 19:39:20.565,994.31,994.31,-0.53,-0.96,0.00,1.04,0.24,9.27,0.00,-0.00,0.00,0.00
2026-06-26 19:39:20.567,994.31,994.31,-0.53,-0.96,0.00,1.04,0.24,9.27,0.00,-0.00,0.00,0.00
2026-06-26 19:39:20.568,994.31,994.31,-0.53,-0.96,0.00,1.04,0.24,9.27,0.00,-0.00,0.00,0.00
2026-06-26 19:39:20.573,994.31,994.31,-0.53,-0.96,0.00,1.04,0.24,9.27,0.00,-0.00,0.00,0.00
2026-06-26 19:39:20.574,994.31,994.31,-0.53,-0.96,0.00,1.05,0.24,9.27,-0.00,-0.00,0.00,0.00
2026-06-26 19:39:20.575,994.31,994.31,-0.53,-0.96,0.00,1.05,0.24,9.27,-0.00,-0.00,0.00,0.00
2026-06-26 19:39:20.577,994.31,994.31,-0.53,-0.96,0.00,1.05,0.24,9.27,-0.00,-0.00,0.00,0.00
2026-06-26 19:39:20.578,994.31,994.31,-0.53,-0.96,0.00,1.05,0.24,9.27,-0.00,-0.00,0.00,0.00
2026-06-26 19:39:20.582,994.31,994.31,-0.53,-0.96,0.00,1.05,0.24,9.27,-0.00,-0.00,0.00,0.00
2026-06-26 19:39:20.584,994.31,994.31,-0.53,-0.96,0.00,1.06,0.23,9.25,0.00,-0.00,0.00,0.00
2026-06-26 19:39:20.585,994.31,994.31,-0.53,-0.96,0.00,1.06,0.23,9.25,0.00,-0.00,0.00,0.00
2026-06-26 19:39:20.587,994.31,994.31,-0.53,-0.96,0.00,1.06,0.23,9.25,0.00,-0.00,0.00,0.00
2026-06-26 19:39:20.727,994.31,994.31,-0.67,-1.09,0.00,1.04,0.25,9.25,-0.00,0.00,0.00,0.00
2026-06-26 19:39:20.732,994.31,994.31,-0.67,-1.09,0.00,1.04,0.25,9.25,-0.00,0.00,0.00,0.00
2026-06-26 19:39:20.734,994.31,994.31,-0.67,-1.09,0.00,1.05,0.24,9.25,0.00,0.00,0.00,0.00
2026-06-26 19:39:20.735,994.31,994.31,-0.67,-1.09,0.00,1.05,0.24,9.25,0.00,0.00,0.00,0.00
2026-06-26 19:39:20.736,994.31,994.31,-0.67,-1.09,0.00,1.05,0.24,9.25,0.00,0.00,0.00,0.00
2026-06-26 19:39:20.738,994.31,994.31,-0.67,-1.09,0.00,1.05,0.24,9.25,0.00,0.00,0.00,0.00
2026-06-26 19:39:20.743,994.31,994.31,-0.67,-1.09,0.00,1.05,0.24,9.25,0.00,0.00,0.00,0.00
2026-06-26 19:39:20.744,994.31,994.31,-0.67,-1.09,0.00,1.06,0.22,9.23,-0.00,-0.00,-0.00,0.00
2026-06-26 19:39:20.747,994.31,994.31,-0.67,-1.09,0.00,1.06,0.22,9.23,-0.00,-0.00,-0.00,0.00
2026-06-26 19:39:20.748,994.31,994.31,-0.67,-1.09,0.00,1.06,0.22,9.23,-0.00,-0.00,-0.00,0.00
2026-06-26 19:39:20.750,994.31,994.31,-0.67,-1.09,0.00,1.06,0.22,9.23,-0.00,-0.00,-0.00,0.00
2026-06-26 19:39:20.751,994.31,994.31,-0.67,-1.09,0.00,1.06,0.22,9.23,-0.00,-0.00,-0.00,0.00
2026-06-26 19:39:20.754,994.31,994.31,-0.67,-1.09,0.00,1.06,0.22,9.23,0.00,0.00,0.00,0.00
2026-06-26 19:39:20.755,994.31,994.31,-0.67,-1.09,0.00,1.06,0.23,9.27,0.00,0.00,0.00,0.00
2026-06-26 19:39:20.756,994.31,994.31,-0.67,-1.09,0.00,1.06,0.23,9.27,0.00,0.00,0.00,0.00
2026-06-26 19:39:20.757,994.31,994.31,-0.67,-1.09,0.00,1.06,0.23,9.27,0.00,0.00,0.00,0.00
2026-06-26 19:39:20.762,994.31,994.31,-0.67,-1.09,0.00,1.06,0.23,9.27,0.00,0.00,0.00,0.00
2026-06-26 19:39:20.904,994.32,994.31,-0.80,-1.19,0.00,1.08,0.22,9.27,0.00,-0.00,-0.00,0.00
2026-06-26 19:39:20.905,994.32,994.31,-0.80,-1.19,0.00,1.06,0.24,9.27,0.00,-0.00,-0.00,0.00
2026-06-26 19:39:20.906,994.32,994.31,-0.80,-1.19,0.00,1.06,0.24,9.27,0.00,-0.00,-0.00,0.00
2026-06-26 19:39:20.908,994.32,994.31,-0.80,-1.19,0.00,1.06,0.24,9.27,0.00,-0.00,-0.00,0.00
2026-06-26 19:39:20.911,994.32,994.31,-0.80,-1.19,0.00,1.06,0.24,9.27,0.00,-0.00,-0.00,0.00
2026-06-26 19:39:20.914,994.32,994.31,-0.80,-1.19,0.00,1.06,0.24,9.27,-0.00,-0.00,-0.00,0.00
2026-06-26 19:39:20.915,994.32,994.31,-0.80,-1.19,0.00,1.05,0.23,9.30,-0.00,-0.00,-0.00,0.00
2026-06-26 19:39:20.918,994.32,994.31,-0.80,-1.19,0.00,1.05,0.23,9.30,-0.00,-0.00,-0.00,0.00
2026-06-26 19:39:20.924,994.32,994.31,-0.80,-1.19,0.00,1.05,0.23,9.30,-0.00,-0.00,-0.00,0.00
2026-06-26 19:39:20.925,994.32,994.31,-0.80,-1.19,0.00,1.06,0.23,9.25,-0.00,0.00,-0.00,0.00
2026-06-26 19:39:20.926,994.32,994.31,-0.80,-1.19,0.00,1.06,0.23,9.25,-0.00,0.00,-0.00,0.00
2026-06-26 19:39:20.928,994.32,994.31,-0.80,-1.19,0.00,1.06,0.23,9.25,-0.00,0.00,-0.00,0.00
2026-06-26 19:39:20.933,994.32,994.31,-0.80,-1.19,0.00,1.06,0.23,9.25,-0.00,0.00,-0.00,0.00
2026-06-26 19:39:20.935,994.32,994.31,-0.80,-1.19,0.00,1.04,0.25,9.27,0.00,0.00,-0.00,0.00
2026-06-26 19:39:20.936,994.32,994.31,-0.80,-1.19,0.00,1.04,0.25,9.27,0.00,0.00,-0.00,0.00
2026-06-26 19:39:20.937,994.32,994.31,-0.80,-1.19,0.00,1.04,0.25,9.27,0.00,0.00,-0.00,0.00
2026-06-26 19:39:21.077,994.32,994.31,-0.96,-1.30,0.00,1.07,0.25,9.28,0.00,0.00,0.00,0.00
2026-06-26 19:39:21.078,994.32,994.31,-0.96,-1.30,0.00,1.07,0.25,9.28,0.00,0.00,0.00,0.00
2026-06-26 19:39:21.084,994.32,994.31,-0.96,-1.30,0.00,1.07,0.25,9.28,0.00,0.00,0.00,0.00
2026-06-26 19:39:21.085,994.32,994.31,-0.96,-1.30,0.00,1.07,0.22,9.27,0.00,0.00,0.00,0.00
2026-06-26 19:39:21.086,994.32,994.31,-0.96,-1.30,0.00,1.07,0.22,9.27,0.00,0.00,0.00,0.00
2026-06-26 19:39:21.090,994.32,994.31,-0.96,-1.30,0.00,1.07,0.22,9.27,0.00,0.00,0.00,0.00
2026-06-26 19:39:21.095,994.32,994.31,-0.96,-1.30,0.00,1.07,0.22,9.27,0.00,0.00,0.00,0.00
2026-06-26 19:39:21.097,994.32,994.31,-0.96,-1.30,0.00,1.05,0.23,9.27,0.00,0.00,0.00,0.00
2026-06-26 19:39:21.099,994.32,994.31,-0.96,-1.30,0.00,1.05,0.23,9.27,0.00,0.00,0.00,0.00
2026-06-26 19:39:21.101,994.32,994.31,-0.96,-1.30,0.00,1.05,0.23,9.27,0.00,0.00,0.00,0.00
2026-06-26 19:39:21.104,994.32,994.31,-0.96,-1.30,0.00,1.05,0.23,9.27,0.00,0.00,0.00,0.00
2026-06-26 19:39:21.105,994.32,994.31,-0.96,-1.30,0.00,1.07,0.22,9.29,0.00,0.00,-0.00,0.00
2026-06-26 19:39:21.108,994.32,994.31,-0.96,-1.30,0.00,1.07,0.22,9.29,0.00,0.00,-0.00,0.00
2026-06-26 19:39:21.112,994.32,994.31,-0.96,-1.30,0.00,1.07,0.22,9.29,0.00,0.00,-0.00,0.00
2026-06-26 19:39:21.251,994.32,994.31,-0.71,-1.12,0.00,1.04,0.23,9.31,0.00,-0.00,0.00,0.00
2026-06-26 19:39:21.255,994.32,994.31,-0.71,-1.12,0.00,1.04,0.23,9.31,0.00,-0.00,-0.00,0.00
2026-06-26 19:39:21.256,994.32,994.31,-0.71,-1.12,0.00,1.08,0.25,9.28,0.00,-0.00,-0.00,0.00
2026-06-26 19:39:21.258,994.32,994.31,-0.71,-1.12,0.00,1.08,0.25,9.28,0.00,-0.00,-0.00,0.00
2026-06-26 19:39:21.259,994.32,994.31,-0.71,-1.12,0.00,1.08,0.25,9.28,0.00,-0.00,-0.00,0.00
2026-06-26 19:39:21.264,994.32,994.31,-0.71,-1.12,0.00,1.08,0.25,9.28,0.00,-0.00,-0.00,0.00
2026-06-26 19:39:21.265,994.32,994.31,-0.71,-1.12,0.00,1.06,0.22,9.29,0.00,0.00,-0.00,0.00
2026-06-26 19:39:21.267,994.32,994.31,-0.71,-1.12,0.00,1.06,0.22,9.29,0.00,0.00,-0.00,0.00
2026-06-26 19:39:21.268,994.32,994.31,-0.71,-1.12,0.00,1.06,0.22,9.29,0.00,0.00,-0.00,0.00
2026-06-26 19:39:21.269,994.32,994.31,-0.71,-1.12,0.00,1.06,0.22,9.29,0.00,0.00,-0.00,0.00
2026-06-26 19:39:21.274,994.32,994.31,-0.71,-1.12,0.00,1.06,0.22,9.29,0.00,0.00,-0.00,0.00
2026-06-26 19:39:21.275,994.32,994.31,-0.71,-1.12,0.00,1.06,0.24,9.27,0.00,0.00,-0.00,0.00
2026-06-26 19:39:21.277,994.32,994.31,-0.71,-1.12,0.00,1.06,0.24,9.27,0.00,0.00,-0.00,0.00
2026-06-26 19:39:21.278,994.32,994.31,-0.71,-1.12,0.00,1.06,0.24,9.27,0.00,0.00,-0.00,0.00
2026-06-26 19:39:21.279,994.32,994.31,-0.71,-1.12,0.00,1.06,0.24,9.27,0.00,0.00,-0.00,0.00
2026-06-26 19:39:21.283,994.32,994.31,-0.71,-1.12,0.00,1.06,0.24,9.27,0.00,0.00,-0.00,0.00
2026-06-26 19:39:21.285,994.32,994.31,-0.71,-1.12,0.00,1.06,0.24,9.27,-0.00,0.00,-0.00,0.00
2026-06-26 19:39:21.286,994.32,994.31,-0.71,-1.12,0.00,1.04,0.23,9.28,-0.00,0.00,-0.00,0.00
2026-06-26 19:39:21.425,994.32,994.31,-0.91,-1.27,0.00,1.09,0.24,9.27,0.00,0.00,0.00,0.00
2026-06-26 19:39:21.427,994.32,994.31,-0.91,-1.27,0.00,1.05,0.24,9.26,0.00,0.00,0.00,0.00
2026-06-26 19:39:21.429,994.32,994.31,-0.91,-1.27,0.00,1.05,0.24,9.26,0.00,0.00,0.00,0.00
2026-06-26 19:39:21.435,994.32,994.31,-0.91,-1.27,0.00,1.05,0.24,9.26,0.00,0.00,0.00,0.00
2026-06-26 19:39:21.437,994.32,994.31,-0.91,-1.27,0.00,1.05,0.22,9.29,0.00,-0.00,0.00,0.00
2026-06-26 19:39:21.439,994.32,994.31,-0.91,-1.27,0.00,1.05,0.22,9.29,0.00,-0.00,0.00,0.00
2026-06-26 19:39:21.444,994.32,994.31,-0.91,-1.27,0.00,1.05,0.22,9.29,0.00,-0.00,0.00,0.00
2026-06-26 19:39:21.446,994.32,994.31,-0.91,-1.27,0.00,1.06,0.24,9.30,0.00,0.00,0.00,0.00
2026-06-26 19:39:21.448,994.32,994.31,-0.91,-1.27,0.00,1.06,0.24,9.30,0.00,0.00,0.00,0.00
2026-06-26 19:39:21.450,994.32,994.31,-0.91,-1.27,0.00,1.06,0.24,9.30,0.00,0.00,0.00,0.00
2026-06-26 19:39:21.451,994.32,994.31,-0.91,-1.27,0.00,1.06,0.24,9.30,0.00,0.00,0.00,0.00
2026-06-26 19:39:21.452,994.32,994.31,-0.91,-1.27,0.00,1.06,0.24,9.30,0.00,0.00,0.00,0.00
2026-06-26 19:39:21.455,994.32,994.31,-0.91,-1.27,0.00,1.06,0.24,9.30,-0.00,-0.00,0.00,0.00
2026-06-26 19:39:21.456,994.32,994.31,-0.91,-1.27,0.00,1.07,0.22,9.30,-0.00,-0.00,0.00,0.00
2026-06-26 19:39:21.458,994.32,994.31,-0.91,-1.27,0.00,1.07,0.22,9.30,-0.00,-0.00,0.00,0.00
2026-06-26 19:39:21.459,994.32,994.31,-0.91,-1.27,0.00,1.07,0.22,9.30,-0.00,-0.00,0.00,0.00
2026-06-26 19:39:21.462,994.32,994.31,-0.91,-1.27,0.00,1.07,0.22,9.30,-0.00,-0.00,0.00,0.00
2026-06-26 19:39:21.602,994.32,994.31,-1.14,-1.41,0.00,1.08,0.22,9.28,0.00,0.00,0.00,0.00
2026-06-26 19:39:21.605,994.32,994.31,-1.14,-1.41,0.00,1.08,0.22,9.28,-0.00,-0.00,-0.00,0.00
2026-06-26 19:39:21.607,994.32,994.31,-1.14,-1.41,0.00,1.06,0.23,9.27,-0.00,-0.00,-0.00,0.00
2026-06-26 19:39:21.608,994.32,994.31,-1.14,-1.41,0.00,1.06,0.23,9.27,-0.00,-0.00,-0.00,0.00
2026-06-26 19:39:21.609,994.32,994.31,-1.14,-1.41,0.00,1.06,0.23,9.27,-0.00,-0.00,-0.00,0.00
2026-06-26 19:39:21.613,994.32,994.31,-1.14,-1.41,0.00,1.06,0.23,9.27,-0.00,-0.00,-0.00,0.00
2026-06-26 19:39:21.616,994.32,994.31,-1.14,-1.41,0.00,1.06,0.23,9.27,-0.00,-0.00,0.00,0.00
2026-06-26 19:39:21.617,994.32,994.31,-1.14,-1.41,0.00,1.07,0.24,9.28,-0.00,-0.00,0.00,0.00
2026-06-26 19:39:21.618,994.32,994.31,-1.14,-1.41,0.00,1.07,0.24,9.28,-0.00,-0.00,0.00,0.00
2026-06-26 19:39:21.619,994.32,994.31,-1.14,-1.41,0.00,1.07,0.24,9.28,-0.00,-0.00,0.00,0.00
2026-06-26 19:39:21.625,994.32,994.31,-1.14,-1.41,0.00,1.07,0.24,9.28,-0.00,-0.00,0.00,0.00
2026-06-26 19:39:21.626,994.32,994.31,-1.14,-1.41,0.00,1.06,0.25,9.26,0.00,0.00,-0.00,0.00
2026-06-26 19:39:21.628,994.32,994.31,-1.14,-1.41,0.00,1.06,0.25,9.26,0.00,0.00,-0.00,0.00
2026-06-26 19:39:21.629,994.32,994.31,-1.14,-1.41,0.00,1.06,0.25,9.26,0.00,0.00,-0.00,0.00
2026-06-26 19:39:21.635,994.32,994.31,-1.14,-1.41,0.00,1.06,0.25,9.26,0.00,0.00,-0.00,0.00
2026-06-26 19:39:21.637,994.32,994.31,-1.14,-1.41,0.00,1.05,0.24,9.28,0.00,0.00,0.00,0.00
2026-06-26 19:39:21.639,994.32,994.31,-1.14,-1.41,0.00,1.05,0.24,9.28,0.00,0.00,0.00,0.00
2026-06-26 19:39:21.786,994.32,994.30,-1.44,-1.59,0.00,1.08,0.26,9.26,0.00,0.00,0.00,0.00
2026-06-26 19:39:21.787,994.32,994.30,-1.44,-1.59,0.00,1.06,0.23,9.27,0.00,0.00,0.00,0.00
2026-06-26 19:39:21.788,994.32,994.30,-1.44,-1.59,0.00,1.06,0.23,9.27,0.00,0.00,0.00,0.00
2026-06-26 19:39:21.790,994.32,994.30,-1.44,-1.59,0.00,1.06,0.23,9.27,0.00,0.00,0.00,0.00
2026-06-26 19:39:21.793,994.32,994.30,-1.44,-1.59,0.00,1.06,0.23,9.27,0.00,0.00,0.00,0.00
2026-06-26 19:39:21.796,994.32,994.30,-1.44,-1.59,0.00,1.06,0.23,9.27,0.00,0.00,-0.00,0.00
2026-06-26 19:39:21.798,994.32,994.30,-1.44,-1.59,0.00,1.07,0.24,9.29,0.00,0.00,-0.00,0.00
2026-06-26 19:39:21.800,994.32,994.30,-1.44,-1.59,0.00,1.07,0.24,9.29,0.00,0.00,-0.00,0.00
2026-06-26 19:39:21.802,994.32,994.30,-1.44,-1.59,0.00,1.07,0.24,9.29,0.00,0.00,-0.00,0.00
2026-06-26 19:39:21.805,994.32,994.30,-1.44,-1.59,0.00,1.07,0.24,9.29,0.00,0.00,-0.00,0.00
2026-06-26 19:39:21.807,994.32,994.30,-1.44,-1.59,0.00,1.06,0.22,9.28,0.00,0.00,0.00,0.00
2026-06-26 19:39:21.808,994.32,994.30,-1.44,-1.59,0.00,1.06,0.22,9.28,0.00,0.00,0.00,0.00
2026-06-26 19:39:21.810,994.32,994.30,-1.44,-1.59,0.00,1.06,0.22,9.28,0.00,0.00,0.00,0.00
2026-06-26 19:39:21.815,994.32,994.30,-1.44,-1.59,0.00,1.06,0.22,9.28,0.00,0.00,0.00,0.00
2026-06-26 19:39:21.817,994.32,994.30,-1.44,-1.59,0.00,1.05,0.25,9.28,0.00,0.00,-0.00,0.00
2026-06-26 19:39:21.959,994.32,994.30,-1.80,-1.78,0.00,1.08,0.25,9.28,0.00,0.00,-0.00,0.00
2026-06-26 19:39:21.960,994.32,994.30,-1.80,-1.78,0.00,1.08,0.25,9.28,0.00,0.00,-0.00,0.00
2026-06-26 19:39:21.967,994.32,994.30,-1.80,-1.78,0.00,1.08,0.25,9.28,0.00,0.00,-0.00,0.00
2026-06-26 19:39:21.968,994.32,994.30,-1.80,-1.78,0.00,1.06,0.21,9.28,0.00,0.00,0.00,0.00
2026-06-26 19:39:21.970,994.32,994.30,-1.80,-1.78,0.00,1.06,0.21,9.28,0.00,0.00,0.00,0.00
2026-06-26 19:39:21.975,994.32,994.30,-1.80,-1.78,0.00,1.06,0.21,9.28,0.00,0.00,0.00,0.00
2026-06-26 19:39:21.977,994.32,994.30,-1.80,-1.78,0.00,1.07,0.23,9.27,-0.00,0.00,-0.00,0.00
2026-06-26 19:39:21.978,994.32,994.30,-1.80,-1.78,0.00,1.07,0.23,9.27,-0.00,0.00,-0.00,0.00
2026-06-26 19:39:21.979,994.32,994.30,-1.80,-1.78,0.00,1.07,0.23,9.27,-0.00,0.00,-0.00,0.00
2026-06-26 19:39:21.980,994.32,994.30,-1.80,-1.78,0.00,1.07,0.23,9.27,-0.00,0.00,-0.00,0.00
2026-06-26 19:39:21.982,994.32,994.30,-1.80,-1.78,0.00,1.07,0.23,9.27,-0.00,0.00,-0.00,0.00
2026-06-26 19:39:21.986,994.32,994.30,-1.80,-1.78,0.00,1.07,0.23,9.27,0.00,-0.00,0.00,0.00
2026-06-26 19:39:21.987,994.32,994.30,-1.80,-1.78,0.00,1.06,0.24,9.27,0.00,-0.00,0.00,0.00
2026-06-26 19:39:21.989,994.32,994.30,-1.80,-1.78,0.00,1.06,0.24,9.27,0.00,-0.00,0.00,0.00
2026-06-26 19:39:21.990,994.32,994.30,-1.80,-1.78,0.00,1.06,0.24,9.27,0.00,-0.00,0.00,0.00
2026-06-26 19:39:21.993,994.32,994.30,-1.80,-1.78,0.00,1.06,0.24,9.27,0.00,-0.00,0.00,0.00
2026-06-26 19:39:22.133,994.32,994.30,-1.88,-1.82,0.00,1.06,0.24,9.25,0.00,0.00,-0.00,0.00
2026-06-26 19:39:22.137,994.32,994.30,-1.88,-1.82,0.00,1.06,0.24,9.25,0.00,-0.00,0.00,0.00
2026-06-26 19:39:22.138,994.32,994.30,-1.88,-1.82,0.00,1.08,0.24,9.27,0.00,-0.00,0.00,0.00
2026-06-26 19:39:22.139,994.32,994.30,-1.88,-1.82,0.00,1.08,0.24,9.27,0.00,-0.00,0.00,0.00
2026-06-26 19:39:22.140,994.32,994.30,-1.88,-1.82,0.00,1.08,0.24,9.27,0.00,-0.00,0.00,0.00
2026-06-26 19:39:22.146,994.32,994.30,-1.88,-1.82,0.00,1.08,0.24,9.27,0.00,-0.00,0.00,0.00
2026-06-26 19:39:22.147,994.32,994.30,-1.88,-1.82,0.00,1.07,0.22,9.29,0.00,-0.00,0.00,0.00
2026-06-26 19:39:22.149,994.32,994.30,-1.88,-1.82,0.00,1.07,0.22,9.29,0.00,-0.00,0.00,0.00
2026-06-26 19:39:22.150,994.32,994.30,-1.88,-1.82,0.00,1.07,0.22,9.29,0.00,-0.00,0.00,0.00
2026-06-26 19:39:22.151,994.32,994.30,-1.88,-1.82,0.00,1.07,0.22,9.29,0.00,-0.00,0.00,0.00
2026-06-26 19:39:22.152,994.32,994.30,-1.88,-1.82,0.00,1.07,0.22,9.29,0.00,-0.00,0.00,0.00
2026-06-26 19:39:22.153,994.32,994.30,-1.88,-1.82,0.00,1.07,0.22,9.29,0.00,-0.00,0.00,0.00
2026-06-26 19:39:22.155,994.32,994.30,-1.88,-1.82,0.00,1.07,0.22,9.29,0.00,-0.00,0.00,0.00
2026-06-26 19:39:22.157,994.32,994.30,-1.88,-1.82,0.00,1.09,0.23,9.27,0.00,-0.00,-0.00,0.00
2026-06-26 19:39:22.163,994.32,994.30,-1.88,-1.82,0.00,1.09,0.23,9.27,0.00,-0.00,-0.00,0.00
2026-06-26 19:39:22.167,994.32,994.30,-1.88,-1.82,0.00,1.09,0.23,9.27,-0.00,0.00,0.00,0.00
2026-06-26 19:39:22.308,994.32,994.30,-1.97,-1.86,0.00,1.08,0.23,9.29,0.00,-0.00,0.00,0.00
2026-06-26 19:39:22.309,994.32,994.30,-1.97,-1.86,0.00,1.08,0.23,9.29,0.00,-0.00,0.00,0.00
2026-06-26 19:39:22.310,994.32,994.30,-1.97,-1.86,0.00,1.08,0.23,9.29,0.00,-0.00,0.00,0.00
2026-06-26 19:39:22.314,994.32,994.30,-1.97,-1.86,0.00,1.08,0.23,9.29,0.00,-0.00,0.00,0.00
2026-06-26 19:39:22.317,994.32,994.30,-1.97,-1.86,0.00,1.08,0.23,9.29,0.00,0.00,0.00,0.00
2026-06-26 19:39:22.318,994.32,994.30,-1.97,-1.86,0.00,1.05,0.22,9.26,0.00,0.00,0.00,0.00
2026-06-26 19:39:22.319,994.32,994.30,-1.97,-1.86,0.00,1.05,0.22,9.26,0.00,0.00,0.00,0.00
2026-06-26 19:39:22.321,994.32,994.30,-1.97,-1.86,0.00,1.05,0.22,9.26,0.00,0.00,0.00,0.00
2026-06-26 19:39:22.324,994.32,994.30,-1.97,-1.86,0.00,1.05,0.22,9.26,0.00,0.00,0.00,0.00
2026-06-26 19:39:22.327,994.32,994.30,-1.97,-1.86,0.00,1.05,0.22,9.26,0.00,-0.00,0.00,0.00
2026-06-26 19:39:22.328,994.32,994.30,-1.97,-1.86,0.00,1.04,0.23,9.23,0.00,-0.00,0.00,0.00
2026-06-26 19:39:22.330,994.32,994.30,-1.97,-1.86,0.00,1.04,0.23,9.23,0.00,-0.00,0.00,0.00
2026-06-26 19:39:22.343,994.32,994.30,-1.97,-1.86,0.00,1.04,0.23,9.23,-0.00,0.00,0.00,0.00
2026-06-26 19:39:22.487,994.32,994.30,-1.64,-1.70,0.00,1.07,0.23,9.27,0.00,-0.00,0.00,0.00
2026-06-26 19:39:22.488,994.32,994.30,-1.64,-1.70,0.00,1.06,0.24,9.24,0.00,0.00,0.00,0.00
2026-06-26 19:39:22.490,994.32,994.30,-1.64,-1.70,0.00,1.06,0.24,9.24,0.00,0.00,0.00,0.00
2026-06-26 19:39:22.491,994.32,994.30,-1.64,-1.70,0.00,1.06,0.24,9.24,0.00,0.00,0.00,0.00
2026-06-26 19:39:22.496,994.32,994.30,-1.64,-1.70,0.00,1.06,0.24,9.24,0.00,0.00,0.00,0.00
2026-06-26 19:39:22.498,994.32,994.30,-1.64,-1.70,0.00,1.05,0.24,9.31,-0.00,0.00,0.00,0.00
2026-06-26 19:39:22.499,994.32,994.30,-1.64,-1.70,0.00,1.05,0.24,9.31,-0.00,0.00,0.00,0.00
2026-06-26 19:39:22.501,994.32,994.30,-1.64,-1.70,0.00,1.05,0.24,9.31,-0.00,0.00,0.00,0.00
2026-06-26 19:39:22.502,994.32,994.30,-1.64,-1.70,0.00,1.05,0.24,9.31,-0.00,0.00,0.00,0.00
2026-06-26 19:39:22.503,994.32,994.30,-1.64,-1.70,0.00,1.05,0.24,9.31,-0.00,0.00,0.00,0.00
2026-06-26 19:39:22.504,994.32,994.30,-1.64,-1.70,0.00,1.05,0.24,9.31,-0.00,0.00,0.00,0.00
2026-06-26 19:39:22.506,994.32,994.30,-1.64,-1.70,0.00,1.05,0.24,9.31,-0.00,0.00,0.00,0.00
2026-06-26 19:39:22.508,994.32,994.30,-1.64,-1.70,0.00,1.04,0.24,9.29,0.00,0.00,-0.00,0.00
2026-06-26 19:39:22.509,994.32,994.30,-1.64,-1.70,0.00,1.04,0.24,9.29,0.00,0.00,-0.00,0.00
2026-06-26 19:39:22.510,994.32,994.30,-1.64,-1.70,0.00,1.04,0.24,9.29,0.00,0.00,-0.00,0.00
2026-06-26 19:39:22.511,994.32,994.30,-1.64,-1.70,0.00,1.04,0.24,9.29,0.00,0.00,-0.00,0.00
2026-06-26 19:39:22.517,994.32,994.30,-1.64,-1.70,0.00,1.04,0.24,9.29,0.00,0.00,-0.00,0.00
2026-06-26 19:39:22.518,994.32,994.30,-1.64,-1.70,0.00,1.05,0.23,9.28,0.00,0.00,-0.00,0.00
2026-06-26 19:39:22.659,994.32,994.30,-1.76,-1.76,0.00,1.04,0.22,9.29,0.00,0.00,0.00,0.00
2026-06-26 19:39:22.664,994.32,994.30,-1.76,-1.76,0.00,1.04,0.22,9.29,0.00,0.00,0.00,0.00
2026-06-26 19:39:22.669,994.32,994.30,-1.76,-1.76,0.00,1.04,0.22,9.29,0.00,-0.00,0.00,0.00
2026-06-26 19:39:22.675,994.32,994.30,-1.76,-1.76,0.00,1.06,0.24,9.27,0.00,-0.00,0.00,0.00
2026-06-26 19:39:22.678,994.32,994.30,-1.76,-1.76,0.00,1.06,0.24,9.27,-0.00,-0.00,0.00,0.00
2026-06-26 19:39:22.679,994.32,994.30,-1.76,-1.76,0.00,1.07,0.24,9.24,-0.00,-0.00,0.00,0.00
2026-06-26 19:39:22.680,994.32,994.30,-1.76,-1.76,0.00,1.07,0.24,9.24,-0.00,-0.00,0.00,0.00
2026-06-26 19:39:22.682,994.32,994.30,-1.76,-1.76,0.00,1.07,0.24,9.24,-0.00,-0.00,0.00,0.00
2026-06-26 19:39:22.683,994.32,994.30,-1.76,-1.76,0.00,1.07,0.24,9.24,-0.00,-0.00,0.00,0.00
2026-06-26 19:39:22.687,994.32,994.30,-1.76,-1.76,0.00,1.07,0.24,9.24,-0.00,-0.00,0.00,0.00
2026-06-26 19:39:22.689,994.32,994.30,-1.76,-1.76,0.00,1.07,0.23,9.26,-0.00,0.00,0.00,0.00
2026-06-26 19:39:22.690,994.32,994.30,-1.76,-1.76,0.00,1.07,0.23,9.26,-0.00,0.00,0.00,0.00
2026-06-26 19:39:22.695,994.32,994.30,-1.76,-1.76,0.00,1.07,0.23,9.26,-0.00,0.00,0.00,0.00
2026-06-26 19:39:22.831,994.32,994.30,-1.75,-1.75,0.00,1.08,0.23,9.28,0.00,0.00,0.00,0.00
2026-06-26 19:39:22.837,994.32,994.30,-1.75,-1.75,0.00,1.08,0.23,9.28,0.00,0.00,0.00,0.00
2026-06-26 19:39:22.838,994.32,994.30,-1.75,-1.75,0.00,1.05,0.23,9.25,-0.00,0.00,0.00,0.00
2026-06-26 19:39:22.840,994.32,994.30,-1.75,-1.75,0.00,1.05,0.23,9.25,-0.00,0.00,0.00,0.00
2026-06-26 19:39:22.841,994.32,994.30,-1.75,-1.75,0.00,1.05,0.23,9.25,-0.00,0.00,0.00,0.00
2026-06-26 19:39:22.845,994.32,994.30,-1.75,-1.75,0.00,1.05,0.23,9.25,-0.00,0.00,0.00,0.00
2026-06-26 19:39:22.848,994.32,994.30,-1.75,-1.75,0.00,1.05,0.23,9.25,-0.00,0.00,0.00,0.00
2026-06-26 19:39:22.850,994.32,994.30,-1.75,-1.75,0.00,1.06,0.23,9.27,-0.00,0.00,0.00,0.00
2026-06-26 19:39:22.851,994.32,994.30,-1.75,-1.75,0.00,1.06,0.23,9.27,-0.00,0.00,0.00,0.00
2026-06-26 19:39:22.852,994.32,994.30,-1.75,-1.75,0.00,1.06,0.23,9.27,-0.00,0.00,0.00,0.00
2026-06-26 19:39:22.853,994.32,994.30,-1.75,-1.75,0.00,1.06,0.23,9.27,-0.00,0.00,0.00,0.00
2026-06-26 19:39:22.855,994.32,994.30,-1.75,-1.75,0.00,1.06,0.23,9.27,-0.00,0.00,0.00,0.00
2026-06-26 19:39:22.856,994.32,994.30,-1.75,-1.75,0.00,1.06,0.23,9.27,-0.00,0.00,0.00,0.00
2026-06-26 19:39:22.858,994.32,994.30,-1.75,-1.75,0.00,1.06,0.23,9.27,-0.00,0.00,-0.00,0.00
2026-06-26 19:39:22.860,994.32,994.30,-1.75,-1.75,0.00,1.04,0.22,9.29,-0.00,0.00,-0.00,0.00
2026-06-26 19:39:22.862,994.32,994.30,-1.75,-1.75,0.00,1.04,0.22,9.29,-0.00,0.00,-0.00,0.00
2026-06-26 19:39:22.868,994.32,994.30,-1.75,-1.75,0.00,1.04,0.22,9.29,-0.00,0.00,-0.00,0.00
2026-06-26 19:39:22.869,994.32,994.30,-1.75,-1.75,0.00,1.06,0.23,9.27,-0.00,-0.00,-0.00,0.00
2026-06-26 19:39:22.870,994.32,994.30,-1.75,-1.75,0.00,1.06,0.23,9.27,-0.00,-0.00,-0.00,0.00
2026-06-26 19:39:23.010,994.32,994.30,-1.79,-1.77,0.00,1.07,0.23,9.28,0.00,0.00,0.00,0.00
2026-06-26 19:39:23.012,994.32,994.30,-1.79,-1.77,0.00,1.07,0.23,9.28,0.00,0.00,0.00,0.00
2026-06-26 19:39:23.016,994.32,994.30,-1.79,-1.77,0.00,1.07,0.23,9.28,0.00,0.00,0.00,0.00
2026-06-26 19:39:23.019,994.32,994.30,-1.79,-1.77,0.00,1.07,0.23,9.28,0.00,0.00,0.00,0.00
2026-06-26 19:39:23.020,994.32,994.30,-1.79,-1.77,0.00,1.06,0.22,9.28,0.00,0.00,0.00,0.00
2026-06-26 19:39:23.021,994.32,994.30,-1.79,-1.77,0.00,1.06,0.22,9.28,0.00,0.00,0.00,0.00
2026-06-26 19:39:23.022,994.32,994.30,-1.79,-1.77,0.00,1.06,0.22,9.28,0.00,0.00,0.00,0.00
2026-06-26 19:39:23.026,994.32,994.30,-1.79,-1.77,0.00,1.06,0.22,9.28,0.00,0.00,0.00,0.00
2026-06-26 19:39:23.030,994.32,994.30,-1.79,-1.77,0.00,1.06,0.24,9.27,0.00,0.00,0.00,0.00
2026-06-26 19:39:23.031,994.32,994.30,-1.79,-1.77,0.00,1.06,0.24,9.27,0.00,0.00,0.00,0.00
2026-06-26 19:39:23.035,994.32,994.30,-1.79,-1.77,0.00,1.06,0.24,9.27,0.00,0.00,0.00,0.00
2026-06-26 19:39:23.038,994.32,994.30,-1.79,-1.77,0.00,1.06,0.24,9.27,0.00,0.00,0.00,0.00
2026-06-26 19:39:23.040,994.32,994.30,-1.79,-1.77,0.00,1.06,0.23,9.28,0.00,0.00,0.00,0.00
2026-06-26 19:39:23.042,994.32,994.30,-1.79,-1.77,0.00,1.06,0.23,9.28,0.00,0.00,0.00,0.00
2026-06-26 19:39:23.048,994.32,994.30,-1.79,-1.77,0.00,1.06,0.23,9.28,0.00,0.00,0.00,0.00
2026-06-26 19:39:23.189,994.32,994.31,-1.62,-1.69,0.00,1.05,0.24,9.24,0.00,0.00,-0.00,0.00
2026-06-26 19:39:23.190,994.32,994.31,-1.62,-1.69,0.00,1.06,0.24,9.27,0.00,0.00,-0.00,0.00
2026-06-26 19:39:23.191,994.32,994.31,-1.62,-1.69,0.00,1.06,0.24,9.27,0.00,0.00,-0.00,0.00
2026-06-26 19:39:23.193,994.32,994.31,-1.62,-1.69,0.00,1.06,0.24,9.27,0.00,0.00,-0.00,0.00
2026-06-26 19:39:23.197,994.32,994.31,-1.62,-1.69,0.00,1.06,0.24,9.27,0.00,0.00,-0.00,0.00
2026-06-26 19:39:23.199,994.32,994.31,-1.62,-1.69,0.00,1.06,0.22,9.29,-0.00,0.00,0.00,0.00
2026-06-26 19:39:23.200,994.32,994.31,-1.62,-1.69,0.00,1.06,0.22,9.29,-0.00,0.00,0.00,0.00
2026-06-26 19:39:23.202,994.32,994.31,-1.62,-1.69,0.00,1.06,0.22,9.29,-0.00,0.00,0.00,0.00
2026-06-26 19:39:23.203,994.32,994.31,-1.62,-1.69,0.00,1.06,0.22,9.29,-0.00,0.00,0.00,0.00
2026-06-26 19:39:23.204,994.32,994.31,-1.62,-1.69,0.00,1.06,0.22,9.29,-0.00,0.00,0.00,0.00
2026-06-26 19:39:23.205,994.32,994.31,-1.62,-1.69,0.00,1.06,0.22,9.29,-0.00,0.00,0.00,0.00
2026-06-26 19:39:23.207,994.32,994.31,-1.62,-1.69,0.00,1.06,0.22,9.29,-0.00,0.00,0.00,0.00
2026-06-26 19:39:23.209,994.32,994.31,-1.62,-1.69,0.00,1.06,0.22,9.29,0.00,0.00,0.00,0.00
2026-06-26 19:39:23.210,994.32,994.31,-1.62,-1.69,0.00,1.07,0.22,9.30,0.00,0.00,0.00,0.00
2026-06-26 19:39:23.211,994.32,994.31,-1.62,-1.69,0.00,1.07,0.22,9.30,0.00,0.00,0.00,0.00
2026-06-26 19:39:23.213,994.32,994.31,-1.62,-1.69,0.00,1.07,0.22,9.30,0.00,0.00,0.00,0.00
2026-06-26 19:39:23.218,994.32,994.31,-1.62,-1.69,0.00,1.07,0.22,9.30,0.00,0.00,0.00,0.00
2026-06-26 19:39:23.220,994.32,994.31,-1.62,-1.69,0.00,1.08,0.25,9.27,0.00,0.00,0.00,0.00
2026-06-26 19:39:23.222,994.32,994.31,-1.62,-1.69,0.00,1.08,0.25,9.27,0.00,0.00,0.00,0.00
2026-06-26 19:39:23.228,994.32,994.31,-1.62,-1.69,0.00,1.08,0.25,9.27,0.00,0.00,0.00,0.00
2026-06-26 19:39:23.369,994.32,994.31,-1.87,-1.81,0.00,1.08,0.23,9.28,0.00,0.00,-0.00,0.00
2026-06-26 19:39:23.371,994.32,994.31,-1.87,-1.81,0.00,1.06,0.25,9.27,0.00,0.00,-0.00,0.00
2026-06-26 19:39:23.372,994.32,994.31,-1.87,-1.81,0.00,1.06,0.25,9.27,0.00,0.00,-0.00,0.00
2026-06-26 19:39:23.373,994.32,994.31,-1.87,-1.81,0.00,1.06,0.25,9.27,0.00,0.00,-0.00,0.00
2026-06-26 19:39:23.378,994.32,994.31,-1.87,-1.81,0.00,1.06,0.25,9.27,0.00,0.00,-0.00,0.00
2026-06-26 19:39:23.380,994.32,994.31,-1.87,-1.81,0.00,1.07,0.21,9.26,0.00,0.00,-0.00,0.00
2026-06-26 19:39:23.381,994.32,994.31,-1.87,-1.81,0.00,1.07,0.21,9.26,0.00,0.00,-0.00,0.00
2026-06-26 19:39:23.382,994.32,994.31,-1.87,-1.81,0.00,1.07,0.21,9.26,0.00,0.00,-0.00,0.00
2026-06-26 19:39:23.383,994.32,994.31,-1.87,-1.81,0.00,1.07,0.21,9.26,0.00,0.00,-0.00,0.00
2026-06-26 19:39:23.385,994.32,994.31,-1.87,-1.81,0.00,1.07,0.21,9.26,0.00,0.00,-0.00,0.00
2026-06-26 19:39:23.389,994.32,994.31,-1.87,-1.81,0.00,1.07,0.21,9.26,0.00,0.00,0.00,0.00
2026-06-26 19:39:23.390,994.32,994.31,-1.87,-1.81,0.00,1.05,0.23,9.26,0.00,0.00,0.00,0.00
2026-06-26 19:39:23.392,994.32,994.31,-1.87,-1.81,0.00,1.05,0.23,9.26,0.00,0.00,0.00,0.00
2026-06-26 19:39:23.393,994.32,994.31,-1.87,-1.81,0.00,1.05,0.23,9.26,0.00,0.00,0.00,0.00
2026-06-26 19:39:23.396,994.32,994.31,-1.87,-1.81,0.00,1.05,0.23,9.26,0.00,0.00,0.00,0.00
2026-06-26 19:39:23.399,994.32,994.31,-1.87,-1.81,0.00,1.05,0.23,9.26,0.00,0.00,-0.00,0.00
2026-06-26 19:39:23.401,994.32,994.31,-1.87,-1.81,0.00,1.07,0.22,9.27,0.00,0.00,-0.00,0.00
2026-06-26 19:39:23.402,994.32,994.31,-1.87,-1.81,0.00,1.07,0.22,9.27,0.00,0.00,-0.00,0.00
2026-06-26 19:39:23.403,994.32,994.31,-1.87,-1.81,0.00,1.07,0.22,9.27,0.00,0.00,-0.00,0.00
2026-06-26 19:39:23.404,994.32,994.31,-1.87,-1.81,0.00,1.07,0.22,9.27,0.00,0.00,-0.00,0.00
2026-06-26 19:39:23.549,994.32,994.31,-1.74,-1.74,0.00,1.08,0.22,9.28,0.00,-0.00,0.00,0.00
2026-06-26 19:39:23.551,994.32,994.31,-1.74,-1.74,0.00,1.06,0.23,9.30,0.00,-0.00,0.00,0.00
2026-06-26 19:39:23.552,994.32,994.31,-1.74,-1.74,0.00,1.06,0.23,9.30,0.00,-0.00,0.00,0.00
2026-06-26 19:39:23.553,994.32,994.31,-1.74,-1.74,0.00,1.06,0.23,9.30,0.00,-0.00,0.00,0.00
2026-06-26 19:39:23.554,994.32,994.31,-1.74,-1.74,0.00,1.06,0.23,9.30,0.00,-0.00,0.00,0.00
2026-06-26 19:39:23.556,994.32,994.31,-1.74,-1.74,0.00,1.06,0.23,9.30,0.00,-0.00,0.00,0.00
2026-06-26 19:39:23.557,994.32,994.31,-1.74,-1.74,0.00,1.06,0.23,9.30,0.00,-0.00,0.00,0.00
2026-06-26 19:39:23.560,994.32,994.31,-1.74,-1.74,0.00,1.06,0.23,9.30,0.00,-0.00,-0.00,0.00
2026-06-26 19:39:23.561,994.32,994.31,-1.74,-1.74,0.00,1.07,0.24,9.28,0.00,-0.00,-0.00,0.00
2026-06-26 19:39:23.562,994.32,994.31,-1.74,-1.74,0.00,1.07,0.24,9.28,0.00,-0.00,-0.00,0.00
2026-06-26 19:39:23.568,994.32,994.31,-1.74,-1.74,0.00,1.07,0.24,9.28,0.00,-0.00,-0.00,0.00
2026-06-26 19:39:23.570,994.32,994.31,-1.74,-1.74,0.00,1.06,0.25,9.28,0.00,0.00,-0.00,0.00
2026-06-26 19:39:23.571,994.32,994.31,-1.74,-1.74,0.00,1.06,0.25,9.28,0.00,0.00,-0.00,0.00
2026-06-26 19:39:23.573,994.32,994.31,-1.74,-1.74,0.00,1.06,0.25,9.28,0.00,0.00,-0.00,0.00
2026-06-26 19:39:23.577,994.32,994.31,-1.74,-1.74,0.00,1.06,0.25,9.28,0.00,0.00,-0.00,0.00
2026-06-26 19:39:23.581,994.32,994.31,-1.74,-1.74,0.00,1.06,0.23,9.27,0.00,-0.00,-0.00,0.00
2026-06-26 19:39:23.726,994.32,994.31,-1.87,-1.81,0.00,1.05,0.23,9.27,0.00,0.00,0.00,0.00
2026-06-26 19:39:23.730,994.32,994.31,-1.87,-1.81,0.00,1.05,0.23,9.27,0.00,-0.00,0.00,0.00
2026-06-26 19:39:23.732,994.32,994.31,-1.87,-1.81,0.00,1.08,0.22,9.26,0.00,-0.00,0.00,0.00
2026-06-26 19:39:23.734,994.32,994.31,-1.87,-1.81,0.00,1.08,0.22,9.26,0.00,-0.00,0.00,0.00
2026-06-26 19:39:23.739,994.32,994.31,-1.87,-1.81,0.00,1.08,0.22,9.26,0.00,-0.00,0.00,0.00
2026-06-26 19:39:23.741,994.32,994.31,-1.87,-1.81,0.00,1.07,0.23,9.28,-0.00,0.00,0.00,0.00
2026-06-26 19:39:23.743,994.32,994.31,-1.87,-1.81,0.00,1.07,0.23,9.28,-0.00,0.00,0.00,0.00
2026-06-26 19:39:23.747,994.32,994.31,-1.87,-1.81,0.00,1.07,0.23,9.28,-0.00,0.00,0.00,0.00
2026-06-26 19:39:23.750,994.32,994.31,-1.87,-1.81,0.00,1.07,0.23,9.28,-0.00,-0.00,0.00,0.00
2026-06-26 19:39:23.752,994.32,994.31,-1.87,-1.81,0.00,1.06,0.22,9.29,-0.00,-0.00,0.00,0.00
2026-06-26 19:39:23.754,994.32,994.31,-1.87,-1.81,0.00,1.06,0.22,9.29,-0.00,-0.00,0.00,0.00
2026-06-26 19:39:23.755,994.32,994.31,-1.87,-1.81,0.00,1.06,0.22,9.29,-0.00,-0.00,0.00,0.00
2026-06-26 19:39:23.757,994.32,994.31,-1.87,-1.81,0.00,1.06,0.22,9.29,-0.00,-0.00,0.00,0.00
2026-06-26 19:39:23.901,994.32,994.31,-1.88,-1.82,0.00,1.04,0.23,9.27,0.00,-0.00,0.00,0.00
2026-06-26 19:39:23.906,994.32,994.31,-1.88,-1.82,0.00,1.06,0.24,9.27,0.00,-0.00,0.00,0.00
2026-06-26 19:39:23.911,994.32,994.31,-1.88,-1.82,0.00,1.06,0.24,9.27,-0.00,-0.00,0.00,0.00
2026-06-26 19:39:23.913,994.32,994.31,-1.88,-1.82,0.00,1.06,0.23,9.28,-0.00,-0.00,0.00,0.00
2026-06-26 19:39:23.918,994.32,994.31,-1.88,-1.82,0.00,1.06,0.23,9.28,-0.00,-0.00,0.00,0.00
2026-06-26 19:39:23.921,994.32,994.31,-1.88,-1.82,0.00,1.06,0.23,9.28,0.00,-0.00,0.00,0.00
2026-06-26 19:39:23.923,994.32,994.31,-1.88,-1.82,0.00,1.06,0.23,9.28,0.00,-0.00,0.00,0.00
2026-06-26 19:39:23.926,994.32,994.31,-1.88,-1.82,0.00,1.06,0.23,9.28,0.00,-0.00,0.00,0.00
2026-06-26 19:39:23.931,994.32,994.31,-1.88,-1.82,0.00,1.06,0.23,9.28,0.00,0.00,-0.00,0.00
2026-06-26 19:39:23.933,994.32,994.31,-1.88,-1.82,0.00,1.07,0.22,9.28,0.00,0.00,-0.00,0.00
2026-06-26 19:39:23.936,994.32,994.31,-1.88,-1.82,0.00,1.07,0.22,9.28,0.00,0.00,-0.00,0.00
2026-06-26 19:39:24.081,994.33,994.31,-2.02,-1.88,0.00,1.06,0.21,9.28,0.00,0.00,0.00,0.00
2026-06-26 19:39:24.082,994.33,994.31,-2.02,-1.88,0.00,1.06,0.23,9.25,0.00,0.00,0.00,0.00
2026-06-26 19:39:24.084,994.33,994.31,-2.02,-1.88,0.00,1.06,0.23,9.25,0.00,0.00,0.00,0.00
2026-06-26 19:39:24.087,994.33,994.31,-2.02,-1.88,0.00,1.06,0.23,9.25,0.00,0.00,0.00,0.00
2026-06-26 19:39:24.092,994.33,994.31,-2.02,-1.88,0.00,1.06,0.23,9.25,0.00,-0.00,0.00,0.00
2026-06-26 19:39:24.094,994.33,994.31,-2.02,-1.88,0.00,1.05,0.23,9.27,0.00,-0.00,0.00,0.00
2026-06-26 19:39:24.100,994.33,994.31,-2.02,-1.88,0.00,1.05,0.23,9.27,0.00,-0.00,0.00,0.00
2026-06-26 19:39:24.104,994.33,994.31,-2.02,-1.88,0.00,1.07,0.24,9.27,0.00,0.00,0.00,0.00
2026-06-26 19:39:24.106,994.33,994.31,-2.02,-1.88,0.00,1.07,0.24,9.27,0.00,0.00,0.00,0.00
2026-06-26 19:39:24.107,994.33,994.31,-2.02,-1.88,0.00,1.07,0.24,9.27,0.00,0.00,0.00,0.00
2026-06-26 19:39:24.111,994.33,994.31,-2.02,-1.88,0.00,1.07,0.24,9.27,0.00,0.00,0.00,0.00
2026-06-26 19:39:24.113,994.33,994.31,-2.02,-1.88,0.00,1.05,0.23,9.27,0.00,0.00,0.00,0.00
2026-06-26 19:39:24.257,994.33,994.31,-1.78,-1.77,0.00,1.07,0.25,9.25,0.00,0.00,0.00,0.00
2026-06-26 19:39:24.261,994.33,994.31,-1.78,-1.77,0.00,1.07,0.25,9.25,0.00,0.00,-0.00,0.00
2026-06-26 19:39:24.263,994.33,994.31,-1.78,-1.77,0.00,1.07,0.24,9.28,0.00,0.00,-0.00,0.00
2026-06-26 19:39:24.265,994.33,994.31,-1.78,-1.77,0.00,1.07,0.24,9.28,0.00,0.00,-0.00,0.00
2026-06-26 19:39:24.271,994.33,994.31,-1.78,-1.77,0.00,1.07,0.24,9.28,0.00,0.00,-0.00,0.00
2026-06-26 19:39:24.274,994.33,994.31,-1.78,-1.77,0.00,1.06,0.24,9.27,0.00,0.00,0.00,0.00
2026-06-26 19:39:24.281,994.33,994.31,-1.78,-1.77,0.00,1.06,0.24,9.27,0.00,0.00,0.00,0.00
2026-06-26 19:39:24.282,994.33,994.31,-1.78,-1.77,0.00,1.07,0.24,9.26,0.00,0.00,0.00,0.00
2026-06-26 19:39:24.284,994.33,994.31,-1.78,-1.77,0.00,1.07,0.24,9.26,0.00,0.00,0.00,0.00
2026-06-26 19:39:24.286,994.33,994.31,-1.78,-1.77,0.00,1.07,0.24,9.26,0.00,0.00,0.00,0.00
2026-06-26 19:39:24.291,994.33,994.31,-1.78,-1.77,0.00,1.07,0.24,9.26,0.00,0.00,0.00,0.00
2026-06-26 19:39:24.293,994.33,994.31,-1.78,-1.77,0.00,1.07,0.24,9.29,0.00,0.00,0.00,0.00
2026-06-26 19:39:24.431,994.33,994.31,-2.03,-1.89,0.00,1.08,0.22,9.26,0.00,0.00,-0.00,0.00
2026-06-26 19:39:24.433,994.33,994.31,-2.03,-1.89,0.00,1.06,0.23,9.27,0.00,0.00,-0.00,0.00
2026-06-26 19:39:24.434,994.33,994.31,-2.03,-1.89,0.00,1.06,0.23,9.27,0.00,0.00,-0.00,0.00
2026-06-26 19:39:24.438,994.33,994.31,-2.03,-1.89,0.00,1.06,0.23,9.27,0.00,0.00,-0.00,0.00
2026-06-26 19:39:24.442,994.33,994.31,-2.03,-1.89,0.00,1.06,0.23,9.27,0.00,0.00,0.00,0.00
2026-06-26 19:39:24.443,994.33,994.31,-2.03,-1.89,0.00,1.07,0.24,9.26,0.00,0.00,0.00,0.00
2026-06-26 19:39:24.445,994.33,994.31,-2.03,-1.89,0.00,1.07,0.24,9.26,0.00,0.00,0.00,0.00
2026-06-26 19:39:24.449,994.33,994.31,-2.03,-1.89,0.00,1.07,0.24,9.26,0.00,0.00,0.00,0.00
2026-06-26 19:39:24.452,994.33,994.31,-2.03,-1.89,0.00,1.08,0.23,9.27,0.00,0.00,-0.00,0.00
2026-06-26 19:39:24.454,994.33,994.31,-2.03,-1.89,0.00,1.08,0.23,9.27,0.00,0.00,-0.00,0.00
2026-06-26 19:39:24.455,994.33,994.31,-2.03,-1.89,0.00,1.08,0.23,9.27,0.00,0.00,-0.00,0.00
2026-06-26 19:39:24.460,994.33,994.31,-2.03,-1.89,0.00,1.08,0.23,9.27,0.00,0.00,-0.00,0.00
2026-06-26 19:39:24.462,994.33,994.31,-2.03,-1.89,0.00,1.05,0.24,9.27,0.00,-0.00,0.00,0.00
2026-06-26 19:39:24.464,994.33,994.31,-2.03,-1.89,0.00,1.05,0.24,9.27,0.00,-0.00,0.00,0.00
2026-06-26 19:39:24.465,994.33,994.31,-2.03,-1.89,0.00,1.05,0.24,9.27,0.00,-0.00,0.00,0.00
2026-06-26 19:39:24.471,994.33,994.31,-2.03,-1.89,0.00,1.05,0.24,9.27,0.00,-0.00,0.00,0.00
2026-06-26 19:39:24.614,994.33,994.31,-2.13,-1.93,0.00,1.05,0.25,9.28,-0.00,0.00,0.00,0.00
2026-06-26 19:39:24.620,994.33,994.31,-2.13,-1.93,0.00,1.05,0.25,9.28,-0.00,0.00,0.00,0.00
2026-06-26 19:39:24.622,994.33,994.31,-2.13,-1.93,0.00,1.06,0.24,9.26,0.00,-0.00,0.00,0.00
2026-06-26 19:39:24.624,994.33,994.31,-2.13,-1.93,0.00,1.06,0.24,9.26,0.00,-0.00,0.00,0.00
2026-06-26 19:39:24.626,994.33,994.31,-2.13,-1.93,0.00,1.06,0.24,9.26,0.00,-0.00,0.00,0.00
2026-06-26 19:39:24.632,994.33,994.31,-2.13,-1.93,0.00,1.06,0.24,9.26,0.00,-0.00,0.00,0.00
2026-06-26 19:39:24.634,994.33,994.31,-2.13,-1.93,0.00,1.05,0.23,9.27,-0.00,0.00,0.00,0.00
2026-06-26 19:39:24.636,994.33,994.31,-2.13,-1.93,0.00,1.05,0.23,9.27,-0.00,0.00,0.00,0.00
2026-06-26 19:39:24.641,994.33,994.31,-2.13,-1.93,0.00,1.05,0.23,9.27,-0.00,0.00,0.00,0.00
2026-06-26 19:39:24.643,994.33,994.31,-2.13,-1.93,0.00,1.07,0.23,9.27,0.00,-0.00,0.00,0.00
2026-06-26 19:39:24.645,994.33,994.31,-2.13,-1.93,0.00,1.07,0.23,9.27,0.00,-0.00,0.00,0.00
2026-06-26 19:39:24.649,994.33,994.31,-2.13,-1.93,0.00,1.07,0.23,9.27,0.00,-0.00,0.00,0.00
2026-06-26 19:39:24.786,994.33,994.31,-2.37,-2.04,0.00,1.06,0.22,9.26,0.00,-0.00,0.00,0.00
2026-06-26 19:39:24.792,994.33,994.31,-2.37,-2.04,0.00,1.06,0.22,9.26,0.00,-0.00,0.00,0.00
2026-06-26 19:39:24.799,994.33,994.31,-2.37,-2.04,0.00,1.04,0.22,9.28,0.00,0.00,0.00,0.00
2026-06-26 19:39:24.803,994.33,994.31,-2.37,-2.04,0.00,1.07,0.22,9.28,0.00,-0.00,0.00,0.00
2026-06-26 19:39:24.805,994.33,994.31,-2.37,-2.04,0.00,1.07,0.22,9.28,0.00,-0.00,0.00,0.00
2026-06-26 19:39:24.806,994.33,994.31,-2.37,-2.04,0.00,1.07,0.22,9.28,0.00,-0.00,0.00,0.00
2026-06-26 19:39:24.809,994.33,994.31,-2.37,-2.04,0.00,1.07,0.22,9.28,0.00,-0.00,0.00,0.00
2026-06-26 19:39:24.813,994.33,994.31,-2.37,-2.04,0.00,1.07,0.22,9.28,0.00,-0.00,0.00,0.00
2026-06-26 19:39:24.815,994.33,994.31,-2.37,-2.04,0.00,1.07,0.24,9.27,0.00,-0.00,0.00,0.00
2026-06-26 19:39:24.821,994.33,994.31,-2.37,-2.04,0.00,1.07,0.24,9.27,0.00,-0.00,0.00,0.00
2026-06-26 19:39:24.823,994.33,994.31,-2.37,-2.04,0.00,1.07,0.23,9.29,-0.00,0.00,-0.00,0.00
2026-06-26 19:39:24.973,994.33,994.31,-2.41,-2.06,0.00,1.07,0.22,9.27,0.00,-0.00,0.00,0.00
2026-06-26 19:39:24.975,994.33,994.31,-2.41,-2.06,0.00,1.07,0.22,9.30,0.00,-0.00,0.00,0.00
2026-06-26 19:39:24.981,994.33,994.31,-2.41,-2.06,0.00,1.07,0.22,9.30,0.00,-0.00,0.00,0.00
2026-06-26 19:39:24.983,994.33,994.31,-2.41,-2.06,0.00,1.07,0.23,9.27,-0.00,0.00,-0.00,0.00
2026-06-26 19:39:24.985,994.33,994.31,-2.41,-2.06,0.00,1.07,0.23,9.27,-0.00,0.00,-0.00,0.00
2026-06-26 19:39:24.986,994.33,994.31,-2.41,-2.06,0.00,1.07,0.23,9.27,-0.00,0.00,-0.00,0.00
2026-06-26 19:39:24.988,994.33,994.31,-2.41,-2.06,0.00,1.07,0.23,9.27,-0.00,0.00,-0.00,0.00
2026-06-26 19:39:24.992,994.33,994.31,-2.41,-2.06,0.00,1.07,0.23,9.27,0.00,0.00,0.00,0.00
2026-06-26 19:39:24.994,994.33,994.31,-2.41,-2.06,0.00,1.07,0.24,9.26,0.00,0.00,0.00,0.00
2026-06-26 19:39:24.995,994.33,994.31,-2.41,-2.06,0.00,1.07,0.24,9.26,0.00,0.00,0.00,0.00
2026-06-26 19:39:24.999,994.33,994.31,-2.41,-2.06,0.00,1.07,0.24,9.26,0.00,0.00,0.00,0.00
2026-06-26 19:39:24.003,994.33,994.31,-2.41,-2.06,0.00,1.07,0.24,9.26,0.00,0.00,0.00,0.00
2026-06-26 19:39:25.145,994.33,994.31,-2.32,-2.01,0.00,1.07,0.24,9.29,0.00,-0.00,0.00,0.00
2026-06-26 19:39:25.147,994.33,994.31,-2.32,-2.01,0.00,1.07,0.24,9.29,0.00,-0.00,0.00,0.00
2026-06-26 19:39:25.153,994.33,994.31,-2.32,-2.01,0.00,1.07,0.24,9.29,0.00,-0.00,0.00,0.00
2026-06-26 19:39:25.154,994.33,994.31,-2.32,-2.01,0.00,1.05,0.23,9.29,0.00,0.00,0.00,0.00
2026-06-26 19:39:25.158,994.33,994.31,-2.32,-2.01,0.00,1.05,0.23,9.29,0.00,0.00,0.00,0.00
2026-06-26 19:39:25.161,994.33,994.31,-2.32,-2.01,0.00,1.05,0.23,9.29,0.00,0.00,0.00,0.00
2026-06-26 19:39:25.164,994.33,994.31,-2.32,-2.01,0.00,1.08,0.23,9.28,0.00,0.00,0.00,0.00
2026-06-26 19:39:25.165,994.33,994.31,-2.32,-2.01,0.00,1.08,0.23,9.28,0.00,0.00,0.00,0.00
2026-06-26 19:39:25.167,994.33,994.31,-2.32,-2.01,0.00,1.08,0.23,9.28,0.00,0.00,0.00,0.00
2026-06-26 19:39:25.173,994.33,994.31,-2.32,-2.01,0.00,1.08,0.23,9.28,0.00,0.00,0.00,0.00
2026-06-26 19:39:25.176,994.33,994.31,-2.32,-2.01,0.00,1.08,0.24,9.31,0.00,0.00,0.00,0.00
2026-06-26 19:39:25.182,994.33,994.31,-2.32,-2.01,0.00,1.08,0.24,9.31,0.00,0.00,0.00,0.00
2026-06-26 19:39:25.324,994.33,994.31,-2.15,-1.94,0.00,1.06,0.23,9.31,0.00,0.00,-0.00,0.00
2026-06-26 19:39:25.325,994.33,994.31,-2.15,-1.94,0.00,1.05,0.23,9.27,0.00,0.00,-0.00,0.00
2026-06-26 19:39:25.327,994.33,994.31,-2.15,-1.94,0.00,1.05,0.23,9.27,0.00,0.00,-0.00,0.00
2026-06-26 19:39:25.333,994.33,994.31,-2.15,-1.94,0.00,1.05,0.23,9.27,0.00,0.00,-0.00,0.00
2026-06-26 19:39:25.334,994.33,994.31,-2.15,-1.94,0.00,1.04,0.22,9.27,0.00,0.00,-0.00,0.00
2026-06-26 19:39:25.336,994.33,994.31,-2.15,-1.94,0.00,1.04,0.22,9.27,0.00,0.00,-0.00,0.00
2026-06-26 19:39:25.339,994.33,994.31,-2.15,-1.94,0.00,1.04,0.22,9.27,0.00,0.00,-0.00,0.00
2026-06-26 19:39:25.343,994.33,994.31,-2.15,-1.94,0.00,1.04,0.22,9.27,0.00,0.00,0.00,0.00
2026-06-26 19:39:25.345,994.33,994.31,-2.15,-1.94,0.00,1.06,0.22,9.28,0.00,0.00,0.00,0.00
2026-06-26 19:39:25.346,994.33,994.31,-2.15,-1.94,0.00,1.06,0.22,9.28,0.00,0.00,0.00,0.00
2026-06-26 19:39:25.350,994.33,994.31,-2.15,-1.94,0.00,1.06,0.22,9.28,0.00,0.00,0.00,0.00
2026-06-26 19:39:25.354,994.33,994.31,-2.15,-1.94,0.00,1.06,0.22,9.28,0.00,0.00,-0.00,0.00
2026-06-26 19:39:25.355,994.33,994.31,-2.15,-1.94,0.00,1.06,0.24,9.27,0.00,0.00,-0.00,0.00
2026-06-26 19:39:25.359,994.33,994.31,-2.15,-1.94,0.00,1.06,0.24,9.27,0.00,0.00,-0.00,0.00
2026-06-26 19:39:25.500,994.33,994.31,-2.22,-1.97,0.00,1.06,0.22,9.24,0.00,-0.00,0.00,0.00
2026-06-26 19:39:25.505,994.33,994.31,-2.22,-1.97,0.00,1.06,0.22,9.24,0.00,-0.00,0.00,0.00
2026-06-26 19:39:25.506,994.33,994.31,-2.22,-1.97,0.00,1.05,0.25,9.23,0.00,-0.00,0.00,0.00
2026-06-26 19:39:25.508,994.33,994.31,-2.22,-1.97,0.00,1.05,0.25,9.23,0.00,-0.00,0.00,0.00
2026-06-26 19:39:25.510,994.33,994.31,-2.22,-1.97,0.00,1.05,0.25,9.23,0.00,-0.00,0.00,0.00
2026-06-26 19:39:25.513,994.33,994.31,-2.22,-1.97,0.00,1.05,0.25,9.23,0.00,-0.00,0.00,0.00
2026-06-26 19:39:25.514,994.33,994.31,-2.22,-1.97,0.00,1.05,0.24,9.29,-0.00,0.00,0.00,0.00
2026-06-26 19:39:25.516,994.33,994.31,-2.22,-1.97,0.00,1.05,0.24,9.29,-0.00,0.00,0.00,0.00
2026-06-26 19:39:25.517,994.33,994.31,-2.22,-1.97,0.00,1.05,0.24,9.29,-0.00,0.00,0.00,0.00
2026-06-26 19:39:25.523,994.33,994.31,-2.22,-1.97,0.00,1.05,0.24,9.29,-0.00,0.00,0.00,0.00
2026-06-26 19:39:25.524,994.33,994.31,-2.22,-1.97,0.00,1.07,0.23,9.24,0.00,0.00,0.00,0.00
2026-06-26 19:39:25.526,994.33,994.31,-2.22,-1.97,0.00,1.07,0.23,9.24,0.00,0.00,0.00,0.00
2026-06-26 19:39:25.528,994.33,994.31,-2.22,-1.97,0.00,1.07,0.23,9.24,0.00,0.00,0.00,0.00
2026-06-26 19:39:25.533,994.33,994.31,-2.22,-1.97,0.00,1.07,0.23,9.24,0.00,0.00,0.00,0.00
2026-06-26 19:39:25.672,994.33,994.31,-2.08,-1.91,0.00,1.07,0.23,9.29,0.00,-0.00,0.00,0.00
2026-06-26 19:39:25.674,994.33,994.31,-2.08,-1.91,0.00,1.06,0.23,9.29,-0.00,0.00,-0.00,0.00
2026-06-26 19:39:25.676,994.33,994.31,-2.08,-1.91,0.00,1.06,0.23,9.29,-0.00,0.00,-0.00,0.00
2026-06-26 19:39:25.678,994.33,994.31,-2.08,-1.91,0.00,1.06,0.23,9.29,-0.00,0.00,-0.00,0.00
2026-06-26 19:39:25.684,994.33,994.31,-2.08,-1.91,0.00,1.06,0.23,9.29,-0.00,0.00,-0.00,0.00
2026-06-26 19:39:25.685,994.33,994.31,-2.08,-1.91,0.00,1.07,0.24,9.25,0.00,0.00,-0.00,0.00
2026-06-26 19:39:25.687,994.33,994.31,-2.08,-1.91,0.00,1.07,0.24,9.25,0.00,0.00,-0.00,0.00
2026-06-26 19:39:25.689,994.33,994.31,-2.08,-1.91,0.00,1.07,0.24,9.25,0.00,0.00,-0.00,0.00
2026-06-26 19:39:25.695,994.33,994.31,-2.08,-1.91,0.00,1.07,0.24,9.25,0.00,-0.00,0.00,0.00
2026-06-26 19:39:25.704,994.33,994.31,-2.08,-1.91,0.00,1.07,0.25,9.29,0.00,-0.00,0.00,0.00
2026-06-26 19:39:25.706,994.33,994.31,-2.08,-1.91,0.00,1.05,0.22,9.29,0.00,0.00,-0.00,0.00
2026-06-26 19:39:25.707,994.33,994.31,-2.08,-1.91,0.00,1.05,0.22,9.29,0.00,0.00,-0.00,0.00
2026-06-26 19:39:25.847,994.33,994.31,-2.15,-1.94,0.00,1.08,0.24,9.28,0.00,-0.00,-0.00,0.00
2026-06-26 19:39:25.850,994.33,994.31,-2.15,-1.94,0.00,1.08,0.24,9.28,0.00,-0.00,-0.00,0.00
2026-06-26 19:39:25.854,994.33,994.31,-2.15,-1.94,0.00,1.08,0.24,9.28,0.00,-0.00,0.00,0.00
2026-06-26 19:39:25.856,994.33,994.31,-2.15,-1.94,0.00,1.07,0.22,9.26,0.00,-0.00,0.00,0.00
2026-06-26 19:39:25.858,994.33,994.31,-2.15,-1.94,0.00,1.07,0.22,9.26,0.00,-0.00,0.00,0.00
2026-06-26 19:39:25.859,994.33,994.31,-2.15,-1.94,0.00,1.07,0.22,9.26,0.00,-0.00,0.00,0.00
2026-06-26 19:39:25.861,994.33,994.31,-2.15,-1.94,0.00,1.07,0.22,9.26,0.00,-0.00,0.00,0.00
2026-06-26 19:39:25.864,994.33,994.31,-2.15,-1.94,0.00,1.07,0.22,9.26,0.00,-0.00,-0.00,0.00
2026-06-26 19:39:25.867,994.33,994.31,-2.15,-1.94,0.00,1.07,0.25,9.27,0.00,-0.00,-0.00,0.00
2026-06-26 19:39:25.873,994.33,994.31,-2.15,-1.94,0.00,1.07,0.25,9.27,0.00,-0.00,-0.00,0.00
2026-06-26 19:39:25.875,994.33,994.31,-2.15,-1.94,0.00,1.07,0.21,9.28,0.00,0.00,0.00,0.00
2026-06-26 19:39:25.877,994.33,994.31,-2.15,-1.94,0.00,1.07,0.21,9.28,0.00,0.00,0.00,0.00
2026-06-26 19:39:25.878,994.33,994.31,-2.15,-1.94,0.00,1.07,0.21,9.28,0.00,0.00,0.00,0.00
2026-06-26 19:39:25.884,994.33,994.31,-2.15,-1.94,0.00,1.07,0.21,9.28,0.00,0.00,0.00,0.00
2026-06-26 19:39:26.025,994.33,994.31,-2.12,-1.93,0.00,1.06,0.23,9.28,0.00,-0.00,0.00,0.00
2026-06-26 19:39:26.027,994.33,994.31,-2.12,-1.93,0.00,1.06,0.23,9.28,0.00,-0.00,0.00,0.00
2026-06-26 19:39:26.033,994.33,994.31,-2.12,-1.93,0.00,1.06,0.23,9.28,0.00,-0.00,0.00,0.00
2026-06-26 19:39:26.036,994.33,994.31,-2.12,-1.93,0.00,1.07,0.23,9.24,-0.00,0.00,0.00,0.00
2026-06-26 19:39:26.038,994.33,994.31,-2.12,-1.93,0.00,1.07,0.23,9.24,-0.00,0.00,0.00,0.00
2026-06-26 19:39:26.044,994.33,994.31,-2.12,-1.93,0.00,1.07,0.23,9.24,-0.00,0.00,0.00,0.00
2026-06-26 19:39:26.046,994.33,994.31,-2.12,-1.93,0.00,1.07,0.23,9.26,-0.00,0.00,0.00,0.00
2026-06-26 19:39:26.048,994.33,994.31,-2.12,-1.93,0.00,1.07,0.23,9.26,-0.00,0.00,0.00,0.00
2026-06-26 19:39:26.051,994.33,994.31,-2.12,-1.93,0.00,1.07,0.23,9.26,-0.00,0.00,0.00,0.00
2026-06-26 19:39:26.055,994.33,994.31,-2.12,-1.93,0.00,1.07,0.23,9.26,0.00,0.00,-0.00,0.00
2026-06-26 19:39:26.057,994.33,994.31,-2.12,-1.93,0.00,1.05,0.24,9.26,0.00,0.00,-0.00,0.00
2026-06-26 19:39:26.058,994.33,994.31,-2.12,-1.93,0.00,1.05,0.24,9.26,0.00,0.00,-0.00,0.00
2026-06-26 19:39:26.203,994.33,994.31,-2.19,-1.96,0.00,1.07,0.23,9.25,0.00,0.00,-0.00,0.00
2026-06-26 19:39:26.206,994.33,994.31,-2.19,-1.96,0.00,1.05,0.22,9.27,-0.00,0.01,-0.00,0.00
2026-06-26 19:39:26.208,994.33,994.31,-2.19,-1.96,0.00,1.05,0.22,9.27,-0.00,0.01,-0.00,0.00
2026-06-26 19:39:26.215,994.33,994.31,-2.19,-1.96,0.00,1.05,0.22,9.27,-0.00,0.01,-0.00,0.00
2026-06-26 19:39:26.216,994.33,994.31,-2.19,-1.96,0.00,1.04,0.25,9.28,0.00,0.00,0.00,0.00
2026-06-26 19:39:26.218,994.33,994.31,-2.19,-1.96,0.00,1.04,0.25,9.28,0.00,0.00,0.00,0.00
2026-06-26 19:39:26.222,994.33,994.31,-2.19,-1.96,0.00,1.04,0.25,9.28,0.00,0.00,0.00,0.00
2026-06-26 19:39:26.225,994.33,994.31,-2.19,-1.96,0.00,1.04,0.25,9.28,0.00,-0.00,0.00,0.00
2026-06-26 19:39:26.227,994.33,994.31,-2.19,-1.96,0.00,1.06,0.23,9.28,0.00,-0.00,0.00,0.00
2026-06-26 19:39:26.229,994.33,994.31,-2.19,-1.96,0.00,1.06,0.23,9.28,0.00,-0.00,0.00,0.00
2026-06-26 19:39:26.234,994.33,994.31,-2.19,-1.96,0.00,1.06,0.23,9.28,0.00,-0.00,0.00,0.00
2026-06-26 19:39:26.376,994.33,994.31,-1.64,-1.70,0.00,1.05,0.22,9.28,0.00,-0.00,-0.00,0.00
2026-06-26 19:39:26.377,994.33,994.31,-1.64,-1.70,0.00,1.06,0.23,9.29,0.00,-0.00,-0.00,0.00
2026-06-26 19:39:26.379,994.33,994.31,-1.64,-1.70,0.00,1.06,0.23,9.29,0.00,-0.00,-0.00,0.00
2026-06-26 19:39:26.385,994.33,994.31,-1.64,-1.70,0.00,1.06,0.23,9.29,0.00,-0.00,-0.00,0.00
2026-06-26 19:39:26.387,994.33,994.31,-1.64,-1.70,0.00,1.07,0.22,9.26,0.00,0.00,0.00,0.00
2026-06-26 19:39:26.389,994.33,994.31,-1.64,-1.70,0.00,1.07,0.22,9.26,0.00,0.00,0.00,0.00
2026-06-26 19:39:26.391,994.33,994.31,-1.64,-1.70,0.00,1.07,0.22,9.26,0.00,0.00,0.00,0.00
2026-06-26 19:39:26.397,994.33,994.31,-1.64,-1.70,0.00,1.07,0.22,9.26,-0.00,-0.00,0.00,0.00
2026-06-26 19:39:26.399,994.33,994.31,-1.64,-1.70,0.00,1.06,0.26,9.25,-0.00,-0.00,0.00,0.00
2026-06-26 19:39:26.404,994.33,994.31,-1.64,-1.70,0.00,1.06,0.26,9.25,-0.00,-0.00,0.00,0.00
2026-06-26 19:39:26.406,994.33,994.31,-1.64,-1.70,0.00,1.06,0.23,9.28,0.00,-0.00,0.00,0.00
2026-06-26 19:39:26.552,994.33,994.31,-1.76,-1.75,0.00,1.06,0.24,9.28,-0.00,0.00,0.00,0.00
2026-06-26 19:39:26.558,994.33,994.31,-1.76,-1.75,0.00,1.06,0.24,9.28,0.00,0.00,-0.00,0.00
2026-06-26 19:39:26.560,994.33,994.31,-1.76,-1.75,0.00,1.07,0.22,9.27,0.00,0.00,-0.00,0.00
2026-06-26 19:39:26.565,994.33,994.31,-1.76,-1.75,0.00,1.07,0.22,9.27,0.00,0.00,-0.00,0.00
2026-06-26 19:39:26.567,994.33,994.31,-1.76,-1.75,0.00,1.06,0.24,9.29,0.00,0.00,0.00,0.00
2026-06-26 19:39:26.569,994.33,994.31,-1.76,-1.75,0.00,1.06,0.24,9.29,0.00,0.00,0.00,0.00
2026-06-26 19:39:26.574,994.33,994.31,-1.76,-1.75,0.00,1.06,0.24,9.29,0.00,0.00,0.00,0.00
2026-06-26 19:39:26.577,994.33,994.31,-1.76,-1.75,0.00,1.05,0.24,9.27,-0.00,0.00,-0.00,0.00
2026-06-26 19:39:26.579,994.33,994.31,-1.76,-1.75,0.00,1.05,0.24,9.27,-0.00,0.00,-0.00,0.00
2026-06-26 19:39:26.583,994.33,994.31,-1.76,-1.75,0.00,1.05,0.24,9.27,-0.00,0.00,-0.00,0.00
2026-06-26 19:39:26.726,994.33,994.31,-1.86,-1.81,0.00,1.04,0.24,9.28,0.00,-0.00,0.00,0.00
2026-06-26 19:39:26.728,994.33,994.31,-1.86,-1.81,0.00,1.06,0.22,9.27,0.00,-0.00,0.00,0.00
2026-06-26 19:39:26.729,994.33,994.31,-1.86,-1.81,0.00,1.06,0.22,9.27,0.00,-0.00,0.00,0.00
2026-06-26 19:39:26.734,994.33,994.31,-1.86,-1.81,0.00,1.06,0.22,9.27,0.00,-0.00,0.00,0.00
2026-06-26 19:39:26.737,994.33,994.31,-1.86,-1.81,0.00,1.04,0.22,9.25,-0.00,0.00,-0.00,0.00
2026-06-26 19:39:26.738,994.33,994.31,-1.86,-1.81,0.00,1.04,0.22,9.25,-0.00,0.00,-0.00,0.00
2026-06-26 19:39:26.740,994.33,994.31,-1.86,-1.81,0.00,1.04,0.22,9.25,-0.00,0.00,-0.00,0.00
2026-06-26 19:39:26.745,994.33,994.31,-1.86,-1.81,0.00,1.04,0.22,9.25,-0.00,0.00,-0.00,0.00
2026-06-26 19:39:26.747,994.33,994.31,-1.86,-1.81,0.00,1.06,0.23,9.26,0.00,0.00,0.00,0.00
2026-06-26 19:39:26.748,994.33,994.31,-1.86,-1.81,0.00,1.06,0.23,9.26,0.00,0.00,0.00,0.00
2026-06-26 19:39:26.750,994.33,994.31,-1.86,-1.81,0.00,1.06,0.23,9.26,0.00,0.00,0.00,0.00
2026-06-26 19:39:26.756,994.33,994.31,-1.86,-1.81,0.00,1.06,0.23,9.26,0.00,0.00,0.00,0.00
2026-06-26 19:39:26.758,994.33,994.31,-1.86,-1.81,0.00,1.06,0.23,9.28,-0.00,-0.00,0.00,0.00
2026-06-26 19:39:26.764,994.33,994.31,-1.86,-1.81,0.00,1.06,0.23,9.28,-0.00,-0.00,0.00,0.00
2026-06-26 19:39:26.909,994.33,994.31,-1.83,-1.79,0.00,1.06,0.23,9.28,-0.00,0.00,0.00,0.00
2026-06-26 19:39:26.911,994.33,994.31,-1.83,-1.79,0.00,1.06,0.23,9.28,-0.00,0.00,0.00,0.00
2026-06-26 19:39:26.913,994.33,994.31,-1.83,-1.79,0.00,1.06,0.23,9.28,-0.00,0.00,0.00,0.00
2026-06-26 19:39:26.917,994.33,994.31,-1.83,-1.79,0.00,1.07,0.23,9.26,0.00,0.00,0.00,0.00
2026-06-26 19:39:26.919,994.33,994.31,-1.83,-1.79,0.00,1.07,0.23,9.26,0.00,0.00,0.00,0.00
2026-06-26 19:39:26.922,994.33,994.31,-1.83,-1.79,0.00,1.07,0.23,9.26,0.00,0.00,0.00,0.00
2026-06-26 19:39:26.926,994.33,994.31,-1.83,-1.79,0.00,1.07,0.23,9.26,0.00,0.00,0.00,0.00
2026-06-26 19:39:26.928,994.33,994.31,-1.83,-1.79,0.00,1.07,0.25,9.28,0.00,0.00,0.00,0.00
2026-06-26 19:39:26.930,994.33,994.31,-1.83,-1.79,0.00,1.07,0.25,9.28,0.00,0.00,0.00,0.00
2026-06-26 19:39:26.935,994.33,994.31,-1.83,-1.79,0.00,1.07,0.25,9.28,0.00,0.00,0.00,0.00
2026-06-26 19:39:26.937,994.33,994.31,-1.83,-1.79,0.00,1.05,0.23,9.27,0.00,0.00,0.00,0.00
2026-06-26 19:39:26.939,994.33,994.31,-1.83,-1.79,0.00,1.05,0.23,9.27,0.00,0.00,0.00,0.00
2026-06-26 19:39:26.941,994.33,994.31,-1.83,-1.79,0.00,1.05,0.23,9.27,0.00,0.00,0.00,0.00
2026-06-26 19:39:26.946,994.33,994.31,-1.83,-1.79,0.00,1.05,0.23,9.27,0.00,0.00,0.00,0.00
2026-06-26 19:39:27.090,994.33,994.31,-1.83,-1.79,0.00,1.07,0.24,9.26,-0.00,-0.00,-0.00,0.00
2026-06-26 19:39:27.092,994.33,994.31,-1.83,-1.79,0.00,1.07,0.24,9.26,-0.00,-0.00,-0.00,0.00
2026-06-26 19:39:27.097,994.33,994.31,-1.83,-1.79,0.00,1.07,0.24,9.26,0.00,0.00,0.00,0.00
2026-06-26 19:39:27.099,994.33,994.31,-1.83,-1.79,0.00,1.07,0.24,9.27,0.00,0.00,0.00,0.00
2026-06-26 19:39:27.103,994.33,994.31,-1.83,-1.79,0.00,1.07,0.24,9.27,0.00,0.00,0.00,0.00
2026-06-26 19:39:27.108,994.33,994.31,-1.83,-1.79,0.00,1.07,0.24,9.27,0.00,0.00,0.00,0.00
2026-06-26 19:39:27.110,994.33,994.31,-1.83,-1.79,0.00,1.06,0.22,9.25,0.00,0.00,0.00,0.00
2026-06-26 19:39:27.111,994.33,994.31,-1.83,-1.79,0.00,1.06,0.22,9.25,0.00,0.00,0.00,0.00
2026-06-26 19:39:27.113,994.33,994.31,-1.83,-1.79,0.00,1.06,0.22,9.25,0.00,0.00,0.00,0.00
2026-06-26 19:39:27.118,994.33,994.31,-1.83,-1.79,0.00,1.06,0.22,9.25,-0.00,0.00,0.00,0.00
2026-06-26 19:39:27.121,994.33,994.31,-1.83,-1.79,0.00,1.06,0.24,9.27,-0.00,0.00,0.00,0.00
2026-06-26 19:39:27.127,994.33,994.31,-1.83,-1.79,0.00,1.06,0.24,9.27,-0.00,0.00,0.00,0.00
2026-06-26 19:39:27.269,994.33,994.31,-1.79,-1.77,0.00,1.06,0.24,9.27,-0.00,0.00,0.00,0.00
2026-06-26 19:39:27.270,994.33,994.31,-1.79,-1.77,0.00,1.06,0.24,9.27,-0.00,0.00,0.00,0.00
2026-06-26 19:39:27.276,994.33,994.31,-1.79,-1.77,0.00,1.06,0.24,9.27,-0.00,0.00,0.00,0.00
2026-06-26 19:39:27.278,994.33,994.31,-1.79,-1.77,0.00,1.06,0.22,9.26,0.00,0.00,0.00,0.00
2026-06-26 19:39:27.280,994.33,994.31,-1.79,-1.77,0.00,1.06,0.22,9.26,0.00,0.00,0.00,0.00
2026-06-26 19:39:27.281,994.33,994.31,-1.79,-1.77,0.00,1.06,0.22,9.26,0.00,0.00,0.00,0.00
2026-06-26 19:39:27.288,994.33,994.31,-1.79,-1.77,0.00,1.06,0.22,9.26,0.00,0.00,-0.00,0.00
2026-06-26 19:39:27.290,994.33,994.31,-1.79,-1.77,0.00,1.06,0.23,9.24,0.00,0.00,-0.00,0.00
2026-06-26 19:39:27.292,994.33,994.31,-1.79,-1.77,0.00,1.06,0.23,9.24,0.00,0.00,-0.00,0.00
2026-06-26 19:39:27.297,994.33,994.31,-1.79,-1.77,0.00,1.06,0.23,9.24,0.00,0.00,-0.00,0.00
2026-06-26 19:39:27.299,994.33,994.31,-1.79,-1.77,0.00,1.07,0.23,9.25,-0.00,0.00,0.00,0.00
2026-06-26 19:39:27.300,994.33,994.31,-1.79,-1.77,0.00,1.07,0.23,9.25,-0.00,0.00,0.00,0.00
2026-06-26 19:39:27.304,994.33,994.31,-1.79,-1.77,0.00,1.07,0.23,9.25,-0.00,0.00,0.00,0.00
2026-06-26 19:39:27.447,994.33,994.31,-1.35,-1.54,0.00,1.07,0.23,9.28,0.00,0.00,0.00,0.00
2026-06-26 19:39:27.449,994.33,994.31,-1.35,-1.54,0.00,1.08,0.24,9.29,-0.00,0.00,0.00,0.00
2026-06-26 19:39:27.451,994.33,994.31,-1.35,-1.54,0.00,1.08,0.24,9.29,-0.00,0.00,0.00,0.00
2026-06-26 19:39:27.455,994.33,994.31,-1.35,-1.54,0.00,1.08,0.24,9.29,-0.00,0.00,0.00,0.00
2026-06-26 19:39:27.458,994.33,994.31,-1.35,-1.54,0.00,1.08,0.24,9.29,0.00,0.00,-0.00,0.00
2026-06-26 19:39:27.461,994.33,994.31,-1.35,-1.54,0.00,1.06,0.25,9.27,0.00,0.00,-0.00,0.00
2026-06-26 19:39:27.463,994.33,994.31,-1.35,-1.54,0.00,1.06,0.25,9.27,0.00,0.00,-0.00,0.00
2026-06-26 19:39:27.465,994.33,994.31,-1.35,-1.54,0.00,1.06,0.25,9.27,0.00,0.00,-0.00,0.00
2026-06-26 19:39:27.468,994.33,994.31,-1.35,-1.54,0.00,1.06,0.25,9.27,-0.00,0.00,-0.00,0.00
2026-06-26 19:39:27.469,994.33,994.31,-1.35,-1.54,0.00,1.05,0.23,9.27,-0.00,0.00,-0.00,0.00
2026-06-26 19:39:27.471,994.33,994.31,-1.35,-1.54,0.00,1.05,0.23,9.27,-0.00,0.00,-0.00,0.00
2026-06-26 19:39:27.476,994.33,994.31,-1.35,-1.54,0.00,1.05,0.23,9.27,-0.00,0.00,-0.00,0.00
2026-06-26 19:39:27.478,994.33,994.31,-1.35,-1.54,0.00,1.05,0.23,9.28,0.00,-0.00,-0.00,0.00
2026-06-26 19:39:27.480,994.33,994.31,-1.35,-1.54,0.00,1.05,0.23,9.28,0.00,-0.00,-0.00,0.00
2026-06-26 19:39:27.627,994.33,994.31,-1.41,-1.57,0.00,1.05,0.23,9.27,0.00,-0.00,0.00,0.00
2026-06-26 19:39:27.631,994.33,994.31,-1.41,-1.57,0.00,1.06,0.24,9.30,0.00,-0.00,0.00,0.00
2026-06-26 19:39:27.638,994.33,994.31,-1.41,-1.57,0.00,1.06,0.24,9.30,0.00,-0.00,0.00,0.00
2026-06-26 19:39:27.639,994.33,994.31,-1.41,-1.57,0.00,1.05,0.23,9.24,0.00,-0.00,-0.00,0.00
2026-06-26 19:39:27.641,994.33,994.31,-1.41,-1.57,0.00,1.05,0.23,9.24,0.00,-0.00,-0.00,0.00
2026-06-26 19:39:27.647,994.33,994.31,-1.41,-1.57,0.00,1.05,0.23,9.24,0.00,-0.00,-0.00,0.00
2026-06-26 19:39:27.650,994.33,994.31,-1.41,-1.57,0.00,1.06,0.22,9.28,-0.00,-0.00,0.00,0.00
2026-06-26 19:39:27.654,994.33,994.31,-1.41,-1.57,0.00,1.06,0.22,9.28,-0.00,-0.00,0.00,0.00
2026-06-26 19:39:27.659,994.33,994.31,-1.41,-1.57,0.00,1.06,0.22,9.28,0.00,0.00,0.00,0.00
2026-06-26 19:39:27.800,994.33,994.31,-1.57,-1.66,0.00,1.06,0.24,9.27,0.00,-0.00,0.00,0.00
2026-06-26 19:39:27.808,994.33,994.31,-1.57,-1.66,0.00,1.06,0.24,9.27,0.00,-0.00,0.00,0.00
2026-06-26 19:39:27.810,994.33,994.31,-1.57,-1.66,0.00,1.04,0.22,9.29,-0.00,0.00,0.00,0.00
2026-06-26 19:39:27.812,994.33,994.31,-1.57,-1.66,0.00,1.04,0.22,9.29,-0.00,0.00,0.00,0.00
2026-06-26 19:39:27.814,994.33,994.31,-1.57,-1.66,0.00,1.04,0.22,9.29,-0.00,0.00,0.00,0.00
2026-06-26 19:39:27.817,994.33,994.31,-1.57,-1.66,0.00,1.04,0.22,9.29,-0.00,0.00,0.00,0.00
2026-06-26 19:39:27.819,994.33,994.31,-1.57,-1.66,0.00,1.07,0.23,9.28,0.00,0.00,0.00,0.00
2026-06-26 19:39:27.821,994.33,994.31,-1.57,-1.66,0.00,1.07,0.23,9.28,0.00,0.00,0.00,0.00
2026-06-26 19:39:27.824,994.33,994.31,-1.57,-1.66,0.00,1.07,0.23,9.28,0.00,0.00,0.00,0.00
2026-06-26 19:39:27.829,994.33,994.31,-1.57,-1.66,0.00,1.07,0.23,9.28,0.00,-0.00,-0.00,0.00
2026-06-26 19:39:27.838,994.33,994.31,-1.57,-1.66,0.00,1.08,0.23,9.29,0.00,-0.00,-0.00,0.00
2026-06-26 19:39:27.979,994.33,994.31,-1.75,-1.75,0.00,1.08,0.25,9.27,0.00,0.00,0.00,0.00
2026-06-26 19:39:27.981,994.33,994.31,-1.75,-1.75,0.00,1.06,0.23,9.26,0.00,0.00,0.00,0.00
2026-06-26 19:39:27.982,994.33,994.31,-1.75,-1.75,0.00,1.06,0.23,9.26,0.00,0.00,0.00,0.00
2026-06-26 19:39:27.988,994.33,994.31,-1.75,-1.75,0.00,1.06,0.23,9.26,0.00,0.00,0.00,0.00
2026-06-26 19:39:27.990,994.33,994.31,-1.75,-1.75,0.00,1.06,0.25,9.25,0.00,0.00,0.00,0.00
2026-06-26 19:39:27.991,994.33,994.31,-1.75,-1.75,0.00,1.06,0.25,9.25,0.00,0.00,0.00,0.00
2026-06-26 19:39:27.993,994.33,994.31,-1.75,-1.75,0.00,1.06,0.25,9.25,0.00,0.00,0.00,0.00
2026-06-26 19:39:27.998,994.33,994.31,-1.75,-1.75,0.00,1.06,0.25,9.25,0.00,0.00,0.00,0.00
2026-06-26 19:39:27.001,994.33,994.31,-1.75,-1.75,0.00,1.08,0.22,9.27,-0.00,0.00,-0.00,0.00
2026-06-26 19:39:28.008,994.33,994.31,-1.75,-1.75,0.00,1.08,0.22,9.27,-0.00,0.00,-0.00,0.00
2026-06-26 19:39:28.010,994.33,994.31,-1.75,-1.75,0.00,1.06,0.23,9.29,0.00,-0.00,0.00,0.00
2026-06-26 19:39:28.149,994.33,994.31,-1.68,-1.72,0.00,1.06,0.21,9.28,0.00,0.00,0.00,0.00
2026-06-26 19:39:28.151,994.33,994.31,-1.68,-1.72,0.00,1.09,0.23,9.28,0.00,0.00,0.00,0.00
2026-06-26 19:39:28.153,994.33,994.31,-1.68,-1.72,0.00,1.09,0.23,9.28,0.00,0.00,0.00,0.00
2026-06-26 19:39:28.159,994.33,994.31,-1.68,-1.72,0.00,1.09,0.23,9.28,0.00,0.00,0.00,0.00
2026-06-26 19:39:28.160,994.33,994.31,-1.68,-1.72,0.00,1.06,0.23,9.29,0.00,-0.00,0.00,0.00
2026-06-26 19:39:28.162,994.33,994.31,-1.68,-1.72,0.00,1.06,0.23,9.29,0.00,-0.00,0.00,0.00
2026-06-26 19:39:28.164,994.33,994.31,-1.68,-1.72,0.00,1.06,0.23,9.29,0.00,-0.00,0.00,0.00
2026-06-26 19:39:28.165,994.33,994.31,-1.68,-1.72,0.00,1.06,0.23,9.29,0.00,-0.00,0.00,0.00
2026-06-26 19:39:28.168,994.33,994.31,-1.68,-1.72,0.00,1.06,0.23,9.29,0.00,-0.00,0.00,0.00
2026-06-26 19:39:28.170,994.33,994.31,-1.68,-1.72,0.00,1.06,0.23,9.31,0.00,-0.00,0.00,0.00
2026-06-26 19:39:28.171,994.33,994.31,-1.68,-1.72,0.00,1.06,0.23,9.31,0.00,-0.00,0.00,0.00
2026-06-26 19:39:28.173,994.33,994.31,-1.68,-1.72,0.00,1.06,0.23,9.31,0.00,-0.00,0.00,0.00
2026-06-26 19:39:28.179,994.33,994.31,-1.68,-1.72,0.00,1.06,0.23,9.31,0.00,-0.00,0.00,0.00
2026-06-26 19:39:28.181,994.33,994.31,-1.68,-1.72,0.00,1.05,0.23,9.28,0.00,0.00,-0.00,0.00
2026-06-26 19:39:28.190,994.33,994.31,-1.68,-1.72,0.00,1.05,0.23,9.28,0.00,0.00,0.00,0.00
2026-06-26 19:39:28.327,994.33,994.31,-1.65,-1.70,0.00,1.06,0.23,9.33,-0.00,-0.00,0.00,0.00
2026-06-26 19:39:28.330,994.33,994.31,-1.65,-1.70,0.00,1.06,0.23,9.33,0.00,-0.00,0.00,0.00
2026-06-26 19:39:28.331,994.33,994.31,-1.65,-1.70,0.00,1.07,0.22,9.27,0.00,-0.00,0.00,0.00
2026-06-26 19:39:28.332,994.33,994.31,-1.65,-1.70,0.00,1.07,0.22,9.27,0.00,-0.00,0.00,0.00
2026-06-26 19:39:28.333,994.33,994.31,-1.65,-1.70,0.00,1.07,0.22,9.27,0.00,-0.00,0.00,0.00
2026-06-26 19:39:28.340,994.33,994.31,-1.65,-1.70,0.00,1.07,0.22,9.27,0.00,0.00,-0.00,0.00
2026-06-26 19:39:28.341,994.33,994.31,-1.65,-1.70,0.00,1.09,0.23,9.26,0.00,0.00,-0.00,0.00
2026-06-26 19:39:28.342,994.33,994.31,-1.65,-1.70,0.00,1.09,0.23,9.26,0.00,0.00,-0.00,0.00
2026-06-26 19:39:28.344,994.33,994.31,-1.65,-1.70,0.00,1.09,0.23,9.26,0.00,0.00,-0.00,0.00
2026-06-26 19:39:28.349,994.33,994.31,-1.65,-1.70,0.00,1.09,0.23,9.26,0.00,0.00,-0.00,0.00
2026-06-26 19:39:28.350,994.33,994.31,-1.65,-1.70,0.00,1.08,0.25,9.27,0.00,-0.00,0.00,0.00
2026-06-26 19:39:28.352,994.33,994.31,-1.65,-1.70,0.00,1.08,0.25,9.27,0.00,-0.00,0.00,0.00
2026-06-26 19:39:28.353,994.33,994.31,-1.65,-1.70,0.00,1.08,0.25,9.27,0.00,-0.00,0.00,0.00
2026-06-26 19:39:28.356,994.33,994.31,-1.65,-1.70,0.00,1.08,0.25,9.27,0.00,-0.00,0.00,0.00
2026-06-26 19:39:28.361,994.33,994.31,-1.65,-1.70,0.00,1.08,0.25,9.27,0.00,-0.00,0.00,0.00
2026-06-26 19:39:28.362,994.33,994.31,-1.65,-1.70,0.00,1.05,0.22,9.28,0.00,-0.00,0.00,0.00
2026-06-26 19:39:28.501,994.33,994.32,-1.10,-1.39,0.00,1.06,0.24,9.27,0.00,0.00,-0.00,0.00
2026-06-26 19:39:28.502,994.33,994.32,-1.10,-1.39,0.00,1.06,0.24,9.27,0.00,0.00,-0.00,0.00
2026-06-26 19:39:28.504,994.33,994.32,-1.10,-1.39,0.00,1.06,0.24,9.27,0.00,0.00,-0.00,0.00
2026-06-26 19:39:28.509,994.33,994.32,-1.10,-1.39,0.00,1.06,0.24,9.27,0.00,0.00,-0.00,0.00
2026-06-26 19:39:28.511,994.33,994.32,-1.10,-1.39,0.00,1.06,0.22,9.27,0.00,0.00,0.00,0.00
2026-06-26 19:39:28.512,994.33,994.32,-1.10,-1.39,0.00,1.06,0.22,9.27,0.00,0.00,0.00,0.00
2026-06-26 19:39:28.513,994.33,994.32,-1.10,-1.39,0.00,1.06,0.22,9.27,0.00,0.00,0.00,0.00
2026-06-26 19:39:28.514,994.33,994.32,-1.10,-1.39,0.00,1.06,0.22,9.27,0.00,0.00,0.00,0.00
2026-06-26 19:39:28.516,994.33,994.32,-1.10,-1.39,0.00,1.06,0.22,9.27,0.00,0.00,0.00,0.00
2026-06-26 19:39:28.517,994.33,994.32,-1.10,-1.39,0.00,1.06,0.22,9.27,0.00,0.00,0.00,0.00
2026-06-26 19:39:28.520,994.33,994.32,-1.10,-1.39,0.00,1.06,0.22,9.27,0.00,0.00,0.00,0.00
2026-06-26 19:39:28.523,994.33,994.32,-1.10,-1.39,0.00,1.08,0.22,9.28,0.00,0.00,0.00,0.00
2026-06-26 19:39:28.526,994.33,994.32,-1.10,-1.39,0.00,1.08,0.22,9.28,0.00,0.00,0.00,0.00
2026-06-26 19:39:28.530,994.33,994.32,-1.10,-1.39,0.00,1.08,0.22,9.28,0.00,-0.00,0.00,0.00
2026-06-26 19:39:28.532,994.33,994.32,-1.10,-1.39,0.00,1.06,0.24,9.28,0.00,-0.00,0.00,0.00
2026-06-26 19:39:28.534,994.33,994.32,-1.10,-1.39,0.00,1.06,0.24,9.28,0.00,-0.00,0.00,0.00
2026-06-26 19:39:28.539,994.33,994.32,-1.10,-1.39,0.00,1.06,0.24,9.28,0.00,-0.00,0.00,0.00
2026-06-26 19:39:28.682,994.33,994.31,-1.52,-1.63,0.00,1.07,0.26,9.29,0.00,-0.00,0.00,0.00
2026-06-26 19:39:28.683,994.33,994.31,-1.52,-1.63,0.00,1.07,0.26,9.29,0.00,-0.00,0.00,0.00
2026-06-26 19:39:28.685,994.33,994.31,-1.52,-1.63,0.00,1.07,0.26,9.29,0.00,-0.00,0.00,0.00
2026-06-26 19:39:28.690,994.33,994.31,-1.52,-1.63,0.00,1.07,0.26,9.29,0.00,-0.00,0.00,0.00
2026-06-26 19:39:28.692,994.33,994.31,-1.52,-1.63,0.00,1.08,0.22,9.27,0.00,-0.00,-0.00,0.00
2026-06-26 19:39:28.694,994.33,994.31,-1.52,-1.63,0.00,1.08,0.22,9.27,0.00,-0.00,-0.00,0.00
2026-06-26 19:39:28.695,994.33,994.31,-1.52,-1.63,0.00,1.08,0.22,9.27,0.00,-0.00,-0.00,0.00
2026-06-26 19:39:28.700,994.33,994.31,-1.52,-1.63,0.00,1.08,0.22,9.27,-0.00,0.00,-0.00,0.00
2026-06-26 19:39:28.702,994.33,994.31,-1.52,-1.63,0.00,1.05,0.24,9.26,-0.00,0.00,-0.00,0.00
2026-06-26 19:39:28.703,994.33,994.31,-1.52,-1.63,0.00,1.05,0.24,9.26,-0.00,0.00,-0.00,0.00
2026-06-26 19:39:28.704,994.33,994.31,-1.52,-1.63,0.00,1.05,0.24,9.26,-0.00,0.00,-0.00,0.00
2026-06-26 19:39:28.709,994.33,994.31,-1.52,-1.63,0.00,1.05,0.24,9.26,-0.00,0.00,-0.00,0.00
2026-06-26 19:39:28.711,994.33,994.31,-1.52,-1.63,0.00,1.06,0.23,9.26,0.00,0.00,-0.00,0.00
2026-06-26 19:39:28.714,994.33,994.31,-1.52,-1.63,0.00,1.06,0.23,9.26,0.00,0.00,-0.00,0.00
2026-06-26 19:39:28.716,994.33,994.31,-1.52,-1.63,0.00,1.06,0.23,9.26,0.00,0.00,-0.00,0.00
2026-06-26 19:39:28.861,994.33,994.31,-1.35,-1.54,0.00,1.06,0.23,9.27,-0.00,0.00,0.00,0.00
2026-06-26 19:39:28.862,994.33,994.31,-1.35,-1.54,0.00,1.05,0.20,9.28,-0.00,0.00,0.00,0.00
2026-06-26 19:39:28.864,994.33,994.31,-1.35,-1.54,0.00,1.05,0.20,9.28,-0.00,0.00,0.00,0.00
2026-06-26 19:39:28.865,994.33,994.31,-1.35,-1.54,0.00,1.05,0.20,9.28,-0.00,0.00,0.00,0.00
2026-06-26 19:39:28.866,994.33,994.31,-1.35,-1.54,0.00,1.05,0.20,9.28,-0.00,0.00,0.00,0.00
2026-06-26 19:39:28.867,994.33,994.31,-1.35,-1.54,0.00,1.05,0.20,9.28,-0.00,0.00,0.00,0.00
2026-06-26 19:39:28.869,994.33,994.31,-1.35,-1.54,0.00,1.05,0.20,9.28,-0.00,0.00,0.00,0.00
2026-06-26 19:39:28.871,994.33,994.31,-1.35,-1.54,0.00,1.05,0.20,9.28,-0.00,0.00,0.00,0.00
2026-06-26 19:39:28.872,994.33,994.31,-1.35,-1.54,0.00,1.06,0.23,9.28,-0.00,0.00,0.00,0.00
2026-06-26 19:39:28.873,994.33,994.31,-1.35,-1.54,0.00,1.06,0.23,9.28,-0.00,0.00,0.00,0.00
2026-06-26 19:39:28.874,994.33,994.31,-1.35,-1.54,0.00,1.06,0.23,9.28,-0.00,0.00,0.00,0.00
2026-06-26 19:39:28.880,994.33,994.31,-1.35,-1.54,0.00,1.06,0.23,9.28,-0.00,0.00,0.00,0.00
2026-06-26 19:39:28.881,994.33,994.31,-1.35,-1.54,0.00,1.03,0.23,9.29,0.00,-0.00,-0.00,0.00
2026-06-26 19:39:28.882,994.33,994.31,-1.35,-1.54,0.00,1.03,0.23,9.29,0.00,-0.00,-0.00,0.00
2026-06-26 19:39:28.884,994.33,994.31,-1.35,-1.54,0.00,1.03,0.23,9.29,0.00,-0.00,-0.00,0.00
2026-06-26 19:39:28.885,994.33,994.31,-1.35,-1.54,0.00,1.03,0.23,9.29,0.00,-0.00,-0.00,0.00
2026-06-26 19:39:28.890,994.33,994.31,-1.35,-1.54,0.00,1.03,0.23,9.29,0.00,-0.00,-0.00,0.00
2026-06-26 19:39:28.892,994.33,994.31,-1.35,-1.54,0.00,1.04,0.24,9.26,0.00,-0.00,-0.00,0.00
2026-06-26 19:39:29.032,994.33,994.31,-1.17,-1.43,0.00,1.07,0.24,9.28,0.00,-0.00,0.00,0.00
2026-06-26 19:39:29.033,994.33,994.31,-1.17,-1.43,0.00,1.07,0.24,9.28,0.00,-0.00,0.00,0.00
2026-06-26 19:39:29.037,994.33,994.31,-1.17,-1.43,0.00,1.07,0.24,9.28,0.00,-0.00,0.00,0.00
2026-06-26 19:39:29.042,994.33,994.31,-1.17,-1.43,0.00,1.07,0.24,9.28,0.00,0.00,-0.00,0.00
2026-06-26 19:39:29.043,994.33,994.31,-1.17,-1.43,0.00,1.06,0.21,9.27,0.00,0.00,-0.00,0.00
2026-06-26 19:39:29.045,994.33,994.31,-1.17,-1.43,0.00,1.06,0.21,9.27,0.00,0.00,-0.00,0.00
2026-06-26 19:39:29.050,994.33,994.31,-1.17,-1.43,0.00,1.06,0.21,9.27,0.00,0.00,-0.00,0.00
2026-06-26 19:39:29.052,994.33,994.31,-1.17,-1.43,0.00,1.08,0.23,9.26,0.00,0.00,-0.00,0.00
2026-06-26 19:39:29.053,994.33,994.31,-1.17,-1.43,0.00,1.08,0.23,9.26,0.00,0.00,-0.00,0.00
2026-06-26 19:39:29.054,994.33,994.31,-1.17,-1.43,0.00,1.08,0.23,9.26,0.00,0.00,-0.00,0.00
2026-06-26 19:39:29.056,994.33,994.31,-1.17,-1.43,0.00,1.08,0.23,9.26,0.00,0.00,-0.00,0.00
2026-06-26 19:39:29.061,994.33,994.31,-1.17,-1.43,0.00,1.08,0.23,9.26,0.00,0.00,-0.00,0.00
2026-06-26 19:39:29.062,994.33,994.31,-1.17,-1.43,0.00,1.06,0.23,9.31,-0.00,-0.00,-0.00,0.00
2026-06-26 19:39:29.063,994.33,994.31,-1.17,-1.43,0.00,1.06,0.23,9.31,-0.00,-0.00,-0.00,0.00
2026-06-26 19:39:29.065,994.33,994.31,-1.17,-1.43,0.00,1.06,0.23,9.31,-0.00,-0.00,-0.00,0.00
2026-06-26 19:39:29.066,994.33,994.31,-1.17,-1.43,0.00,1.06,0.23,9.31,-0.00,-0.00,-0.00,0.00
2026-06-26 19:39:29.210,994.33,994.31,-1.25,-1.48,0.00,1.08,0.22,9.28,0.00,0.00,0.00,0.00
2026-06-26 19:39:29.212,994.33,994.31,-1.25,-1.48,0.00,1.05,0.24,9.27,0.00,0.00,0.00,0.00
2026-06-26 19:39:29.213,994.33,994.31,-1.25,-1.48,0.00,1.05,0.24,9.27,0.00,0.00,0.00,0.00
2026-06-26 19:39:29.214,994.33,994.31,-1.25,-1.48,0.00,1.05,0.24,9.27,0.00,0.00,0.00,0.00
2026-06-26 19:39:29.216,994.33,994.31,-1.25,-1.48,0.00,1.05,0.24,9.27,0.00,0.00,0.00,0.00
2026-06-26 19:39:29.217,994.33,994.31,-1.25,-1.48,0.00,1.05,0.24,9.27,0.00,0.00,0.00,0.00
2026-06-26 19:39:29.218,994.33,994.31,-1.25,-1.48,0.00,1.05,0.24,9.27,0.00,0.00,0.00,0.00
2026-06-26 19:39:29.219,994.33,994.31,-1.25,-1.48,0.00,1.05,0.24,9.27,0.00,0.00,0.00,0.00
2026-06-26 19:39:29.222,994.33,994.31,-1.25,-1.48,0.00,1.05,0.24,9.27,-0.00,0.00,0.00,0.00
2026-06-26 19:39:29.223,994.33,994.31,-1.25,-1.48,0.00,1.06,0.23,9.28,-0.00,0.00,0.00,0.00
2026-06-26 19:39:29.224,994.33,994.31,-1.25,-1.48,0.00,1.06,0.23,9.28,-0.00,0.00,0.00,0.00
2026-06-26 19:39:29.225,994.33,994.31,-1.25,-1.48,0.00,1.06,0.23,9.28,-0.00,0.00,0.00,0.00
2026-06-26 19:39:29.230,994.33,994.31,-1.25,-1.48,0.00,1.06,0.23,9.28,-0.00,0.00,0.00,0.00
2026-06-26 19:39:29.233,994.33,994.31,-1.25,-1.48,0.00,1.05,0.23,9.27,0.00,-0.00,0.00,0.00
2026-06-26 19:39:29.235,994.33,994.31,-1.25,-1.48,0.00,1.05,0.23,9.27,0.00,-0.00,0.00,0.00
2026-06-26 19:39:29.241,994.33,994.31,-1.25,-1.48,0.00,1.05,0.23,9.27,0.00,-0.00,0.00,0.00
2026-06-26 19:39:29.382,994.32,994.31,-1.23,-1.47,0.00,1.07,0.24,9.27,0.00,0.00,0.00,0.00
2026-06-26 19:39:29.383,994.32,994.31,-1.23,-1.47,0.00,1.05,0.25,9.30,0.00,0.00,0.00,0.00
2026-06-26 19:39:29.384,994.32,994.31,-1.23,-1.47,0.00,1.05,0.25,9.30,0.00,0.00,0.00,0.00
2026-06-26 19:39:29.386,994.32,994.31,-1.23,-1.47,0.00,1.05,0.25,9.30,0.00,0.00,0.00,0.00
2026-06-26 19:39:29.391,994.32,994.31,-1.23,-1.47,0.00,1.05,0.25,9.30,0.00,0.00,0.00,0.00
2026-06-26 19:39:29.392,994.32,994.31,-1.23,-1.47,0.00,1.06,0.25,9.27,-0.00,0.00,-0.00,0.00
2026-06-26 19:39:29.393,994.32,994.31,-1.23,-1.47,0.00,1.06,0.25,9.27,-0.00,0.00,-0.00,0.00
2026-06-26 19:39:29.395,994.32,994.31,-1.23,-1.47,0.00,1.06,0.25,9.27,-0.00,0.00,-0.00,0.00
2026-06-26 19:39:29.396,994.32,994.31,-1.23,-1.47,0.00,1.06,0.25,9.27,-0.00,0.00,-0.00,0.00
2026-06-26 19:39:29.398,994.32,994.31,-1.23,-1.47,0.00,1.06,0.25,9.27,-0.00,0.00,-0.00,0.00
2026-06-26 19:39:29.402,994.32,994.31,-1.23,-1.47,0.00,1.06,0.25,9.27,0.00,0.00,0.00,0.00
2026-06-26 19:39:29.403,994.32,994.31,-1.23,-1.47,0.00,1.08,0.22,9.31,0.00,0.00,0.00,0.00
2026-06-26 19:39:29.404,994.32,994.31,-1.23,-1.47,0.00,1.08,0.22,9.31,0.00,0.00,0.00,0.00
2026-06-26 19:39:29.405,994.32,994.31,-1.23,-1.47,0.00,1.08,0.22,9.31,0.00,0.00,0.00,0.00
2026-06-26 19:39:29.409,994.32,994.31,-1.23,-1.47,0.00,1.08,0.22,9.31,0.00,0.00,0.00,0.00
2026-06-26 19:39:29.412,994.32,994.31,-1.23,-1.47,0.00,1.08,0.22,9.31,0.00,0.00,0.00,0.00
2026-06-26 19:39:29.413,994.32,994.31,-1.23,-1.47,0.00,1.07,0.24,9.30,0.00,0.00,0.00,0.00
2026-06-26 19:39:29.415,994.32,994.31,-1.23,-1.47,0.00,1.07,0.24,9.30,0.00,0.00,0.00,0.00
2026-06-26 19:39:29.416,994.32,994.31,-1.23,-1.47,0.00,1.07,0.24,9.30,0.00,0.00,0.00,0.00
2026-06-26 19:39:29.417,994.32,994.31,-1.23,-1.47,0.00,1.07,0.24,9.30,0.00,0.00,0.00,0.00
2026-06-26 19:39:29.562,994.33,994.31,-1.37,-1.55,0.00,1.04,0.21,9.26,0.00,-0.00,0.00,0.00
2026-06-26 19:39:29.563,994.33,994.31,-1.37,-1.55,0.00,1.05,0.22,9.26,0.00,0.00,0.00,0.00
2026-06-26 19:39:29.564,994.33,994.31,-1.37,-1.55,0.00,1.05,0.22,9.26,0.00,0.00,0.00,0.00
2026-06-26 19:39:29.566,994.33,994.31,-1.37,-1.55,0.00,1.05,0.22,9.26,0.00,0.00,0.00,0.00
2026-06-26 19:39:29.567,994.33,994.31,-1.37,-1.55,0.00,1.05,0.22,9.26,0.00,0.00,0.00,0.00
2026-06-26 19:39:29.568,994.33,994.31,-1.37,-1.55,0.00,1.05,0.22,9.26,0.00,0.00,0.00,0.00
2026-06-26 19:39:29.569,994.33,994.31,-1.37,-1.55,0.00,1.05,0.22,9.26,0.00,0.00,0.00,0.00
2026-06-26 19:39:29.572,994.33,994.31,-1.37,-1.55,0.00,1.05,0.22,9.26,0.00,0.00,0.00,0.00
2026-06-26 19:39:29.573,994.33,994.31,-1.37,-1.55,0.00,1.07,0.22,9.29,-0.00,0.00,0.00,0.00
2026-06-26 19:39:29.576,994.33,994.31,-1.37,-1.55,0.00,1.07,0.22,9.29,-0.00,0.00,0.00,0.00
2026-06-26 19:39:29.582,994.33,994.31,-1.37,-1.55,0.00,1.07,0.22,9.29,-0.00,0.00,0.00,0.00
2026-06-26 19:39:29.583,994.33,994.31,-1.37,-1.55,0.00,1.08,0.24,9.29,-0.00,0.00,0.00,0.00
2026-06-26 19:39:29.585,994.33,994.31,-1.37,-1.55,0.00,1.08,0.24,9.29,-0.00,0.00,0.00,0.00
2026-06-26 19:39:29.589,994.33,994.31,-1.37,-1.55,0.00,1.08,0.24,9.29,-0.00,0.00,0.00,0.00
2026-06-26 19:39:29.592,994.33,994.31,-1.37,-1.55,0.00,1.08,0.24,9.29,-0.00,0.00,-0.00,0.00
2026-06-26 19:39:29.593,994.33,994.31,-1.37,-1.55,0.00,1.07,0.22,9.27,-0.00,0.00,-0.00,0.00
2026-06-26 19:39:29.733,994.33,994.31,-1.54,-1.64,0.00,1.06,0.24,9.30,0.00,0.00,0.00,0.00
2026-06-26 19:39:29.734,994.33,994.31,-1.54,-1.64,0.00,1.05,0.22,9.28,0.00,0.00,0.00,0.00
2026-06-26 19:39:29.739,994.33,994.31,-1.54,-1.64,0.00,1.05,0.22,9.28,0.00,0.00,0.00,0.00
2026-06-26 19:39:29.743,994.33,994.31,-1.54,-1.64,0.00,1.05,0.22,9.28,-0.00,0.00,-0.00,0.00
2026-06-26 19:39:29.744,994.33,994.31,-1.54,-1.64,0.00,1.06,0.24,9.25,-0.00,0.00,-0.00,0.00
2026-06-26 19:39:29.745,994.33,994.31,-1.54,-1.64,0.00,1.06,0.24,9.25,-0.00,0.00,-0.00,0.00
2026-06-26 19:39:29.748,994.33,994.31,-1.54,-1.64,0.00,1.06,0.24,9.25,-0.00,0.00,-0.00,0.00
2026-06-26 19:39:29.752,994.33,994.31,-1.54,-1.64,0.00,1.06,0.24,9.25,-0.00,0.00,-0.00,0.00
2026-06-26 19:39:29.754,994.33,994.31,-1.54,-1.64,0.00,1.06,0.22,9.29,0.00,-0.00,-0.00,0.00
2026-06-26 19:39:29.756,994.33,994.31,-1.54,-1.64,0.00,1.06,0.22,9.29,0.00,-0.00,-0.00,0.00
2026-06-26 19:39:29.762,994.33,994.31,-1.54,-1.64,0.00,1.06,0.22,9.29,0.00,-0.00,-0.00,0.00
2026-06-26 19:39:29.764,994.33,994.31,-1.54,-1.64,0.00,1.06,0.26,9.27,0.00,0.00,-0.00,0.00
2026-06-26 19:39:29.765,994.33,994.31,-1.54,-1.64,0.00,1.06,0.26,9.27,0.00,0.00,-0.00,0.00
2026-06-26 19:39:29.766,994.33,994.31,-1.54,-1.64,0.00,1.06,0.26,9.27,0.00,0.00,-0.00,0.00
2026-06-26 19:39:29.767,994.33,994.31,-1.54,-1.64,0.00,1.06,0.26,9.27,0.00,0.00,-0.00,0.00
2026-06-26 19:39:29.768,994.33,994.31,-1.54,-1.64,0.00,1.06,0.26,9.27,0.00,0.00,-0.00,0.00
2026-06-26 19:39:29.906,994.33,994.31,-1.61,-1.68,0.00,1.05,0.22,9.28,0.00,0.00,0.00,0.00
2026-06-26 19:39:29.909,994.33,994.31,-1.61,-1.68,0.00,1.05,0.22,9.28,0.00,0.00,0.00,0.00
2026-06-26 19:39:29.914,994.33,994.31,-1.61,-1.68,0.00,1.05,0.22,9.28,0.00,-0.00,0.00,0.00
2026-06-26 19:39:29.915,994.33,994.31,-1.61,-1.68,0.00,1.07,0.23,9.25,0.00,-0.00,0.00,0.00
2026-06-26 19:39:29.917,994.33,994.31,-1.61,-1.68,0.00,1.07,0.23,9.25,0.00,-0.00,0.00,0.00
2026-06-26 19:39:29.918,994.33,994.31,-1.61,-1.68,0.00,1.07,0.23,9.25,0.00,-0.00,0.00,0.00
2026-06-26 19:39:29.919,994.33,994.31,-1.61,-1.68,0.00,1.07,0.23,9.25,0.00,-0.00,0.00,0.00
2026-06-26 19:39:29.920,994.33,994.31,-1.61,-1.68,0.00,1.07,0.23,9.25,0.00,-0.00,0.00,0.00
2026-06-26 19:39:29.923,994.33,994.31,-1.61,-1.68,0.00,1.07,0.23,9.25,-0.00,-0.00,-0.00,0.00
2026-06-26 19:39:29.924,994.33,994.31,-1.61,-1.68,0.00,1.06,0.22,9.30,-0.00,-0.00,-0.00,0.00
2026-06-26 19:39:29.926,994.33,994.31,-1.61,-1.68,0.00,1.06,0.22,9.30,-0.00,-0.00,-0.00,0.00
2026-06-26 19:39:29.927,994.33,994.31,-1.61,-1.68,0.00,1.06,0.22,9.30,-0.00,-0.00,-0.00,0.00
2026-06-26 19:39:29.932,994.33,994.31,-1.61,-1.68,0.00,1.06,0.22,9.30,-0.00,-0.00,-0.00,0.00
2026-06-26 19:39:29.933,994.33,994.31,-1.61,-1.68,0.00,1.07,0.23,9.30,0.00,-0.00,-0.00,0.00
2026-06-26 19:39:29.935,994.33,994.31,-1.61,-1.68,0.00,1.07,0.23,9.30,0.00,-0.00,-0.00,0.00
2026-06-26 19:39:29.936,994.33,994.31,-1.61,-1.68,0.00,1.07,0.23,9.30,0.00,-0.00,-0.00,0.00
2026-06-26 19:39:29.937,994.33,994.31,-1.61,-1.68,0.00,1.07,0.23,9.30,0.00,-0.00,-0.00,0.00
2026-06-26 19:39:29.942,994.33,994.31,-1.61,-1.68,0.00,1.07,0.23,9.30,0.00,-0.00,-0.00,0.00
2026-06-26 19:39:30.084,994.33,994.31,-1.71,-1.73,0.00,1.08,0.22,9.29,0.00,0.00,0.00,0.00
2026-06-26 19:39:30.085,994.33,994.31,-1.71,-1.73,0.00,1.05,0.23,9.25,0.00,0.00,0.00,0.00
2026-06-26 19:39:30.086,994.33,994.31,-1.71,-1.73,0.00,1.05,0.23,9.25,0.00,0.00,0.00,0.00
2026-06-26 19:39:30.091,994.33,994.31,-1.71,-1.73,0.00,1.05,0.23,9.25,0.00,0.00,0.00,0.00
2026-06-26 19:39:30.094,994.33,994.31,-1.71,-1.73,0.00,1.07,0.23,9.25,0.00,0.00,-0.00,0.00
2026-06-26 19:39:30.095,994.33,994.31,-1.71,-1.73,0.00,1.07,0.23,9.25,0.00,0.00,-0.00,0.00
2026-06-26 19:39:30.096,994.33,994.31,-1.71,-1.73,0.00,1.07,0.23,9.25,0.00,0.00,-0.00,0.00
2026-06-26 19:39:30.097,994.33,994.31,-1.71,-1.73,0.00,1.07,0.23,9.25,0.00,0.00,-0.00,0.00
2026-06-26 19:39:30.098,994.33,994.31,-1.71,-1.73,0.00,1.07,0.23,9.25,0.00,0.00,-0.00,0.00
2026-06-26 19:39:30.103,994.33,994.31,-1.71,-1.73,0.00,1.07,0.23,9.25,0.00,0.00,-0.00,0.00
2026-06-26 19:39:30.104,994.33,994.31,-1.71,-1.73,0.00,1.06,0.24,9.27,0.00,0.00,0.00,0.00
2026-06-26 19:39:30.105,994.33,994.31,-1.71,-1.73,0.00,1.06,0.24,9.27,0.00,0.00,0.00,0.00
2026-06-26 19:39:30.107,994.33,994.31,-1.71,-1.73,0.00,1.06,0.24,9.27,0.00,0.00,0.00,0.00
2026-06-26 19:39:30.108,994.33,994.31,-1.71,-1.73,0.00,1.06,0.24,9.27,0.00,0.00,0.00,0.00
2026-06-26 19:39:30.113,994.33,994.31,-1.71,-1.73,0.00,1.06,0.24,9.27,-0.00,-0.00,0.00,0.00
2026-06-26 19:39:30.115,994.33,994.31,-1.71,-1.73,0.00,1.05,0.22,9.28,-0.00,-0.00,0.00,0.00
2026-06-26 19:39:30.116,994.33,994.31,-1.71,-1.73,0.00,1.05,0.22,9.28,-0.00,-0.00,0.00,0.00
2026-06-26 19:39:30.117,994.33,994.31,-1.71,-1.73,0.00,1.05,0.22,9.28,-0.00,-0.00,0.00,0.00
2026-06-26 19:39:30.119,994.33,994.31,-1.71,-1.73,0.00,1.05,0.22,9.28,-0.00,-0.00,0.00,0.00
