timestamp,pressure_bag,pressure_bme,diff_pressure,v_wind_est,speed,accel_x,accel_y,accel_z,gyro_x,gyro_y,gyro_z,power
2026-06-26 17:57:06.740,994.17,994.20,2.66,2.16,0.00,1.02,0.30,9.25,0.00,-0.00,0.00,0.00
2026-06-26 17:57:06.742,994.17,994.20,2.66,2.16,0.00,1.02,0.30,9.25,0.00,-0.00,0.00,0.00
2026-06-26 17:57:06.744,994.17,994.20,2.66,2.16,0.00,1.02,0.30,9.25,0.00,-0.00,0.00,0.00
2026-06-26 17:57:06.749,994.17,994.20,2.66,2.16,0.00,1.02,0.30,9.25,0.00,-0.00,0.00,0.00
2026-06-26 17:57:06.751,994.17,994.20,2.66,2.16,0.00,1.04,0.29,9.27,-0.00,-0.00,0.00,0.00
2026-06-26 17:57:06.753,994.17,994.20,2.66,2.16,0.00,1.04,0.29,9.27,-0.00,-0.00,0.00,0.00
2026-06-26 17:57:06.757,994.17,994.20,2.66,2.16,0.00,1.04,0.29,9.27,-0.00,-0.00,0.00,0.00
2026-06-26 17:57:06.761,994.17,994.20,2.66,2.16,0.00,1.04,0.29,9.27,-0.00,0.00,-0.00,0.00
2026-06-26 17:57:06.764,994.17,994.20,2.66,2.16,0.00,1.02,0.29,9.28,-0.00,0.00,-0.00,0.00
2026-06-26 17:57:06.770,994.17,994.20,2.66,2.16,0.00,1.02,0.29,9.28,-0.00,0.00,-0.00,0.00
2026-06-26 17:57:06.772,994.17,994.20,2.66,2.16,0.00,0.99,0.29,9.28,-0.00,0.00,0.00,0.00
2026-06-26 17:57:06.773,994.17,994.20,2.66,2.16,0.00,0.99,0.29,9.28,-0.00,0.00,0.00,0.00
2026-06-26 17:57:06.775,994.17,994.20,2.66,2.16,0.00,0.99,0.29,9.28,-0.00,0.00,0.00,0.00
2026-06-26 17:57:06.781,994.17,994.20,2.66,2.16,0.00,0.99,0.29,9.28,-0.00,-0.00,-0.00,0.00
2026-06-26 17:57:06.783,994.17,994.20,2.66,2.16,0.00,1.01,0.30,9.27,-0.00,-0.00,-0.00,0.00
2026-06-26 17:57:06.787,994.17,994.20,2.66,2.16,0.00,1.01,0.30,9.27,-0.00,-0.00,-0.00,0.00
2026-06-26 17:57:06.790,994.17,994.20,2.66,2.16,0.00,1.01,0.30,9.27,0.00,-0.00,-0.00,0.00
2026-06-26 17:57:06.792,994.17,994.20,2.66,2.16,0.00,1.01,0.28,9.27,0.00,-0.00,-0.00,0.00
2026-06-26 17:57:06.794,994.17,994.20,2.66,2.16,0.00,1.01,0.28,9.27,0.00,-0.00,-0.00,0.00
2026-06-26 17:57:06.798,994.17,994.20,2.66,2.16,0.00,1.01,0.28,9.27,0.00,-0.00,-0.00,0.00
2026-06-26 17:57:06.881,994.17,994.19,2.48,2.09,0.00,1.02,0.30,9.27,-0.00,-0.00,0.00,0.00
2026-06-26 17:57:06.882,994.17,994.19,2.48,2.09,0.00,1.02,0.30,9.27,-0.00,-0.00,0.00,0.00
2026-06-26 17:57:06.884,994.17,994.19,2.48,2.09,0.00,1.02,0.30,9.27,-0.00,-0.00,0.00,0.00
2026-06-26 17:57:06.888,994.17,994.19,2.48,2.09,0.00,1.02,0.30,9.27,-0.00,-0.00,0.00,0.00
2026-06-26 17:57:06.891,994.17,994.19,2.48,2.09,0.00,1.02,0.29,9.30,-0.00,0.00,0.00,0.00
2026-06-26 17:57:06.892,994.17,994.19,2.48,2.09,0.00,1.02,0.29,9.30,-0.00,0.00,0.00,0.00
2026-06-26 17:57:06.893,994.17,994.19,2.48,2.09,0.00,1.02,0.29,9.30,-0.00,0.00,0.00,0.00
2026-06-26 17:57:06.895,994.17,994.19,2.48,2.09,0.00,1.02,0.29,9.30,-0.00,0.00,0.00,0.00
2026-06-26 17:57:06.899,994.17,994.19,2.48,2.09,0.00,1.02,0.29,9.30,-0.00,0.00,0.00,0.00
2026-06-26 17:57:06.901,994.17,994.19,2.48,2.09,0.00,1.01,0.30,9.27,-0.00,0.00,-0.00,0.00
2026-06-26 17:57:06.902,994.17,994.19,2.48,2.09,0.00,1.01,0.30,9.27,-0.00,0.00,-0.00,0.00
2026-06-26 17:57:06.903,994.17,994.19,2.48,2.09,0.00,1.01,0.30,9.27,-0.00,0.00,-0.00,0.00
2026-06-26 17:57:06.905,994.17,994.19,2.48,2.09,0.00,1.01,0.30,9.27,-0.00,0.00,-0.00,0.00
2026-06-26 17:57:06.910,994.17,994.19,2.48,2.09,0.00,1.01,0.30,9.27,-0.00,0.00,-0.00,0.00
2026-06-26 17:57:06.912,994.17,994.19,2.48,2.09,0.00,1.03,0.29,9.25,0.00,0.00,0.00,0.00
2026-06-26 17:57:06.915,994.17,994.19,2.48,2.09,0.00,1.03,0.29,9.25,0.00,0.00,0.00,0.00
2026-06-26 17:57:06.920,994.17,994.19,2.48,2.09,0.00,1.03,0.29,9.25,0.00,-0.00,0.00,0.00
2026-06-26 17:57:06.923,994.17,994.19,2.48,2.09,0.00,1.03,0.30,9.27,0.00,-0.00,0.00,0.00
2026-06-26 17:57:06.924,994.17,994.19,2.48,2.09,0.00,1.03,0.30,9.27,0.00,-0.00,0.00,0.00
2026-06-26 17:57:06.925,994.17,994.19,2.48,2.09,0.00,1.03,0.30,9.27,0.00,-0.00,0.00,0.00
2026-06-26 17:57:06.927,994.17,994.19,2.48,2.09,0.00,1.03,0.30,9.27,0.00,-0.00,0.00,0.00
2026-06-26 17:57:06.930,994.17,994.19,2.48,2.09,0.00,1.03,0.30,9.27,0.00,-0.00,-0.00,0.00
2026-06-26 17:57:06.932,994.17,994.19,2.48,2.09,0.00,1.01,0.28,9.28,0.00,-0.00,-0.00,0.00
2026-06-26 17:57:06.933,994.17,994.19,2.48,2.09,0.00,1.01,0.28,9.28,0.00,-0.00,-0.00,0.00
2026-06-26 17:57:06.935,994.17,994.19,2.48,2.09,0.00,1.01,0.28,9.28,0.00,-0.00,-0.00,0.00
2026-06-26 17:57:06.940,994.17,994.19,2.48,2.09,0.00,1.01,0.28,9.28,-0.00,0.00,0.00,0.00
2026-06-26 17:57:06.983,994.17,994.19,2.40,2.05,0.00,1.01,0.30,9.26,-0.00,0.00,0.00,0.00
2026-06-26 17:57:07.024,994.17,994.19,2.29,2.00,0.00,1.01,0.31,9.29,-0.00,0.00,-0.00,0.00
2026-06-26 17:57:07.025,994.17,994.19,2.29,2.00,0.00,1.01,0.31,9.29,-0.00,0.00,-0.00,0.00
2026-06-26 17:57:07.029,994.17,994.19,2.29,2.00,0.00,1.01,0.31,9.29,-0.00,0.00,-0.00,0.00
2026-06-26 17:57:07.031,994.17,994.19,2.29,2.00,0.00,1.01,0.31,9.28,-0.00,0.00,-0.00,0.00
2026-06-26 17:57:07.032,994.17,994.19,2.29,2.00,0.00,1.01,0.31,9.28,-0.00,0.00,-0.00,0.00
2026-06-26 17:57:07.034,994.17,994.19,2.29,2.00,0.00,1.01,0.31,9.28,-0.00,0.00,-0.00,0.00
2026-06-26 17:57:07.035,994.17,994.19,2.29,2.00,0.00,1.01,0.31,9.28,-0.00,0.00,-0.00,0.00
2026-06-26 17:57:07.040,994.17,994.19,2.29,2.00,0.00,1.01,0.31,9.28,-0.00,0.00,0.00,0.00
2026-06-26 17:57:07.042,994.17,994.19,2.29,2.00,0.00,1.02,0.28,9.28,-0.00,0.00,0.00,0.00
2026-06-26 17:57:07.043,994.17,994.19,2.29,2.00,0.00,1.02,0.28,9.28,-0.00,0.00,0.00,0.00
2026-06-26 17:57:07.044,994.17,994.19,2.29,2.00,0.00,1.02,0.28,9.28,-0.00,0.00,0.00,0.00
2026-06-26 17:57:07.047,994.17,994.19,2.29,2.00,0.00,1.02,0.28,9.28,-0.00,0.00,0.00,0.00
2026-06-26 17:57:07.054,994.17,994.19,2.29,2.00,0.00,1.02,0.28,9.28,0.00,0.00,-0.00,0.00
2026-06-26 17:57:07.060,994.17,994.19,2.29,2.00,0.00,1.02,0.31,9.27,0.00,0.00,-0.00,0.00
2026-06-26 17:57:07.063,994.17,994.19,2.29,2.00,0.00,1.01,0.30,9.28,-0.00,0.00,0.00,0.00
2026-06-26 17:57:07.069,994.17,994.19,2.29,2.00,0.00,1.01,0.30,9.28,-0.00,0.00,0.00,0.00
2026-06-26 17:57:07.072,994.17,994.19,2.29,2.00,0.00,1.02,0.30,9.28,-0.00,0.00,-0.00,0.00
2026-06-26 17:57:07.074,994.17,994.19,2.29,2.00,0.00,1.02,0.30,9.28,-0.00,0.00,-0.00,0.00
2026-06-26 17:57:07.075,994.17,994.19,2.29,2.00,0.00,1.02,0.30,9.28,-0.00,0.00,-0.00,0.00
2026-06-26 17:57:07.077,994.17,994.19,2.29,2.00,0.00,1.02,0.30,9.28,-0.00,0.00,-0.00,0.00
2026-06-26 17:57:07.081,994.17,994.19,2.29,2.00,0.00,1.02,0.30,9.28,-0.00,0.00,0.00,0.00
2026-06-26 17:57:07.170,994.17,994.19,2.41,2.06,0.00,1.01,0.29,9.28,-0.00,0.00,-0.00,0.00
2026-06-26 17:57:07.172,994.17,994.19,2.41,2.06,0.00,1.02,0.31,9.29,-0.00,0.00,-0.00,0.00
2026-06-26 17:57:07.174,994.17,994.19,2.41,2.06,0.00,1.02,0.31,9.29,-0.00,0.00,-0.00,0.00
2026-06-26 17:57:07.175,994.17,994.19,2.41,2.06,0.00,1.02,0.31,9.29,-0.00,0.00,-0.00,0.00
2026-06-26 17:57:07.177,994.17,994.19,2.41,2.06,0.00,1.02,0.31,9.29,-0.00,0.00,-0.00,0.00
2026-06-26 17:57:07.178,994.17,994.19,2.41,2.06,0.00,1.02,0.31,9.29,-0.00,0.00,-0.00,0.00
2026-06-26 17:57:07.181,994.17,994.19,2.41,2.06,0.00,1.02,0.31,9.29,-0.00,0.00,0.00,0.00
2026-06-26 17:57:07.182,994.17,994.19,2.41,2.06,0.00,1.02,0.29,9.28,-0.00,0.00,0.00,0.00
2026-06-26 17:57:07.184,994.17,994.19,2.41,2.06,0.00,1.02,0.29,9.28,-0.00,0.00,0.00,0.00
2026-06-26 17:57:07.185,994.17,994.19,2.41,2.06,0.00,1.02,0.29,9.28,-0.00,0.00,0.00,0.00
2026-06-26 17:57:07.189,994.17,994.19,2.41,2.06,0.00,1.02,0.29,9.28,-0.00,0.00,0.00,0.00
2026-06-26 17:57:07.193,994.17,994.19,2.41,2.06,0.00,1.01,0.29,9.28,-0.00,-0.00,0.00,0.00
2026-06-26 17:57:07.195,994.17,994.19,2.41,2.06,0.00,1.01,0.29,9.28,-0.00,-0.00,0.00,0.00
2026-06-26 17:57:07.201,994.17,994.19,2.41,2.06,0.00,1.01,0.29,9.28,-0.00,-0.00,0.00,0.00
2026-06-26 17:57:07.204,994.17,994.19,2.41,2.06,0.00,1.01,0.28,9.24,-0.00,-0.00,-0.00,0.00
2026-06-26 17:57:07.211,994.17,994.19,2.41,2.06,0.00,1.01,0.28,9.24,-0.00,0.00,0.00,0.00
2026-06-26 17:57:07.213,994.17,994.19,2.41,2.06,0.00,0.99,0.29,9.28,-0.00,0.00,0.00,0.00
2026-06-26 17:57:07.214,994.17,994.19,2.41,2.06,0.00,0.99,0.29,9.28,-0.00,0.00,0.00,0.00
2026-06-26 17:57:07.216,994.17,994.19,2.41,2.06,0.00,0.99,0.29,9.28,-0.00,0.00,0.00,0.00
2026-06-26 17:57:07.221,994.17,994.19,2.41,2.06,0.00,0.99,0.29,9.28,0.00,-0.00,0.00,0.00
2026-06-26 17:57:07.222,994.17,994.19,2.41,2.06,0.00,1.01,0.28,9.29,0.00,-0.00,0.00,0.00
2026-06-26 17:57:07.224,994.17,994.19,2.41,2.06,0.00,1.01,0.28,9.29,0.00,-0.00,0.00,0.00
2026-06-26 17:57:07.311,994.17,994.19,2.04,1.89,0.00,1.00,0.29,9.29,0.00,-0.00,-0.00,0.00
2026-06-26 17:57:07.312,994.17,994.19,2.04,1.89,0.00,1.00,0.29,9.27,0.00,0.00,-0.00,0.00
2026-06-26 17:57:07.314,994.17,994.19,2.04,1.89,0.00,1.00,0.29,9.27,0.00,0.00,-0.00,0.00
2026-06-26 17:57:07.315,994.17,994.19,2.04,1.89,0.00,1.00,0.29,9.27,0.00,0.00,-0.00,0.00
2026-06-26 17:57:07.321,994.17,994.19,2.04,1.89,0.00,1.00,0.29,9.27,0.00,0.00,-0.00,0.00
2026-06-26 17:57:07.323,994.17,994.19,2.04,1.89,0.00,1.01,0.30,9.29,0.00,0.00,0.00,0.00
2026-06-26 17:57:07.324,994.17,994.19,2.04,1.89,0.00,1.01,0.30,9.29,0.00,0.00,0.00,0.00
2026-06-26 17:57:07.327,994.17,994.19,2.04,1.89,0.00,1.01,0.30,9.29,0.00,0.00,0.00,0.00
2026-06-26 17:57:07.329,994.17,994.19,2.04,1.89,0.00,1.01,0.30,9.29,0.00,0.00,0.00,0.00
2026-06-26 17:57:07.331,994.17,994.19,2.04,1.89,0.00,1.01,0.30,9.29,0.00,0.00,0.00,0.00
2026-06-26 17:57:07.333,994.17,994.19,2.04,1.89,0.00,1.01,0.30,9.28,0.00,0.00,0.00,0.00
2026-06-26 17:57:07.334,994.17,994.19,2.04,1.89,0.00,1.01,0.30,9.28,0.00,0.00,0.00,0.00
2026-06-26 17:57:07.335,994.17,994.19,2.04,1.89,0.00,1.01,0.30,9.28,0.00,0.00,0.00,0.00
2026-06-26 17:57:07.341,994.17,994.19,2.04,1.89,0.00,1.01,0.30,9.28,0.00,0.00,0.00,0.00
2026-06-26 17:57:07.343,994.17,994.19,2.04,1.89,0.00,1.02,0.29,9.26,-0.00,0.00,0.00,0.00
2026-06-26 17:57:07.345,994.17,994.19,2.04,1.89,0.00,1.02,0.29,9.26,-0.00,0.00,0.00,0.00
2026-06-26 17:57:07.346,994.17,994.19,2.04,1.89,0.00,1.02,0.29,9.26,-0.00,0.00,0.00,0.00
2026-06-26 17:57:07.351,994.17,994.19,2.04,1.89,0.00,1.02,0.29,9.26,-0.00,0.00,0.00,0.00
2026-06-26 17:57:07.352,994.17,994.19,2.04,1.89,0.00,1.01,0.29,9.27,-0.00,0.00,0.00,0.00
2026-06-26 17:57:07.353,994.17,994.19,2.04,1.89,0.00,1.01,0.29,9.27,-0.00,0.00,0.00,0.00
2026-06-26 17:57:07.355,994.17,994.19,2.04,1.89,0.00,1.01,0.29,9.27,-0.00,0.00,0.00,0.00
2026-06-26 17:57:07.358,994.17,994.19,2.04,1.89,0.00,1.01,0.29,9.27,-0.00,0.00,0.00,0.00
2026-06-26 17:57:07.363,994.17,994.19,2.04,1.89,0.00,1.01,0.29,9.28,0.00,0.00,0.00,0.00
2026-06-26 17:57:07.369,994.17,994.19,2.04,1.89,0.00,1.01,0.29,9.28,0.00,0.00,0.00,0.00
2026-06-26 17:57:07.452,994.17,994.19,1.77,1.76,0.00,1.02,0.29,9.26,-0.00,-0.00,0.00,0.00
2026-06-26 17:57:07.453,994.17,994.19,1.77,1.76,0.00,1.02,0.29,9.26,-0.00,-0.00,0.00,0.00
2026-06-26 17:57:07.455,994.17,994.19,1.77,1.76,0.00,1.02,0.29,9.26,-0.00,-0.00,0.00,0.00
2026-06-26 17:57:07.456,994.17,994.19,1.77,1.76,0.00,1.02,0.29,9.26,-0.00,-0.00,0.00,0.00
2026-06-26 17:57:07.461,994.17,994.19,1.77,1.76,0.00,1.02,0.29,9.26,-0.00,-0.00,0.00,0.00
2026-06-26 17:57:07.462,994.17,994.19,1.77,1.76,0.00,1.00,0.29,9.25,0.00,-0.00,0.00,0.00
2026-06-26 17:57:07.464,994.17,994.19,1.77,1.76,0.00,1.00,0.29,9.25,0.00,-0.00,0.00,0.00
2026-06-26 17:57:07.465,994.17,994.19,1.77,1.76,0.00,1.00,0.29,9.25,0.00,-0.00,0.00,0.00
2026-06-26 17:57:07.471,994.17,994.19,1.77,1.76,0.00,1.00,0.29,9.25,0.00,-0.00,0.00,0.00
2026-06-26 17:57:07.473,994.17,994.19,1.77,1.76,0.00,1.01,0.29,9.26,-0.00,0.00,-0.00,0.00
2026-06-26 17:57:07.474,994.17,994.19,1.77,1.76,0.00,1.01,0.29,9.26,-0.00,0.00,-0.00,0.00
2026-06-26 17:57:07.475,994.17,994.19,1.77,1.76,0.00,1.01,0.29,9.26,-0.00,0.00,-0.00,0.00
2026-06-26 17:57:07.476,994.17,994.19,1.77,1.76,0.00,1.01,0.29,9.26,-0.00,0.00,-0.00,0.00
2026-06-26 17:57:07.479,994.17,994.19,1.77,1.76,0.00,1.01,0.29,9.26,-0.00,0.00,-0.00,0.00
2026-06-26 17:57:07.481,994.17,994.19,1.77,1.76,0.00,1.01,0.29,9.26,-0.00,0.00,-0.00,0.00
2026-06-26 17:57:07.483,994.17,994.19,1.77,1.76,0.00,1.01,0.29,9.27,-0.00,0.00,-0.00,0.00
2026-06-26 17:57:07.485,994.17,994.19,1.77,1.76,0.00,1.01,0.29,9.27,-0.00,0.00,-0.00,0.00
2026-06-26 17:57:07.491,994.17,994.19,1.77,1.76,0.00,1.01,0.29,9.27,-0.00,0.00,-0.00,0.00
2026-06-26 17:57:07.493,994.17,994.19,1.77,1.76,0.00,1.01,0.29,9.27,-0.00,0.00,-0.00,0.00
2026-06-26 17:57:07.494,994.17,994.19,1.77,1.76,0.00,1.01,0.29,9.27,-0.00,0.00,-0.00,0.00
2026-06-26 17:57:07.496,994.17,994.19,1.77,1.76,0.00,1.01,0.29,9.27,-0.00,0.00,-0.00,0.00
2026-06-26 17:57:07.501,994.17,994.19,1.77,1.76,0.00,1.01,0.29,9.27,-0.00,0.00,-0.00,0.00
2026-06-26 17:57:07.503,994.17,994.19,1.77,1.76,0.00,1.01,0.29,9.27,0.00,0.00,0.00,0.00
2026-06-26 17:57:07.504,994.17,994.19,1.77,1.76,0.00,1.01,0.29,9.27,0.00,0.00,0.00,0.00
2026-06-26 17:57:07.506,994.17,994.19,1.77,1.76,0.00,1.01,0.29,9.27,0.00,0.00,0.00,0.00
2026-06-26 17:57:07.511,994.17,994.19,1.77,1.76,0.00,1.01,0.29,9.27,0.00,-0.00,-0.00,0.00
2026-06-26 17:57:07.551,994.17,994.19,1.82,1.79,0.00,1.03,0.30,9.28,-0.00,0.00,-0.00,0.00
2026-06-26 17:57:07.594,994.17,994.19,1.64,1.70,0.00,1.02,0.31,9.26,0.00,0.00,0.00,0.00
2026-06-26 17:57:07.595,994.17,994.19,1.64,1.70,0.00,1.02,0.31,9.26,0.00,0.00,0.00,0.00
2026-06-26 17:57:07.596,994.17,994.19,1.64,1.70,0.00,1.02,0.31,9.26,0.00,0.00,0.00,0.00
2026-06-26 17:57:07.601,994.17,994.19,1.64,1.70,0.00,1.02,0.31,9.26,0.00,0.00,0.00,0.00
2026-06-26 17:57:07.603,994.17,994.19,1.64,1.70,0.00,1.00,0.30,9.27,0.00,0.00,0.00,0.00
2026-06-26 17:57:07.604,994.17,994.19,1.64,1.70,0.00,1.00,0.30,9.27,0.00,0.00,0.00,0.00
2026-06-26 17:57:07.605,994.17,994.19,1.64,1.70,0.00,1.00,0.30,9.27,0.00,0.00,0.00,0.00
2026-06-26 17:57:07.606,994.17,994.19,1.64,1.70,0.00,1.00,0.30,9.27,0.00,0.00,0.00,0.00
2026-06-26 17:57:07.609,994.17,994.19,1.64,1.70,0.00,1.00,0.30,9.27,0.00,0.00,0.00,0.00
2026-06-26 17:57:07.612,994.17,994.19,1.64,1.70,0.00,1.00,0.30,9.27,-0.00,-0.00,0.00,0.00
2026-06-26 17:57:07.613,994.17,994.19,1.64,1.70,0.00,1.01,0.30,9.25,-0.00,-0.00,0.00,0.00
2026-06-26 17:57:07.615,994.17,994.19,1.64,1.70,0.00,1.01,0.30,9.25,-0.00,-0.00,0.00,0.00
2026-06-26 17:57:07.616,994.17,994.19,1.64,1.70,0.00,1.01,0.30,9.25,-0.00,-0.00,0.00,0.00
2026-06-26 17:57:07.622,994.17,994.19,1.64,1.70,0.00,1.01,0.30,9.25,-0.00,-0.00,0.00,0.00
2026-06-26 17:57:07.623,994.17,994.19,1.64,1.70,0.00,1.01,0.31,9.27,0.00,0.00,-0.00,0.00
2026-06-26 17:57:07.625,994.17,994.19,1.64,1.70,0.00,1.01,0.31,9.27,0.00,0.00,-0.00,0.00
2026-06-26 17:57:07.626,994.17,994.19,1.64,1.70,0.00,1.01,0.31,9.27,0.00,0.00,-0.00,0.00
2026-06-26 17:57:07.628,994.17,994.19,1.64,1.70,0.00,1.01,0.31,9.27,0.00,0.00,-0.00,0.00
2026-06-26 17:57:07.629,994.17,994.19,1.64,1.70,0.00,1.01,0.31,9.27,0.00,0.00,-0.00,0.00
2026-06-26 17:57:07.632,994.17,994.19,1.64,1.70,0.00,1.01,0.31,9.27,0.00,-0.00,0.00,0.00
2026-06-26 17:57:07.634,994.17,994.19,1.64,1.70,0.00,1.00,0.30,9.27,0.00,-0.00,0.00,0.00
2026-06-26 17:57:07.635,994.17,994.19,1.64,1.70,0.00,1.00,0.30,9.27,0.00,-0.00,0.00,0.00
2026-06-26 17:57:07.636,994.17,994.19,1.64,1.70,0.00,1.00,0.30,9.27,0.00,-0.00,0.00,0.00
2026-06-26 17:57:07.642,994.17,994.19,1.64,1.70,0.00,1.00,0.30,9.27,0.00,-0.00,0.00,0.00
2026-06-26 17:57:07.644,994.17,994.19,1.64,1.70,0.00,1.03,0.29,9.27,0.00,-0.00,0.00,0.00
2026-06-26 17:57:07.645,994.17,994.19,1.64,1.70,0.00,1.03,0.29,9.27,0.00,-0.00,0.00,0.00
2026-06-26 17:57:07.646,994.17,994.19,1.64,1.70,0.00,1.03,0.29,9.27,0.00,-0.00,0.00,0.00
2026-06-26 17:57:07.651,994.17,994.19,1.64,1.70,0.00,1.03,0.29,9.27,0.00,-0.00,0.00,0.00
2026-06-26 17:57:07.692,994.17,994.19,1.28,1.50,0.00,1.01,0.29,9.27,-0.00,0.00,0.00,0.00
2026-06-26 17:57:07.693,994.17,994.19,1.28,1.50,0.00,1.01,0.28,9.28,-0.00,0.00,0.00,0.00
2026-06-26 17:57:07.738,994.17,994.19,1.37,1.55,0.00,1.01,0.29,9.28,0.00,-0.00,0.00,0.00
2026-06-26 17:57:07.742,994.17,994.19,1.37,1.55,0.00,1.01,0.29,9.28,0.00,-0.00,0.00,0.00
2026-06-26 17:57:07.743,994.17,994.19,1.37,1.55,0.00,1.01,0.30,9.29,0.00,-0.00,0.00,0.00
2026-06-26 17:57:07.745,994.17,994.19,1.37,1.55,0.00,1.01,0.30,9.29,0.00,-0.00,0.00,0.00
2026-06-26 17:57:07.752,994.17,994.19,1.37,1.55,0.00,1.01,0.30,9.29,0.00,-0.00,0.00,0.00
2026-06-26 17:57:07.753,994.17,994.19,1.37,1.55,0.00,1.03,0.31,9.27,-0.00,0.00,-0.00,0.00
2026-06-26 17:57:07.754,994.17,994.19,1.37,1.55,0.00,1.03,0.31,9.27,-0.00,0.00,-0.00,0.00
2026-06-26 17:57:07.755,994.17,994.19,1.37,1.55,0.00,1.03,0.31,9.27,-0.00,0.00,-0.00,0.00
2026-06-26 17:57:07.758,994.17,994.19,1.37,1.55,0.00,1.03,0.31,9.27,-0.00,0.00,-0.00,0.00
2026-06-26 17:57:07.762,994.17,994.19,1.37,1.55,0.00,1.03,0.31,9.27,-0.00,0.00,-0.00,0.00
2026-06-26 17:57:07.763,994.17,994.19,1.37,1.55,0.00,1.00,0.30,9.25,-0.00,0.00,-0.00,0.00
2026-06-26 17:57:07.765,994.17,994.19,1.37,1.55,0.00,1.00,0.30,9.25,-0.00,0.00,-0.00,0.00
2026-06-26 17:57:07.766,994.17,994.19,1.37,1.55,0.00,1.00,0.30,9.25,-0.00,0.00,-0.00,0.00
2026-06-26 17:57:07.772,994.17,994.19,1.37,1.55,0.00,1.00,0.30,9.25,-0.00,0.00,-0.00,0.00
2026-06-26 17:57:07.773,994.17,994.19,1.37,1.55,0.00,1.03,0.30,9.27,-0.00,0.00,0.00,0.00
2026-06-26 17:57:07.775,994.17,994.19,1.37,1.55,0.00,1.03,0.30,9.27,-0.00,0.00,0.00,0.00
2026-06-26 17:57:07.776,994.17,994.19,1.37,1.55,0.00,1.03,0.30,9.27,-0.00,0.00,0.00,0.00
2026-06-26 17:57:07.779,994.17,994.19,1.37,1.55,0.00,1.03,0.30,9.27,-0.00,0.00,0.00,0.00
2026-06-26 17:57:07.783,994.17,994.19,1.37,1.55,0.00,1.01,0.30,9.27,0.00,0.00,0.00,0.00
2026-06-26 17:57:07.787,994.17,994.19,1.37,1.55,0.00,1.01,0.30,9.27,0.00,0.00,0.00,0.00
2026-06-26 17:57:07.792,994.17,994.19,1.37,1.55,0.00,1.01,0.30,9.27,0.00,-0.00,0.00,0.00
2026-06-26 17:57:07.832,994.17,994.18,1.08,1.38,0.00,1.00,0.29,9.26,-0.00,0.00,-0.00,0.00
2026-06-26 17:57:07.834,994.17,994.18,1.08,1.38,0.00,1.02,0.31,9.30,-0.00,0.00,-0.00,0.00
2026-06-26 17:57:07.835,994.17,994.18,1.08,1.38,0.00,1.02,0.31,9.30,-0.00,0.00,-0.00,0.00
2026-06-26 17:57:07.877,994.18,994.18,0.83,1.21,0.00,1.03,0.30,9.27,0.00,-0.00,0.00,0.00
2026-06-26 17:57:07.878,994.18,994.18,0.83,1.21,0.00,1.03,0.30,9.27,0.00,-0.00,0.00,0.00
2026-06-26 17:57:07.879,994.18,994.18,0.83,1.21,0.00,1.03,0.30,9.27,0.00,-0.00,0.00,0.00
2026-06-26 17:57:07.884,994.18,994.18,0.83,1.21,0.00,1.03,0.30,9.27,-0.00,0.00,0.00,0.00
2026-06-26 17:57:07.891,994.18,994.18,0.83,1.21,0.00,1.01,0.32,9.28,-0.00,0.00,0.00,0.00
2026-06-26 17:57:07.893,994.18,994.18,0.83,1.21,0.00,1.01,0.29,9.27,0.00,-0.00,0.00,0.00
2026-06-26 17:57:07.895,994.18,994.18,0.83,1.21,0.00,1.01,0.29,9.27,0.00,-0.00,0.00,0.00
2026-06-26 17:57:07.902,994.18,994.18,0.83,1.21,0.00,1.01,0.29,9.27,0.00,-0.00,0.00,0.00
2026-06-26 17:57:07.903,994.18,994.18,0.83,1.21,0.00,1.01,0.29,9.27,0.00,0.00,0.00,0.00
2026-06-26 17:57:07.904,994.18,994.18,0.83,1.21,0.00,1.01,0.29,9.27,0.00,0.00,0.00,0.00
2026-06-26 17:57:07.906,994.18,994.18,0.83,1.21,0.00,1.01,0.29,9.27,0.00,0.00,0.00,0.00
2026-06-26 17:57:07.907,994.18,994.18,0.83,1.21,0.00,1.01,0.29,9.27,0.00,0.00,0.00,0.00
2026-06-26 17:57:07.913,994.18,994.18,0.83,1.21,0.00,1.01,0.29,9.27,0.00,0.00,0.00,0.00
2026-06-26 17:57:07.922,994.18,994.18,0.83,1.21,0.00,1.02,0.30,9.29,0.00,0.00,0.00,0.00
2026-06-26 17:57:07.924,994.18,994.18,0.83,1.21,0.00,1.00,0.29,9.30,0.00,-0.00,0.00,0.00
2026-06-26 17:57:07.925,994.18,994.18,0.83,1.21,0.00,1.00,0.29,9.30,0.00,-0.00,0.00,0.00
2026-06-26 17:57:07.927,994.18,994.18,0.83,1.21,0.00,1.00,0.29,9.30,0.00,-0.00,0.00,0.00
2026-06-26 17:57:07.929,994.18,994.18,0.83,1.21,0.00,1.00,0.29,9.30,0.00,-0.00,0.00,0.00
2026-06-26 17:57:07.932,994.18,994.18,0.83,1.21,0.00,1.00,0.29,9.30,0.00,0.00,0.00,0.00
2026-06-26 17:57:07.974,994.18,994.18,0.48,0.92,0.00,1.02,0.29,9.27,0.00,0.00,-0.00,0.00
2026-06-26 17:57:07.976,994.18,994.18,0.48,0.92,0.00,1.02,0.29,9.27,0.00,0.00,-0.00,0.00
2026-06-26 17:57:08.023,994.18,994.18,0.47,0.91,0.00,1.01,0.30,9.25,-0.00,-0.00,0.00,0.00
2026-06-26 17:57:08.025,994.18,994.18,0.47,0.91,0.00,1.00,0.30,9.27,0.00,-0.00,0.00,0.00
2026-06-26 17:57:08.027,994.18,994.18,0.47,0.91,0.00,1.00,0.30,9.27,0.00,-0.00,0.00,0.00
2026-06-26 17:57:08.028,994.18,994.18,0.47,0.91,0.00,1.00,0.30,9.27,0.00,-0.00,0.00,0.00
2026-06-26 17:57:08.029,994.18,994.18,0.47,0.91,0.00,1.00,0.30,9.27,0.00,-0.00,0.00,0.00
2026-06-26 17:57:08.033,994.18,994.18,0.47,0.91,0.00,1.00,0.30,9.27,0.00,0.00,0.00,0.00
2026-06-26 17:57:08.035,994.18,994.18,0.47,0.91,0.00,1.01,0.29,9.30,0.00,0.00,0.00,0.00
2026-06-26 17:57:08.039,994.18,994.18,0.47,0.91,0.00,1.01,0.29,9.30,0.00,0.00,0.00,0.00
2026-06-26 17:57:08.043,994.18,994.18,0.47,0.91,0.00,1.01,0.29,9.30,-0.00,0.00,0.00,0.00
2026-06-26 17:57:08.044,994.18,994.18,0.47,0.91,0.00,1.02,0.29,9.27,-0.00,0.00,0.00,0.00
2026-06-26 17:57:08.045,994.18,994.18,0.47,0.91,0.00,1.02,0.29,9.27,-0.00,0.00,0.00,0.00
2026-06-26 17:57:08.046,994.18,994.18,0.47,0.91,0.00,1.02,0.29,9.27,-0.00,0.00,0.00,0.00
2026-06-26 17:57:08.050,994.18,994.18,0.47,0.91,0.00,1.02,0.29,9.27,-0.00,0.00,0.00,0.00
2026-06-26 17:57:08.053,994.18,994.18,0.47,0.91,0.00,1.02,0.29,9.27,0.00,0.00,0.00,0.00
2026-06-26 17:57:08.054,994.18,994.18,0.47,0.91,0.00,1.00,0.32,9.25,0.00,0.00,0.00,0.00
2026-06-26 17:57:08.056,994.18,994.18,0.47,0.91,0.00,1.00,0.32,9.25,0.00,0.00,0.00,0.00
2026-06-26 17:57:08.057,994.18,994.18,0.47,0.91,0.00,1.00,0.32,9.25,0.00,0.00,0.00,0.00
2026-06-26 17:57:08.062,994.18,994.18,0.47,0.91,0.00,1.00,0.32,9.25,0.00,0.00,0.00,0.00
2026-06-26 17:57:08.063,994.18,994.18,0.47,0.91,0.00,1.01,0.29,9.26,0.00,-0.00,0.00,0.00
2026-06-26 17:57:08.065,994.18,994.18,0.47,0.91,0.00,1.01,0.29,9.26,0.00,-0.00,0.00,0.00
2026-06-26 17:57:08.069,994.18,994.18,0.47,0.91,0.00,1.01,0.29,9.26,0.00,-0.00,0.00,0.00
2026-06-26 17:57:08.073,994.18,994.18,0.47,0.91,0.00,1.01,0.29,9.26,0.00,0.00,0.00,0.00
2026-06-26 17:57:08.113,994.18,994.18,0.36,0.80,0.00,1.01,0.30,9.27,-0.00,-0.00,0.00,0.00
2026-06-26 17:57:08.114,994.18,994.18,0.36,0.80,0.00,1.03,0.29,9.26,-0.00,-0.00,0.00,0.00
2026-06-26 17:57:08.117,994.18,994.18,0.36,0.80,0.00,1.03,0.29,9.26,-0.00,-0.00,0.00,0.00
2026-06-26 17:57:08.123,994.18,994.18,0.36,0.80,0.00,1.03,0.29,9.26,-0.00,-0.00,0.00,0.00
2026-06-26 17:57:08.165,994.18,994.18,0.04,0.26,0.00,1.01,0.30,9.30,0.00,-0.00,-0.00,0.00
2026-06-26 17:57:08.166,994.18,994.18,0.04,0.26,0.00,1.01,0.30,9.30,0.00,-0.00,-0.00,0.00
2026-06-26 17:57:08.173,994.18,994.18,0.04,0.26,0.00,1.01,0.30,9.30,0.00,-0.00,-0.00,0.00
2026-06-26 17:57:08.174,994.18,994.18,0.04,0.26,0.00,1.03,0.29,9.28,-0.00,0.00,0.00,0.00
2026-06-26 17:57:08.177,994.18,994.18,0.04,0.26,0.00,1.03,0.29,9.28,-0.00,0.00,0.00,0.00
2026-06-26 17:57:08.179,994.18,994.18,0.04,0.26,0.00,1.03,0.29,9.28,-0.00,0.00,0.00,0.00
2026-06-26 17:57:08.180,994.18,994.18,0.04,0.26,0.00,1.03,0.29,9.28,-0.00,0.00,0.00,0.00
2026-06-26 17:57:08.183,994.18,994.18,0.04,0.26,0.00,1.03,0.29,9.28,-0.00,-0.00,-0.00,0.00
2026-06-26 17:57:08.184,994.18,994.18,0.04,0.26,0.00,1.00,0.29,9.30,-0.00,-0.00,-0.00,0.00
2026-06-26 17:57:08.186,994.18,994.18,0.04,0.26,0.00,1.00,0.29,9.30,-0.00,-0.00,-0.00,0.00
2026-06-26 17:57:08.187,994.18,994.18,0.04,0.26,0.00,1.00,0.29,9.30,-0.00,-0.00,-0.00,0.00
2026-06-26 17:57:08.195,994.18,994.18,0.04,0.26,0.00,1.00,0.29,9.30,0.00,0.00,0.00,0.00
2026-06-26 17:57:08.196,994.18,994.18,0.04,0.26,0.00,1.01,0.28,9.30,0.00,0.00,0.00,0.00
2026-06-26 17:57:08.203,994.18,994.18,0.04,0.26,0.00,1.01,0.28,9.30,0.00,0.00,0.00,0.00
2026-06-26 17:57:08.204,994.18,994.18,0.04,0.26,0.00,1.01,0.30,9.26,0.00,0.00,0.00,0.00
2026-06-26 17:57:08.206,994.18,994.18,0.04,0.26,0.00,1.01,0.30,9.26,0.00,0.00,0.00,0.00
2026-06-26 17:57:08.208,994.18,994.18,0.04,0.26,0.00,1.01,0.30,9.26,0.00,0.00,0.00,0.00
2026-06-26 17:57:08.213,994.18,994.18,0.04,0.26,0.00,1.01,0.30,9.26,0.00,0.00,0.00,0.00
2026-06-26 17:57:08.254,994.18,994.18,-0.26,-0.68,0.00,1.02,0.30,9.27,0.00,-0.00,0.00,0.00
2026-06-26 17:57:08.256,994.18,994.18,-0.26,-0.68,0.00,1.02,0.30,9.27,0.00,-0.00,0.00,0.00
2026-06-26 17:57:08.257,994.18,994.18,-0.26,-0.68,0.00,1.02,0.30,9.27,0.00,-0.00,0.00,0.00
2026-06-26 17:57:08.263,994.18,994.18,-0.26,-0.68,0.00,1.02,0.30,9.27,0.00,-0.00,0.00,0.00
2026-06-26 17:57:08.264,994.18,994.18,-0.26,-0.68,0.00,1.02,0.28,9.27,0.00,-0.00,0.00,0.00
2026-06-26 17:57:08.306,994.18,994.18,-0.35,-0.78,0.00,1.00,0.29,9.27,-0.00,0.00,0.00,0.00
2026-06-26 17:57:08.307,994.18,994.18,-0.35,-0.78,0.00,1.00,0.29,9.27,-0.00,0.00,0.00,0.00
2026-06-26 17:57:08.313,994.18,994.18,-0.35,-0.78,0.00,1.00,0.29,9.27,-0.00,0.00,0.00,0.00
2026-06-26 17:57:08.314,994.18,994.18,-0.35,-0.78,0.00,1.00,0.30,9.27,0.00,0.00,0.00,0.00
2026-06-26 17:57:08.315,994.18,994.18,-0.35,-0.78,0.00,1.00,0.30,9.27,0.00,0.00,0.00,0.00
2026-06-26 17:57:08.316,994.18,994.18,-0.35,-0.78,0.00,1.00,0.30,9.27,0.00,0.00,0.00,0.00
2026-06-26 17:57:08.318,994.18,994.18,-0.35,-0.78,0.00,1.00,0.30,9.27,0.00,0.00,0.00,0.00
2026-06-26 17:57:08.323,994.18,994.18,-0.35,-0.78,0.00,1.00,0.30,9.27,0.00,0.00,0.00,0.00
2026-06-26 17:57:08.325,994.18,994.18,-0.35,-0.78,0.00,1.01,0.26,9.26,0.00,0.00,-0.00,0.00
2026-06-26 17:57:08.327,994.18,994.18,-0.35,-0.78,0.00,1.01,0.26,9.26,0.00,0.00,-0.00,0.00
2026-06-26 17:57:08.328,994.18,994.18,-0.35,-0.78,0.00,1.01,0.26,9.26,0.00,0.00,-0.00,0.00
2026-06-26 17:57:08.333,994.18,994.18,-0.35,-0.78,0.00,1.01,0.26,9.26,0.00,0.00,-0.00,0.00
2026-06-26 17:57:08.334,994.18,994.18,-0.35,-0.78,0.00,1.02,0.30,9.27,0.00,-0.00,-0.00,0.00
2026-06-26 17:57:08.336,994.18,994.18,-0.35,-0.78,0.00,1.02,0.30,9.27,0.00,-0.00,-0.00,0.00
2026-06-26 17:57:08.340,994.18,994.18,-0.35,-0.78,0.00,1.02,0.30,9.27,0.00,-0.00,-0.00,0.00
2026-06-26 17:57:08.343,994.18,994.18,-0.35,-0.78,0.00,1.02,0.30,9.27,0.00,-0.00,0.00,0.00
2026-06-26 17:57:08.345,994.18,994.18,-0.35,-0.78,0.00,1.00,0.30,9.28,0.00,-0.00,0.00,0.00
2026-06-26 17:57:08.346,994.18,994.18,-0.35,-0.78,0.00,1.00,0.30,9.28,0.00,-0.00,0.00,0.00
2026-06-26 17:57:08.349,994.18,994.18,-0.35,-0.78,0.00,1.00,0.30,9.28,0.00,-0.00,0.00,0.00
2026-06-26 17:57:08.354,994.18,994.18,-0.35,-0.78,0.00,1.00,0.30,9.28,0.00,0.00,-0.00,0.00
2026-06-26 17:57:08.396,994.18,994.17,-0.49,-0.93,0.00,1.02,0.32,9.28,0.00,-0.00,0.00,0.00
2026-06-26 17:57:08.402,994.18,994.17,-0.49,-0.93,0.00,1.02,0.32,9.28,0.00,-0.00,0.00,0.00
2026-06-26 17:57:08.404,994.18,994.17,-0.49,-0.93,0.00,1.03,0.30,9.25,0.00,-0.00,-0.00,0.00
2026-06-26 17:57:08.405,994.18,994.17,-0.49,-0.93,0.00,1.03,0.30,9.25,0.00,-0.00,-0.00,0.00
2026-06-26 17:57:08.452,994.18,994.17,-0.34,-0.77,0.00,1.01,0.29,9.30,-0.00,0.00,-0.00,0.00
2026-06-26 17:57:08.454,994.18,994.17,-0.34,-0.77,0.00,1.02,0.30,9.26,-0.00,0.00,0.00,0.00
2026-06-26 17:57:08.455,994.18,994.17,-0.34,-0.77,0.00,1.02,0.30,9.26,-0.00,0.00,0.00,0.00
2026-06-26 17:57:08.457,994.18,994.17,-0.34,-0.77,0.00,1.02,0.30,9.26,-0.00,0.00,0.00,0.00
2026-06-26 17:57:08.461,994.18,994.17,-0.34,-0.77,0.00,1.02,0.30,9.26,-0.00,0.00,0.00,0.00
2026-06-26 17:57:08.464,994.18,994.17,-0.34,-0.77,0.00,1.02,0.30,9.26,0.00,0.00,0.00,0.00
2026-06-26 17:57:08.465,994.18,994.17,-0.34,-0.77,0.00,1.01,0.30,9.30,0.00,0.00,0.00,0.00
2026-06-26 17:57:08.466,994.18,994.17,-0.34,-0.77,0.00,1.01,0.30,9.30,0.00,0.00,0.00,0.00
2026-06-26 17:57:08.467,994.18,994.17,-0.34,-0.77,0.00,1.01,0.30,9.30,0.00,0.00,0.00,0.00
2026-06-26 17:57:08.471,994.18,994.17,-0.34,-0.77,0.00,1.01,0.30,9.30,0.00,0.00,0.00,0.00
2026-06-26 17:57:08.474,994.18,994.17,-0.34,-0.77,0.00,1.02,0.31,9.26,0.00,0.00,-0.00,0.00
2026-06-26 17:57:08.476,994.18,994.17,-0.34,-0.77,0.00,1.02,0.31,9.26,0.00,0.00,-0.00,0.00
2026-06-26 17:57:08.477,994.18,994.17,-0.34,-0.77,0.00,1.02,0.31,9.26,0.00,0.00,-0.00,0.00
2026-06-26 17:57:08.480,994.18,994.17,-0.34,-0.77,0.00,1.02,0.31,9.26,0.00,0.00,-0.00,0.00
2026-06-26 17:57:08.485,994.18,994.17,-0.34,-0.77,0.00,1.02,0.31,9.26,-0.00,0.00,0.00,0.00
2026-06-26 17:57:08.487,994.18,994.17,-0.34,-0.77,0.00,1.00,0.30,9.25,-0.00,0.00,0.00,0.00
2026-06-26 17:57:08.493,994.18,994.17,-0.34,-0.77,0.00,1.00,0.30,9.25,-0.00,0.00,0.00,0.00
2026-06-26 17:57:08.495,994.18,994.17,-0.34,-0.77,0.00,1.02,0.29,9.26,0.00,0.00,-0.00,0.00
2026-06-26 17:57:08.540,994.18,994.18,0.04,0.28,0.00,1.05,0.31,9.28,-0.00,-0.00,0.00,0.00
2026-06-26 17:57:08.544,994.18,994.18,0.04,0.28,0.00,1.05,0.31,9.28,-0.00,-0.00,0.00,0.00
2026-06-26 17:57:08.545,994.18,994.18,0.04,0.28,0.00,1.01,0.30,9.28,-0.00,-0.00,0.00,0.00
2026-06-26 17:57:08.546,994.18,994.18,0.04,0.28,0.00,1.01,0.30,9.28,-0.00,-0.00,0.00,0.00
2026-06-26 17:57:08.548,994.18,994.18,0.04,0.28,0.00,1.01,0.30,9.28,-0.00,-0.00,0.00,0.00
2026-06-26 17:57:08.593,994.18,994.18,0.06,0.32,0.00,1.02,0.29,9.27,-0.00,0.00,-0.00,0.00
2026-06-26 17:57:08.595,994.18,994.18,0.06,0.32,0.00,1.02,0.32,9.27,-0.00,0.00,0.00,0.00
2026-06-26 17:57:08.596,994.18,994.18,0.06,0.32,0.00,1.02,0.32,9.27,-0.00,0.00,0.00,0.00
2026-06-26 17:57:08.597,994.18,994.18,0.06,0.32,0.00,1.02,0.32,9.27,-0.00,0.00,0.00,0.00
2026-06-26 17:57:08.600,994.18,994.18,0.06,0.32,0.00,1.02,0.32,9.27,-0.00,0.00,0.00,0.00
2026-06-26 17:57:08.604,994.18,994.18,0.06,0.32,0.00,1.02,0.32,9.27,-0.00,0.00,-0.00,0.00
2026-06-26 17:57:08.605,994.18,994.18,0.06,0.32,0.00,1.04,0.30,9.24,-0.00,0.00,-0.00,0.00
2026-06-26 17:57:08.606,994.18,994.18,0.06,0.32,0.00,1.04,0.30,9.24,-0.00,0.00,-0.00,0.00
2026-06-26 17:57:08.608,994.18,994.18,0.06,0.32,0.00,1.04,0.30,9.24,-0.00,0.00,-0.00,0.00
2026-06-26 17:57:08.609,994.18,994.18,0.06,0.32,0.00,1.04,0.30,9.24,-0.00,0.00,-0.00,0.00
2026-06-26 17:57:08.614,994.18,994.18,0.06,0.32,0.00,1.04,0.30,9.24,-0.00,0.00,0.00,0.00
2026-06-26 17:57:08.615,994.18,994.18,0.06,0.32,0.00,1.04,0.29,9.26,-0.00,0.00,0.00,0.00
2026-06-26 17:57:08.617,994.18,994.18,0.06,0.32,0.00,1.04,0.29,9.26,-0.00,0.00,0.00,0.00
2026-06-26 17:57:08.618,994.18,994.18,0.06,0.32,0.00,1.04,0.29,9.26,-0.00,0.00,0.00,0.00
2026-06-26 17:57:08.624,994.18,994.18,0.06,0.32,0.00,1.04,0.29,9.26,-0.00,0.00,0.00,0.00
2026-06-26 17:57:08.625,994.18,994.18,0.06,0.32,0.00,1.05,0.32,9.27,0.00,-0.00,-0.00,0.00
2026-06-26 17:57:08.627,994.18,994.18,0.06,0.32,0.00,1.05,0.32,9.27,0.00,-0.00,-0.00,0.00
2026-06-26 17:57:08.629,994.18,994.18,0.06,0.32,0.00,1.05,0.32,9.27,0.00,-0.00,-0.00,0.00
2026-06-26 17:57:08.630,994.18,994.18,0.06,0.32,0.00,1.05,0.32,9.27,0.00,-0.00,-0.00,0.00
2026-06-26 17:57:08.633,994.18,994.18,0.06,0.32,0.00,1.05,0.32,9.27,0.00,-0.00,-0.00,0.00
2026-06-26 17:57:08.636,994.18,994.18,0.06,0.32,0.00,1.02,0.29,9.26,-0.00,-0.00,0.00,0.00
2026-06-26 17:57:08.638,994.18,994.18,0.06,0.32,0.00,1.02,0.29,9.26,-0.00,-0.00,0.00,0.00
2026-06-26 17:57:08.680,994.18,994.18,-0.21,-0.61,0.00,1.02,0.29,9.26,0.00,-0.00,0.00,0.00
2026-06-26 17:57:08.684,994.18,994.18,-0.21,-0.61,0.00,1.02,0.29,9.26,-0.00,0.00,-0.00,0.00
2026-06-26 17:57:08.685,994.18,994.18,-0.21,-0.61,0.00,1.01,0.30,9.28,-0.00,0.00,-0.00,0.00
2026-06-26 17:57:08.686,994.18,994.18,-0.21,-0.61,0.00,1.01,0.30,9.28,-0.00,0.00,-0.00,0.00
2026-06-26 17:57:08.688,994.18,994.18,-0.21,-0.61,0.00,1.01,0.30,9.28,-0.00,0.00,-0.00,0.00
2026-06-26 17:57:08.692,994.18,994.18,-0.21,-0.61,0.00,1.01,0.30,9.28,-0.00,0.00,-0.00,0.00
2026-06-26 17:57:08.734,994.18,994.18,-0.20,-0.59,0.00,1.02,0.29,9.28,0.00,0.00,0.00,0.00
2026-06-26 17:57:08.736,994.18,994.18,-0.20,-0.59,0.00,1.01,0.30,9.28,0.00,0.00,0.00,0.00
2026-06-26 17:57:08.737,994.18,994.18,-0.20,-0.59,0.00,1.01,0.30,9.28,0.00,0.00,0.00,0.00
2026-06-26 17:57:08.741,994.18,994.18,-0.20,-0.59,0.00,1.01,0.30,9.28,0.00,0.00,0.00,0.00
2026-06-26 17:57:08.744,994.18,994.18,-0.20,-0.59,0.00,1.01,0.30,9.28,-0.00,-0.00,0.00,0.00
2026-06-26 17:57:08.746,994.18,994.18,-0.20,-0.59,0.00,1.02,0.29,9.28,-0.00,-0.00,0.00,0.00
2026-06-26 17:57:08.747,994.18,994.18,-0.20,-0.59,0.00,1.02,0.29,9.28,-0.00,-0.00,0.00,0.00
2026-06-26 17:57:08.748,994.18,994.18,-0.20,-0.59,0.00,1.02,0.29,9.28,-0.00,-0.00,0.00,0.00
2026-06-26 17:57:08.754,994.18,994.18,-0.20,-0.59,0.00,1.02,0.29,9.28,-0.00,-0.00,0.00,0.00
2026-06-26 17:57:08.756,994.18,994.18,-0.20,-0.59,0.00,1.01,0.30,9.25,-0.00,0.00,-0.00,0.00
2026-06-26 17:57:08.757,994.18,994.18,-0.20,-0.59,0.00,1.01,0.30,9.25,-0.00,0.00,-0.00,0.00
2026-06-26 17:57:08.763,994.18,994.18,-0.20,-0.59,0.00,1.01,0.30,9.25,-0.00,0.00,-0.00,0.00
2026-06-26 17:57:08.765,994.18,994.18,-0.20,-0.59,0.00,1.02,0.28,9.28,-0.00,0.00,-0.00,0.00
2026-06-26 17:57:08.766,994.18,994.18,-0.20,-0.59,0.00,1.02,0.28,9.28,-0.00,0.00,-0.00,0.00
2026-06-26 17:57:08.767,994.18,994.18,-0.20,-0.59,0.00,1.02,0.28,9.28,-0.00,0.00,-0.00,0.00
2026-06-26 17:57:08.770,994.18,994.18,-0.20,-0.59,0.00,1.02,0.28,9.28,-0.00,0.00,-0.00,0.00
2026-06-26 17:57:08.784,994.18,994.18,-0.20,-0.59,0.00,1.00,0.29,9.27,-0.00,0.00,-0.00,0.00
2026-06-26 17:57:08.827,994.18,994.18,-0.18,-0.57,0.00,1.01,0.29,9.29,0.00,0.00,0.00,0.00
2026-06-26 17:57:08.828,994.18,994.18,-0.18,-0.57,0.00,1.01,0.29,9.29,0.00,0.00,0.00,0.00
2026-06-26 17:57:08.830,994.18,994.18,-0.18,-0.57,0.00,1.01,0.29,9.29,0.00,0.00,0.00,0.00
2026-06-26 17:57:08.831,994.18,994.18,-0.18,-0.57,0.00,1.01,0.29,9.29,0.00,0.00,0.00,0.00
2026-06-26 17:57:08.835,994.18,994.18,-0.18,-0.57,0.00,1.01,0.29,9.29,0.00,-0.00,-0.00,0.00
2026-06-26 17:57:08.877,994.18,994.18,-0.04,-0.26,0.00,1.01,0.28,9.29,0.00,0.00,-0.00,0.00
2026-06-26 17:57:08.878,994.18,994.18,-0.04,-0.26,0.00,1.01,0.28,9.29,0.00,0.00,-0.00,0.00
2026-06-26 17:57:08.880,994.18,994.18,-0.04,-0.26,0.00,1.01,0.28,9.29,0.00,0.00,-0.00,0.00
2026-06-26 17:57:08.881,994.18,994.18,-0.04,-0.26,0.00,1.01,0.28,9.29,0.00,0.00,-0.00,0.00
2026-06-26 17:57:08.884,994.18,994.18,-0.04,-0.26,0.00,1.01,0.28,9.29,0.00,0.00,-0.00,0.00
2026-06-26 17:57:08.885,994.18,994.18,-0.04,-0.26,0.00,1.02,0.31,9.29,-0.00,0.00,0.00,0.00
2026-06-26 17:57:08.887,994.18,994.18,-0.04,-0.26,0.00,1.02,0.31,9.29,-0.00,0.00,0.00,0.00
2026-06-26 17:57:08.888,994.18,994.18,-0.04,-0.26,0.00,1.02,0.31,9.29,-0.00,0.00,0.00,0.00
2026-06-26 17:57:08.890,994.18,994.18,-0.04,-0.26,0.00,1.02,0.31,9.29,-0.00,0.00,0.00,0.00
2026-06-26 17:57:08.894,994.18,994.18,-0.04,-0.26,0.00,1.02,0.31,9.29,-0.00,-0.00,-0.00,0.00
2026-06-26 17:57:08.897,994.18,994.18,-0.04,-0.26,0.00,1.02,0.30,9.28,-0.00,-0.00,-0.00,0.00
2026-06-26 17:57:08.901,994.18,994.18,-0.04,-0.26,0.00,1.02,0.30,9.28,-0.00,-0.00,-0.00,0.00
2026-06-26 17:57:08.905,994.18,994.18,-0.04,-0.26,0.00,1.02,0.30,9.28,-0.00,0.00,0.00,0.00
2026-06-26 17:57:08.906,994.18,994.18,-0.04,-0.26,0.00,1.03,0.29,9.28,-0.00,0.00,0.00,0.00
2026-06-26 17:57:08.908,994.18,994.18,-0.04,-0.26,0.00,1.03,0.29,9.28,-0.00,0.00,0.00,0.00
2026-06-26 17:57:08.913,994.18,994.18,-0.04,-0.26,0.00,1.03,0.29,9.28,-0.00,0.00,0.00,0.00
2026-06-26 17:57:08.915,994.18,994.18,-0.04,-0.26,0.00,1.02,0.29,9.27,-0.00,0.00,0.00,0.00
2026-06-26 17:57:08.916,994.18,994.18,-0.04,-0.26,0.00,1.02,0.29,9.27,-0.00,0.00,0.00,0.00
2026-06-26 17:57:08.918,994.18,994.18,-0.04,-0.26,0.00,1.02,0.29,9.27,-0.00,0.00,0.00,0.00
2026-06-26 17:57:08.920,994.18,994.18,-0.04,-0.26,0.00,1.02,0.29,9.27,-0.00,0.00,0.00,0.00
2026-06-26 17:57:08.926,994.18,994.18,-0.04,-0.26,0.00,1.02,0.29,9.27,0.00,-0.00,0.00,0.00
2026-06-26 17:57:08.968,994.18,994.18,0.39,0.83,0.00,1.02,0.31,9.26,0.00,0.00,0.00,0.00
2026-06-26 17:57:08.974,994.18,994.18,0.39,0.83,0.00,1.02,0.31,9.26,0.00,0.00,0.00,0.00
2026-06-26 17:57:08.975,994.18,994.18,0.39,0.83,0.00,1.01,0.29,9.27,0.00,-0.00,-0.00,0.00
2026-06-26 17:57:08.977,994.18,994.18,0.39,0.83,0.00,1.01,0.29,9.27,0.00,-0.00,-0.00,0.00
2026-06-26 17:57:09.018,994.18,994.18,0.47,0.91,0.00,1.02,0.29,9.28,0.00,0.00,0.00,0.00
2026-06-26 17:57:09.023,994.18,994.18,0.47,0.91,0.00,1.02,0.29,9.28,0.00,0.00,0.00,0.00
2026-06-26 17:57:09.025,994.18,994.18,0.47,0.91,0.00,1.01,0.30,9.28,-0.00,-0.00,0.00,0.00
2026-06-26 17:57:09.026,994.18,994.18,0.47,0.91,0.00,1.01,0.30,9.28,-0.00,-0.00,0.00,0.00
2026-06-26 17:57:09.028,994.18,994.18,0.47,0.91,0.00,1.01,0.30,9.28,-0.00,-0.00,0.00,0.00
2026-06-26 17:57:09.031,994.18,994.18,0.47,0.91,0.00,1.01,0.30,9.28,-0.00,-0.00,0.00,0.00
2026-06-26 17:57:09.034,994.18,994.18,0.47,0.91,0.00,1.01,0.30,9.28,-0.00,-0.00,0.00,0.00
2026-06-26 17:57:09.036,994.18,994.18,0.47,0.91,0.00,1.01,0.29,9.28,-0.00,0.00,-0.00,0.00
2026-06-26 17:57:09.037,994.18,994.18,0.47,0.91,0.00,1.01,0.29,9.28,-0.00,0.00,-0.00,0.00
2026-06-26 17:57:09.038,994.18,994.18,0.47,0.91,0.00,1.01,0.29,9.28,-0.00,0.00,-0.00,0.00
2026-06-26 17:57:09.042,994.18,994.18,0.47,0.91,0.00,1.01,0.29,9.28,-0.00,0.00,-0.00,0.00
2026-06-26 17:57:09.045,994.18,994.18,0.47,0.91,0.00,1.01,0.29,9.28,0.00,0.00,-0.00,0.00
2026-06-26 17:57:09.047,994.18,994.18,0.47,0.91,0.00,1.03,0.31,9.27,0.00,0.00,-0.00,0.00
2026-06-26 17:57:09.048,994.18,994.18,0.47,0.91,0.00,1.03,0.31,9.27,0.00,0.00,-0.00,0.00
2026-06-26 17:57:09.054,994.18,994.18,0.47,0.91,0.00,1.03,0.31,9.27,0.00,0.00,-0.00,0.00
2026-06-26 17:57:09.056,994.18,994.18,0.47,0.91,0.00,1.01,0.29,9.27,-0.00,0.00,0.00,0.00
2026-06-26 17:57:09.057,994.18,994.18,0.47,0.91,0.00,1.01,0.29,9.27,-0.00,0.00,0.00,0.00
2026-06-26 17:57:09.059,994.18,994.18,0.47,0.91,0.00,1.01,0.29,9.27,-0.00,0.00,0.00,0.00
2026-06-26 17:57:09.064,994.18,994.18,0.47,0.91,0.00,1.01,0.29,9.27,-0.00,0.00,0.00,0.00
2026-06-26 17:57:09.066,994.18,994.18,0.47,0.91,0.00,1.00,0.30,9.27,0.00,-0.00,-0.00,0.00
2026-06-26 17:57:09.067,994.18,994.18,0.47,0.91,0.00,1.00,0.30,9.27,0.00,-0.00,-0.00,0.00
2026-06-26 17:57:09.115,994.18,994.18,0.20,0.60,0.00,1.03,0.30,9.26,0.00,0.00,0.00,0.00
2026-06-26 17:57:09.116,994.18,994.18,0.20,0.60,0.00,1.01,0.30,9.24,0.00,0.00,0.00,0.00
2026-06-26 17:57:09.117,994.18,994.18,0.20,0.60,0.00,1.01,0.30,9.24,0.00,0.00,0.00,0.00
2026-06-26 17:57:09.163,994.17,994.18,0.32,0.75,0.00,1.04,0.28,9.27,0.00,0.00,0.00,0.00
2026-06-26 17:57:09.165,994.17,994.18,0.32,0.75,0.00,1.02,0.30,9.32,0.00,0.00,0.00,0.00
2026-06-26 17:57:09.167,994.17,994.18,0.32,0.75,0.00,1.02,0.30,9.32,0.00,0.00,0.00,0.00
2026-06-26 17:57:09.168,994.17,994.18,0.32,0.75,0.00,1.02,0.30,9.32,0.00,0.00,0.00,0.00
2026-06-26 17:57:09.169,994.17,994.18,0.32,0.75,0.00,1.02,0.30,9.32,0.00,0.00,0.00,0.00
2026-06-26 17:57:09.174,994.17,994.18,0.32,0.75,0.00,1.02,0.30,9.32,0.00,0.00,0.00,0.00
2026-06-26 17:57:09.176,994.17,994.18,0.32,0.75,0.00,1.03,0.28,9.27,0.00,0.00,0.00,0.00
2026-06-26 17:57:09.177,994.17,994.18,0.32,0.75,0.00,1.03,0.28,9.27,0.00,0.00,0.00,0.00
2026-06-26 17:57:09.178,994.17,994.18,0.32,0.75,0.00,1.03,0.28,9.27,0.00,0.00,0.00,0.00
2026-06-26 17:57:09.179,994.17,994.18,0.32,0.75,0.00,1.03,0.28,9.27,0.00,0.00,0.00,0.00
2026-06-26 17:57:09.182,994.17,994.18,0.32,0.75,0.00,1.03,0.28,9.27,0.00,0.00,0.00,0.00
2026-06-26 17:57:09.186,994.17,994.18,0.32,0.75,0.00,1.03,0.28,9.27,0.00,0.00,-0.00,0.00
2026-06-26 17:57:09.188,994.17,994.18,0.32,0.75,0.00,1.00,0.27,9.28,0.00,0.00,-0.00,0.00
2026-06-26 17:57:09.194,994.17,994.18,0.32,0.75,0.00,1.00,0.27,9.28,0.00,0.00,-0.00,0.00
2026-06-26 17:57:09.196,994.17,994.18,0.32,0.75,0.00,1.01,0.30,9.30,0.00,-0.00,0.00,0.00
2026-06-26 17:57:09.197,994.17,994.18,0.32,0.75,0.00,1.01,0.30,9.30,0.00,-0.00,0.00,0.00
2026-06-26 17:57:09.198,994.17,994.18,0.32,0.75,0.00,1.01,0.30,9.30,0.00,-0.00,0.00,0.00
2026-06-26 17:57:09.202,994.17,994.18,0.32,0.75,0.00,1.01,0.30,9.30,0.00,-0.00,0.00,0.00
2026-06-26 17:57:09.205,994.17,994.18,0.32,0.75,0.00,1.01,0.30,9.30,0.00,-0.00,0.00,0.00
2026-06-26 17:57:09.207,994.17,994.18,0.32,0.75,0.00,1.02,0.29,9.27,0.00,-0.00,0.00,0.00
2026-06-26 17:57:09.208,994.17,994.18,0.32,0.75,0.00,1.02,0.29,9.27,0.00,-0.00,0.00,0.00
2026-06-26 17:57:09.209,994.17,994.18,0.32,0.75,0.00,1.02,0.29,9.27,0.00,-0.00,0.00,0.00
2026-06-26 17:57:09.215,994.17,994.18,0.32,0.75,0.00,1.02,0.29,9.27,0.00,-0.00,0.00,0.00
2026-06-26 17:57:09.255,994.17,994.18,0.19,0.58,0.00,1.03,0.32,9.26,-0.00,0.00,0.00,0.00
2026-06-26 17:57:09.256,994.17,994.18,0.19,0.58,0.00,1.00,0.31,9.25,-0.00,0.00,0.00,0.00
2026-06-26 17:57:09.258,994.17,994.18,0.19,0.58,0.00,1.00,0.31,9.25,-0.00,0.00,0.00,0.00
2026-06-26 17:57:09.259,994.17,994.18,0.19,0.58,0.00,1.00,0.31,9.25,-0.00,0.00,0.00,0.00
2026-06-26 17:57:09.305,994.18,994.18,-0.59,-1.02,0.00,1.02,0.29,9.28,0.00,-0.00,-0.00,0.00
2026-06-26 17:57:09.306,994.18,994.18,-0.59,-1.02,0.00,1.00,0.30,9.27,0.00,0.00,-0.00,0.00
2026-06-26 17:57:09.307,994.18,994.18,-0.59,-1.02,0.00,1.00,0.30,9.27,0.00,0.00,-0.00,0.00
2026-06-26 17:57:09.308,994.18,994.18,-0.59,-1.02,0.00,1.00,0.30,9.27,0.00,0.00,-0.00,0.00
2026-06-26 17:57:09.310,994.18,994.18,-0.59,-1.02,0.00,1.00,0.30,9.27,0.00,0.00,-0.00,0.00
2026-06-26 17:57:09.315,994.18,994.18,-0.59,-1.02,0.00,1.00,0.30,9.27,0.00,0.00,-0.00,0.00
2026-06-26 17:57:09.316,994.18,994.18,-0.59,-1.02,0.00,1.00,0.29,9.27,0.00,0.00,0.00,0.00
2026-06-26 17:57:09.317,994.18,994.18,-0.59,-1.02,0.00,1.00,0.29,9.27,0.00,0.00,0.00,0.00
2026-06-26 17:57:09.319,994.18,994.18,-0.59,-1.02,0.00,1.00,0.29,9.27,0.00,0.00,0.00,0.00
2026-06-26 17:57:09.321,994.18,994.18,-0.59,-1.02,0.00,1.00,0.29,9.27,0.00,0.00,0.00,0.00
2026-06-26 17:57:09.326,994.18,994.18,-0.59,-1.02,0.00,1.00,0.29,9.27,0.00,0.00,-0.00,0.00
2026-06-26 17:57:09.328,994.18,994.18,-0.59,-1.02,0.00,0.99,0.29,9.27,0.00,0.00,-0.00,0.00
2026-06-26 17:57:09.329,994.18,994.18,-0.59,-1.02,0.00,0.99,0.29,9.27,0.00,0.00,-0.00,0.00
2026-06-26 17:57:09.330,994.18,994.18,-0.59,-1.02,0.00,0.99,0.29,9.27,0.00,0.00,-0.00,0.00
2026-06-26 17:57:09.333,994.18,994.18,-0.59,-1.02,0.00,0.99,0.29,9.27,0.00,0.00,-0.00,0.00
2026-06-26 17:57:09.336,994.18,994.18,-0.59,-1.02,0.00,0.99,0.29,9.27,0.00,0.00,0.00,0.00
2026-06-26 17:57:09.337,994.18,994.18,-0.59,-1.02,0.00,1.00,0.29,9.26,0.00,0.00,0.00,0.00
2026-06-26 17:57:09.339,994.18,994.18,-0.59,-1.02,0.00,1.00,0.29,9.26,0.00,0.00,0.00,0.00
2026-06-26 17:57:09.342,994.18,994.18,-0.59,-1.02,0.00,1.00,0.29,9.26,0.00,0.00,0.00,0.00
2026-06-26 17:57:09.346,994.18,994.18,-0.59,-1.02,0.00,1.00,0.29,9.26,-0.00,0.01,0.00,0.00
2026-06-26 17:57:09.347,994.18,994.18,-0.59,-1.02,0.00,1.03,0.31,9.28,-0.00,0.01,0.00,0.00
2026-06-26 17:57:09.349,994.18,994.18,-0.59,-1.02,0.00,1.03,0.31,9.28,-0.00,0.01,0.00,0.00
2026-06-26 17:57:09.355,994.18,994.18,-0.59,-1.02,0.00,1.03,0.31,9.28,-0.00,0.01,0.00,0.00
2026-06-26 17:57:09.397,994.18,994.17,-0.73,-1.13,0.00,1.03,0.29,9.31,0.00,0.00,0.00,0.00
2026-06-26 17:57:09.399,994.18,994.17,-0.73,-1.13,0.00,1.03,0.29,9.31,0.00,0.00,0.00,0.00
2026-06-26 17:57:09.439,994.18,994.17,-0.82,-1.20,0.00,1.01,0.30,9.27,0.00,0.00,0.00,0.00
2026-06-26 17:57:09.444,994.18,994.17,-0.82,-1.20,0.00,1.01,0.30,9.27,0.00,0.00,0.00,0.00
2026-06-26 17:57:09.446,994.18,994.17,-0.82,-1.20,0.00,1.01,0.28,9.29,-0.00,0.00,0.00,0.00
2026-06-26 17:57:09.447,994.18,994.17,-0.82,-1.20,0.00,1.01,0.28,9.29,-0.00,0.00,0.00,0.00
2026-06-26 17:57:09.448,994.18,994.17,-0.82,-1.20,0.00,1.01,0.28,9.29,-0.00,0.00,0.00,0.00
2026-06-26 17:57:09.449,994.18,994.17,-0.82,-1.20,0.00,1.01,0.28,9.29,-0.00,0.00,0.00,0.00
2026-06-26 17:57:09.454,994.18,994.17,-0.82,-1.20,0.00,1.01,0.28,9.29,-0.00,0.00,0.00,0.00
2026-06-26 17:57:09.457,994.18,994.17,-0.82,-1.20,0.00,1.02,0.30,9.25,0.00,0.01,0.00,0.00
2026-06-26 17:57:09.460,994.18,994.17,-0.82,-1.20,0.00,1.02,0.30,9.25,0.00,0.01,0.00,0.00
2026-06-26 17:57:09.465,994.18,994.17,-0.82,-1.20,0.00,1.02,0.30,9.25,0.00,0.01,0.00,0.00
2026-06-26 17:57:09.467,994.18,994.17,-0.82,-1.20,0.00,1.01,0.28,9.28,0.00,0.00,0.00,0.00
2026-06-26 17:57:09.468,994.18,994.17,-0.82,-1.20,0.00,1.01,0.28,9.28,0.00,0.00,0.00,0.00
2026-06-26 17:57:09.469,994.18,994.17,-0.82,-1.20,0.00,1.01,0.28,9.28,0.00,0.00,0.00,0.00
2026-06-26 17:57:09.473,994.18,994.17,-0.82,-1.20,0.00,1.01,0.28,9.28,0.00,0.00,0.00,0.00
2026-06-26 17:57:09.476,994.18,994.17,-0.82,-1.20,0.00,1.01,0.28,9.28,0.00,0.00,0.00,0.00
2026-06-26 17:57:09.477,994.18,994.17,-0.82,-1.20,0.00,1.01,0.30,9.29,0.00,0.00,0.00,0.00
2026-06-26 17:57:09.478,994.18,994.17,-0.82,-1.20,0.00,1.01,0.30,9.29,0.00,0.00,0.00,0.00
2026-06-26 17:57:09.480,994.18,994.17,-0.82,-1.20,0.00,1.01,0.30,9.29,0.00,0.00,0.00,0.00
2026-06-26 17:57:09.481,994.18,994.17,-0.82,-1.20,0.00,1.01,0.30,9.29,0.00,0.00,0.00,0.00
2026-06-26 17:57:09.485,994.18,994.17,-0.82,-1.20,0.00,1.01,0.30,9.29,0.00,0.00,0.00,0.00
2026-06-26 17:57:09.487,994.18,994.17,-0.82,-1.20,0.00,1.02,0.29,9.27,-0.00,0.00,0.00,0.00
2026-06-26 17:57:09.492,994.18,994.17,-0.82,-1.20,0.00,1.02,0.29,9.27,-0.00,0.00,0.00,0.00
2026-06-26 17:57:09.496,994.18,994.17,-0.82,-1.20,0.00,1.02,0.29,9.27,0.00,0.00,-0.00,0.00
2026-06-26 17:57:09.538,994.18,994.17,-0.84,-1.21,0.00,1.02,0.31,9.29,-0.00,0.00,-0.00,0.00
2026-06-26 17:57:09.579,994.19,994.17,-1.21,-1.46,0.00,1.02,0.31,9.27,0.00,-0.00,0.00,0.00
2026-06-26 17:57:09.581,994.19,994.17,-1.21,-1.46,0.00,1.02,0.31,9.27,0.00,-0.00,0.00,0.00
2026-06-26 17:57:09.582,994.19,994.17,-1.21,-1.46,0.00,1.02,0.31,9.27,0.00,-0.00,0.00,0.00
2026-06-26 17:57:09.585,994.19,994.17,-1.21,-1.46,0.00,1.02,0.31,9.27,0.00,-0.00,0.00,0.00
2026-06-26 17:57:09.586,994.19,994.17,-1.21,-1.46,0.00,1.01,0.31,9.26,0.00,0.00,-0.00,0.00
2026-06-26 17:57:09.588,994.19,994.17,-1.21,-1.46,0.00,1.01,0.31,9.26,0.00,0.00,-0.00,0.00
2026-06-26 17:57:09.589,994.19,994.17,-1.21,-1.46,0.00,1.01,0.31,9.26,0.00,0.00,-0.00,0.00
2026-06-26 17:57:09.595,994.19,994.17,-1.21,-1.46,0.00,1.01,0.31,9.26,0.00,0.00,-0.00,0.00
2026-06-26 17:57:09.597,994.19,994.17,-1.21,-1.46,0.00,1.01,0.29,9.27,-0.00,0.00,0.00,0.00
2026-06-26 17:57:09.598,994.19,994.17,-1.21,-1.46,0.00,1.01,0.29,9.27,-0.00,0.00,0.00,0.00
2026-06-26 17:57:09.599,994.19,994.17,-1.21,-1.46,0.00,1.01,0.29,9.27,-0.00,0.00,0.00,0.00
2026-06-26 17:57:09.602,994.19,994.17,-1.21,-1.46,0.00,1.01,0.29,9.27,-0.00,0.00,0.00,0.00
2026-06-26 17:57:09.606,994.19,994.17,-1.21,-1.46,0.00,1.01,0.29,9.27,0.00,0.00,0.00,0.00
2026-06-26 17:57:09.608,994.19,994.17,-1.21,-1.46,0.00,1.02,0.30,9.27,0.00,0.00,0.00,0.00
2026-06-26 17:57:09.609,994.19,994.17,-1.21,-1.46,0.00,1.02,0.30,9.27,0.00,0.00,0.00,0.00
2026-06-26 17:57:09.616,994.19,994.17,-1.21,-1.46,0.00,1.02,0.30,9.27,0.00,0.00,0.00,0.00
2026-06-26 17:57:09.617,994.19,994.17,-1.21,-1.46,0.00,1.02,0.28,9.27,0.00,0.00,-0.00,0.00
2026-06-26 17:57:09.618,994.19,994.17,-1.21,-1.46,0.00,1.02,0.28,9.27,0.00,0.00,-0.00,0.00
2026-06-26 17:57:09.619,994.19,994.17,-1.21,-1.46,0.00,1.02,0.28,9.27,0.00,0.00,-0.00,0.00
2026-06-26 17:57:09.624,994.19,994.17,-1.21,-1.46,0.00,1.02,0.28,9.27,0.00,0.00,-0.00,0.00
2026-06-26 17:57:09.627,994.19,994.17,-1.21,-1.46,0.00,1.01,0.30,9.27,0.00,-0.00,-0.00,0.00
2026-06-26 17:57:09.629,994.19,994.17,-1.21,-1.46,0.00,1.01,0.30,9.27,0.00,-0.00,-0.00,0.00
2026-06-26 17:57:09.630,994.19,994.17,-1.21,-1.46,0.00,1.01,0.30,9.27,0.00,-0.00,-0.00,0.00
2026-06-26 17:57:09.631,994.19,994.17,-1.21,-1.46,0.00,1.01,0.30,9.27,0.00,-0.00,-0.00,0.00
2026-06-26 17:57:09.632,994.19,994.17,-1.21,-1.46,0.00,1.01,0.30,9.27,0.00,-0.00,-0.00,0.00
2026-06-26 17:57:09.635,994.19,994.17,-1.21,-1.46,0.00,1.01,0.30,9.27,0.00,-0.00,-0.00,0.00
2026-06-26 17:57:09.636,994.19,994.17,-1.21,-1.46,0.00,1.02,0.28,9.31,-0.00,-0.00,0.00,0.00
2026-06-26 17:57:09.679,994.19,994.17,-1.43,-1.59,0.00,1.01,0.30,9.28,-0.00,0.00,0.00,0.00
2026-06-26 17:57:09.726,994.18,994.17,-1.25,-1.48,0.00,1.01,0.30,9.30,0.00,0.00,-0.00,0.00
2026-06-26 17:57:09.727,994.18,994.17,-1.25,-1.48,0.00,1.04,0.29,9.30,0.00,0.00,-0.00,0.00
2026-06-26 17:57:09.728,994.18,994.17,-1.25,-1.48,0.00,1.04,0.29,9.30,0.00,0.00,-0.00,0.00
2026-06-26 17:57:09.729,994.18,994.17,-1.25,-1.48,0.00,1.04,0.29,9.30,0.00,0.00,-0.00,0.00
2026-06-26 17:57:09.731,994.18,994.17,-1.25,-1.48,0.00,1.04,0.29,9.30,0.00,0.00,-0.00,0.00
2026-06-26 17:57:09.732,994.18,994.17,-1.25,-1.48,0.00,1.04,0.29,9.30,0.00,0.00,-0.00,0.00
2026-06-26 17:57:09.734,994.18,994.17,-1.25,-1.48,0.00,1.04,0.29,9.30,0.00,0.00,-0.00,0.00
2026-06-26 17:57:09.737,994.18,994.17,-1.25,-1.48,0.00,1.04,0.29,9.30,0.00,0.00,0.00,0.00
2026-06-26 17:57:09.739,994.18,994.17,-1.25,-1.48,0.00,1.01,0.30,9.27,0.00,0.00,0.00,0.00
2026-06-26 17:57:09.744,994.18,994.17,-1.25,-1.48,0.00,1.01,0.30,9.27,0.00,0.00,0.00,0.00
2026-06-26 17:57:09.747,994.18,994.17,-1.25,-1.48,0.00,1.01,0.30,9.27,0.00,0.00,0.00,0.00
2026-06-26 17:57:09.748,994.18,994.17,-1.25,-1.48,0.00,1.01,0.29,9.28,0.00,0.00,0.00,0.00
2026-06-26 17:57:09.750,994.18,994.17,-1.25,-1.48,0.00,1.01,0.29,9.28,0.00,0.00,0.00,0.00
2026-06-26 17:57:09.754,994.18,994.17,-1.25,-1.48,0.00,1.01,0.29,9.28,0.00,0.00,0.00,0.00
2026-06-26 17:57:09.756,994.18,994.17,-1.25,-1.48,0.00,1.01,0.29,9.27,0.00,0.00,-0.00,0.00
2026-06-26 17:57:09.758,994.18,994.17,-1.25,-1.48,0.00,1.01,0.29,9.27,0.00,0.00,-0.00,0.00
2026-06-26 17:57:09.759,994.18,994.17,-1.25,-1.48,0.00,1.01,0.29,9.27,0.00,0.00,-0.00,0.00
2026-06-26 17:57:09.762,994.18,994.17,-1.25,-1.48,0.00,1.01,0.29,9.27,0.00,0.00,-0.00,0.00
2026-06-26 17:57:09.767,994.18,994.17,-1.25,-1.48,0.00,1.01,0.29,9.27,0.00,-0.00,-0.00,0.00
2026-06-26 17:57:09.768,994.18,994.17,-1.25,-1.48,0.00,1.02,0.30,9.25,0.00,-0.00,-0.00,0.00
2026-06-26 17:57:09.769,994.18,994.17,-1.25,-1.48,0.00,1.02,0.30,9.25,0.00,-0.00,-0.00,0.00
2026-06-26 17:57:09.772,994.18,994.17,-1.25,-1.48,0.00,1.02,0.30,9.25,0.00,-0.00,-0.00,0.00
2026-06-26 17:57:09.776,994.18,994.17,-1.25,-1.48,0.00,1.02,0.30,9.25,0.00,-0.00,0.00,0.00
2026-06-26 17:57:09.777,994.18,994.17,-1.25,-1.48,0.00,1.04,0.29,9.27,0.00,-0.00,0.00,0.00
2026-06-26 17:57:09.779,994.18,994.17,-1.25,-1.48,0.00,1.04,0.29,9.27,0.00,-0.00,0.00,0.00
2026-06-26 17:57:09.825,994.18,994.17,-1.33,-1.53,0.00,1.02,0.31,9.28,0.00,0.00,0.00,0.00
2026-06-26 17:57:09.868,994.18,994.17,-1.32,-1.52,0.00,1.01,0.28,9.27,0.00,0.00,0.00,0.00
2026-06-26 17:57:09.869,994.18,994.17,-1.32,-1.52,0.00,1.01,0.28,9.27,0.00,0.00,0.00,0.00
2026-06-26 17:57:09.870,994.18,994.17,-1.32,-1.52,0.00,1.01,0.28,9.27,0.00,0.00,0.00,0.00
2026-06-26 17:57:09.876,994.18,994.17,-1.32,-1.52,0.00,1.01,0.28,9.27,0.00,0.00,0.00,0.00
2026-06-26 17:57:09.878,994.18,994.17,-1.32,-1.52,0.00,1.01,0.30,9.29,0.00,0.00,-0.00,0.00
2026-06-26 17:57:09.879,994.18,994.17,-1.32,-1.52,0.00,1.01,0.30,9.29,0.00,0.00,-0.00,0.00
2026-06-26 17:57:09.880,994.18,994.17,-1.32,-1.52,0.00,1.01,0.30,9.29,0.00,0.00,-0.00,0.00
2026-06-26 17:57:09.881,994.18,994.17,-1.32,-1.52,0.00,1.01,0.30,9.29,0.00,0.00,-0.00,0.00
2026-06-26 17:57:09.883,994.18,994.17,-1.32,-1.52,0.00,1.01,0.30,9.29,0.00,0.00,-0.00,0.00
2026-06-26 17:57:09.884,994.18,994.17,-1.32,-1.52,0.00,1.01,0.30,9.29,0.00,0.00,-0.00,0.00
2026-06-26 17:57:09.887,994.18,994.17,-1.32,-1.52,0.00,1.01,0.30,9.29,0.00,0.00,-0.00,0.00
2026-06-26 17:57:09.888,994.18,994.17,-1.32,-1.52,0.00,1.04,0.29,9.28,0.00,0.00,-0.00,0.00
2026-06-26 17:57:09.890,994.18,994.17,-1.32,-1.52,0.00,1.04,0.29,9.28,0.00,0.00,-0.00,0.00
2026-06-26 17:57:09.896,994.18,994.17,-1.32,-1.52,0.00,1.04,0.29,9.28,0.00,0.00,-0.00,0.00
2026-06-26 17:57:09.899,994.18,994.17,-1.32,-1.52,0.00,1.02,0.28,9.28,0.00,-0.00,0.00,0.00
2026-06-26 17:57:09.900,994.18,994.17,-1.32,-1.52,0.00,1.02,0.28,9.28,0.00,-0.00,0.00,0.00
2026-06-26 17:57:09.906,994.18,994.17,-1.32,-1.52,0.00,1.02,0.28,9.28,0.00,-0.00,0.00,0.00
2026-06-26 17:57:09.907,994.18,994.17,-1.32,-1.52,0.00,1.02,0.30,9.27,-0.00,0.00,0.00,0.00
2026-06-26 17:57:09.909,994.18,994.17,-1.32,-1.52,0.00,1.02,0.30,9.27,-0.00,0.00,0.00,0.00
2026-06-26 17:57:09.910,994.18,994.17,-1.32,-1.52,0.00,1.02,0.30,9.27,-0.00,0.00,0.00,0.00
2026-06-26 17:57:09.911,994.18,994.17,-1.32,-1.52,0.00,1.02,0.30,9.27,-0.00,0.00,0.00,0.00
2026-06-26 17:57:09.916,994.18,994.17,-1.32,-1.52,0.00,1.02,0.30,9.27,0.00,0.00,0.00,0.00
2026-06-26 17:57:09.918,994.18,994.17,-1.32,-1.52,0.00,1.01,0.28,9.29,0.00,0.00,0.00,0.00
2026-06-26 17:57:09.919,994.18,994.17,-1.32,-1.52,0.00,1.01,0.28,9.29,0.00,0.00,0.00,0.00
2026-06-26 17:57:09.965,994.18,994.17,-1.16,-1.43,0.00,1.00,0.28,9.26,0.00,-0.00,0.00,0.00
2026-06-26 17:57:09.967,994.18,994.17,-1.16,-1.43,0.00,1.01,0.32,9.25,0.00,0.00,-0.00,0.00
2026-06-26 17:57:10.008,994.19,994.17,-1.49,-1.62,0.00,1.01,0.29,9.27,-0.00,0.00,0.00,0.00
2026-06-26 17:57:10.010,994.19,994.17,-1.49,-1.62,0.00,1.01,0.29,9.27,-0.00,0.00,0.00,0.00
2026-06-26 17:57:10.011,994.19,994.17,-1.49,-1.62,0.00,1.01,0.29,9.27,-0.00,0.00,0.00,0.00
2026-06-26 17:57:10.015,994.19,994.17,-1.49,-1.62,0.00,1.01,0.29,9.27,-0.00,0.00,0.00,0.00
2026-06-26 17:57:10.018,994.19,994.17,-1.49,-1.62,0.00,1.02,0.29,9.27,-0.00,-0.00,0.00,0.00
2026-06-26 17:57:10.020,994.19,994.17,-1.49,-1.62,0.00,1.02,0.29,9.27,-0.00,-0.00,0.00,0.00
2026-06-26 17:57:10.026,994.19,994.17,-1.49,-1.62,0.00,1.02,0.29,9.27,-0.00,-0.00,0.00,0.00
2026-06-26 17:57:10.028,994.19,994.17,-1.49,-1.62,0.00,1.02,0.30,9.28,-0.00,-0.00,0.00,0.00
2026-06-26 17:57:10.029,994.19,994.17,-1.49,-1.62,0.00,1.02,0.30,9.28,-0.00,-0.00,0.00,0.00
2026-06-26 17:57:10.030,994.19,994.17,-1.49,-1.62,0.00,1.02,0.30,9.28,-0.00,-0.00,0.00,0.00
2026-06-26 17:57:10.033,994.19,994.17,-1.49,-1.62,0.00,1.02,0.30,9.28,-0.00,-0.00,0.00,0.00
2026-06-26 17:57:10.037,994.19,994.17,-1.49,-1.62,0.00,1.02,0.30,9.28,0.00,-0.00,0.00,0.00
2026-06-26 17:57:10.038,994.19,994.17,-1.49,-1.62,0.00,1.01,0.28,9.29,0.00,-0.00,0.00,0.00
2026-06-26 17:57:10.040,994.19,994.17,-1.49,-1.62,0.00,1.01,0.28,9.29,0.00,-0.00,0.00,0.00
2026-06-26 17:57:10.046,994.19,994.17,-1.49,-1.62,0.00,1.01,0.28,9.29,0.00,-0.00,0.00,0.00
2026-06-26 17:57:10.047,994.19,994.17,-1.49,-1.62,0.00,1.03,0.32,9.27,-0.00,-0.00,0.00,0.00
2026-06-26 17:57:10.049,994.19,994.17,-1.49,-1.62,0.00,1.03,0.32,9.27,-0.00,-0.00,0.00,0.00
2026-06-26 17:57:10.050,994.19,994.17,-1.49,-1.62,0.00,1.03,0.32,9.27,-0.00,-0.00,0.00,0.00
2026-06-26 17:57:10.057,994.19,994.17,-1.49,-1.62,0.00,1.03,0.32,9.27,-0.00,-0.00,0.00,0.00
2026-06-26 17:57:10.059,994.19,994.17,-1.49,-1.62,0.00,1.00,0.32,9.26,-0.00,0.00,-0.00,0.00
2026-06-26 17:57:10.060,994.19,994.17,-1.49,-1.62,0.00,1.00,0.32,9.26,-0.00,0.00,-0.00,0.00
2026-06-26 17:57:10.099,994.19,994.17,-1.54,-1.64,0.00,0.99,0.30,9.25,-0.00,0.00,0.00,0.00
2026-06-26 17:57:10.100,994.19,994.17,-1.54,-1.64,0.00,0.99,0.30,9.25,-0.00,0.00,0.00,0.00
2026-06-26 17:57:10.103,994.19,994.17,-1.54,-1.64,0.00,0.99,0.30,9.25,-0.00,0.00,0.00,0.00
2026-06-26 17:57:10.107,994.19,994.17,-1.54,-1.64,0.00,0.99,0.30,9.25,-0.00,0.00,0.00,0.00
2026-06-26 17:57:10.149,994.19,994.17,-1.73,-1.75,0.00,1.02,0.29,9.27,-0.00,0.00,-0.00,0.00
2026-06-26 17:57:10.150,994.19,994.17,-1.73,-1.75,0.00,1.02,0.29,9.27,-0.00,0.00,-0.00,0.00
2026-06-26 17:57:10.155,994.19,994.17,-1.73,-1.75,0.00,1.02,0.29,9.27,-0.00,0.00,-0.00,0.00
2026-06-26 17:57:10.157,994.19,994.17,-1.73,-1.75,0.00,1.02,0.29,9.27,0.00,-0.00,0.00,0.00
2026-06-26 17:57:10.158,994.19,994.17,-1.73,-1.75,0.00,1.02,0.32,9.27,0.00,-0.00,0.00,0.00
2026-06-26 17:57:10.160,994.19,994.17,-1.73,-1.75,0.00,1.02,0.32,9.27,0.00,-0.00,0.00,0.00
2026-06-26 17:57:10.161,994.19,994.17,-1.73,-1.75,0.00,1.02,0.32,9.27,0.00,-0.00,0.00,0.00
2026-06-26 17:57:10.166,994.19,994.17,-1.73,-1.75,0.00,1.02,0.32,9.27,0.00,-0.00,0.00,0.00
2026-06-26 17:57:10.168,994.19,994.17,-1.73,-1.75,0.00,1.03,0.29,9.26,-0.00,0.00,0.00,0.00
2026-06-26 17:57:10.169,994.19,994.17,-1.73,-1.75,0.00,1.03,0.29,9.26,-0.00,0.00,0.00,0.00
2026-06-26 17:57:10.173,994.19,994.17,-1.73,-1.75,0.00,1.03,0.29,9.26,-0.00,0.00,0.00,0.00
2026-06-26 17:57:10.177,994.19,994.17,-1.73,-1.75,0.00,1.03,0.29,9.26,-0.00,0.00,0.00,0.00
2026-06-26 17:57:10.179,994.19,994.17,-1.73,-1.75,0.00,1.00,0.30,9.28,-0.00,0.00,0.00,0.00
2026-06-26 17:57:10.180,994.19,994.17,-1.73,-1.75,0.00,1.00,0.30,9.28,-0.00,0.00,0.00,0.00
2026-06-26 17:57:10.181,994.19,994.17,-1.73,-1.75,0.00,1.00,0.30,9.28,-0.00,0.00,0.00,0.00
2026-06-26 17:57:10.182,994.19,994.17,-1.73,-1.75,0.00,1.00,0.30,9.28,-0.00,0.00,0.00,0.00
2026-06-26 17:57:10.184,994.19,994.17,-1.73,-1.75,0.00,1.00,0.30,9.28,-0.00,0.00,0.00,0.00
2026-06-26 17:57:10.185,994.19,994.17,-1.73,-1.75,0.00,1.00,0.30,9.28,-0.00,0.00,0.00,0.00
2026-06-26 17:57:10.187,994.19,994.17,-1.73,-1.75,0.00,1.01,0.32,9.31,0.00,0.00,0.00,0.00
2026-06-26 17:57:10.189,994.19,994.17,-1.73,-1.75,0.00,1.01,0.32,9.31,0.00,0.00,0.00,0.00
2026-06-26 17:57:10.190,994.19,994.17,-1.73,-1.75,0.00,1.01,0.32,9.31,0.00,0.00,0.00,0.00
2026-06-26 17:57:10.191,994.19,994.17,-1.73,-1.75,0.00,1.01,0.32,9.31,0.00,0.00,0.00,0.00
2026-06-26 17:57:10.197,994.19,994.17,-1.73,-1.75,0.00,1.01,0.32,9.31,0.00,0.00,0.00,0.00
2026-06-26 17:57:10.200,994.19,994.17,-1.73,-1.75,0.00,1.02,0.29,9.27,-0.00,0.00,0.00,0.00
2026-06-26 17:57:10.247,994.19,994.17,-1.78,-1.77,0.00,1.01,0.31,9.27,0.00,0.00,0.00,0.00
2026-06-26 17:57:10.248,994.19,994.17,-1.78,-1.77,0.00,1.03,0.29,9.26,0.00,0.00,0.00,0.00
2026-06-26 17:57:10.291,994.19,994.17,-2.18,-1.96,0.00,1.00,0.28,9.28,-0.00,0.00,0.00,0.00
2026-06-26 17:57:10.297,994.19,994.17,-2.18,-1.96,0.00,1.00,0.28,9.28,-0.00,0.00,0.00,0.00
2026-06-26 17:57:10.299,994.19,994.17,-2.18,-1.96,0.00,1.02,0.28,9.30,0.00,0.00,0.00,0.00
2026-06-26 17:57:10.301,994.19,994.17,-2.18,-1.96,0.00,1.02,0.28,9.30,0.00,0.00,0.00,0.00
2026-06-26 17:57:10.307,994.19,994.17,-2.18,-1.96,0.00,1.02,0.28,9.30,0.00,0.00,0.00,0.00
2026-06-26 17:57:10.309,994.19,994.17,-2.18,-1.96,0.00,1.00,0.30,9.25,-0.00,-0.00,-0.00,0.00
2026-06-26 17:57:10.310,994.19,994.17,-2.18,-1.96,0.00,1.00,0.30,9.25,-0.00,-0.00,-0.00,0.00
2026-06-26 17:57:10.312,994.19,994.17,-2.18,-1.96,0.00,1.00,0.30,9.25,-0.00,-0.00,-0.00,0.00
2026-06-26 17:57:10.317,994.19,994.17,-2.18,-1.96,0.00,1.00,0.30,9.25,-0.00,-0.00,-0.00,0.00
2026-06-26 17:57:10.319,994.19,994.17,-2.18,-1.96,0.00,1.01,0.29,9.28,0.00,-0.00,0.00,0.00
2026-06-26 17:57:10.321,994.19,994.17,-2.18,-1.96,0.00,1.01,0.29,9.28,0.00,-0.00,0.00,0.00
2026-06-26 17:57:10.327,994.19,994.17,-2.18,-1.96,0.00,1.01,0.29,9.28,0.00,-0.00,0.00,0.00
2026-06-26 17:57:10.331,994.19,994.17,-2.18,-1.96,0.00,1.01,0.29,9.28,-0.00,0.00,0.00,0.00
2026-06-26 17:57:10.334,994.19,994.17,-2.18,-1.96,0.00,1.01,0.29,9.28,-0.00,0.00,0.00,0.00
2026-06-26 17:57:10.338,994.19,994.17,-2.18,-1.96,0.00,1.01,0.29,9.28,-0.00,0.00,0.00,0.00
2026-06-26 17:57:10.340,994.19,994.17,-2.18,-1.96,0.00,1.02,0.31,9.30,-0.00,0.00,0.00,0.00
2026-06-26 17:57:10.344,994.19,994.17,-2.18,-1.96,0.00,1.02,0.31,9.30,-0.00,0.00,0.00,0.00
2026-06-26 17:57:10.392,994.19,994.17,-2.23,-1.98,0.00,1.00,0.29,9.29,-0.00,-0.00,0.00,0.00
2026-06-26 17:57:10.436,994.19,994.17,-2.19,-1.96,0.00,1.02,0.28,9.28,-0.00,-0.00,0.00,0.00
2026-06-26 17:57:10.438,994.19,994.17,-2.19,-1.96,0.00,1.01,0.30,9.29,0.00,-0.00,0.00,0.00
2026-06-26 17:57:10.440,994.19,994.17,-2.19,-1.96,0.00,1.01,0.30,9.29,0.00,-0.00,0.00,0.00
2026-06-26 17:57:10.441,994.19,994.17,-2.19,-1.96,0.00,1.01,0.30,9.29,0.00,-0.00,0.00,0.00
2026-06-26 17:57:10.447,994.19,994.17,-2.19,-1.96,0.00,1.01,0.30,9.29,0.00,-0.00,0.00,0.00
2026-06-26 17:57:10.448,994.19,994.17,-2.19,-1.96,0.00,1.01,0.28,9.30,0.00,0.00,0.00,0.00
2026-06-26 17:57:10.450,994.19,994.17,-2.19,-1.96,0.00,1.01,0.28,9.30,0.00,0.00,0.00,0.00
2026-06-26 17:57:10.452,994.19,994.17,-2.19,-1.96,0.00,1.01,0.28,9.30,0.00,0.00,0.00,0.00
2026-06-26 17:57:10.457,994.19,994.17,-2.19,-1.96,0.00,1.01,0.28,9.30,0.00,0.00,0.00,0.00
2026-06-26 17:57:10.459,994.19,994.17,-2.19,-1.96,0.00,1.02,0.29,9.26,0.00,-0.00,0.00,0.00
2026-06-26 17:57:10.461,994.19,994.17,-2.19,-1.96,0.00,1.02,0.29,9.26,0.00,-0.00,0.00,0.00
2026-06-26 17:57:10.464,994.19,994.17,-2.19,-1.96,0.00,1.02,0.29,9.26,0.00,-0.00,0.00,0.00
2026-06-26 17:57:10.468,994.19,994.17,-2.19,-1.96,0.00,1.02,0.29,9.26,0.00,-0.00,0.00,0.00
2026-06-26 17:57:10.470,994.19,994.17,-2.19,-1.96,0.00,1.01,0.29,9.27,0.00,-0.00,0.00,0.00
2026-06-26 17:57:10.473,994.19,994.17,-2.19,-1.96,0.00,1.01,0.29,9.27,0.00,-0.00,0.00,0.00
2026-06-26 17:57:10.478,994.19,994.17,-2.19,-1.96,0.00,1.01,0.29,9.27,0.00,-0.00,0.00,0.00
2026-06-26 17:57:10.480,994.19,994.17,-2.19,-1.96,0.00,1.02,0.30,9.28,0.00,-0.00,0.00,0.00
2026-06-26 17:57:10.482,994.19,994.17,-2.19,-1.96,0.00,1.02,0.30,9.28,0.00,-0.00,0.00,0.00
2026-06-26 17:57:10.484,994.19,994.17,-2.19,-1.96,0.00,1.02,0.30,9.28,0.00,-0.00,0.00,0.00
2026-06-26 17:57:10.487,994.19,994.17,-2.19,-1.96,0.00,1.02,0.30,9.28,0.00,-0.00,0.00,0.00
2026-06-26 17:57:10.529,994.19,994.17,-2.83,-2.23,0.00,1.01,0.31,9.28,0.00,0.00,0.00,0.00
2026-06-26 17:57:10.531,994.19,994.17,-2.83,-2.23,0.00,1.01,0.31,9.28,0.00,0.00,0.00,0.00
2026-06-26 17:57:10.533,994.19,994.17,-2.83,-2.23,0.00,1.01,0.31,9.28,0.00,0.00,0.00,0.00
2026-06-26 17:57:10.578,994.19,994.17,-2.89,-2.25,0.00,1.04,0.30,9.28,0.00,0.00,0.00,0.00
2026-06-26 17:57:10.580,994.19,994.17,-2.89,-2.25,0.00,1.01,0.30,9.28,0.00,0.00,0.00,0.00
2026-06-26 17:57:10.582,994.19,994.17,-2.89,-2.25,0.00,1.01,0.30,9.28,0.00,0.00,0.00,0.00
2026-06-26 17:57:10.584,994.19,994.17,-2.89,-2.25,0.00,1.01,0.30,9.28,0.00,0.00,0.00,0.00
2026-06-26 17:57:10.586,994.19,994.17,-2.89,-2.25,0.00,1.01,0.30,9.28,0.00,0.00,0.00,0.00
2026-06-26 17:57:10.589,994.19,994.17,-2.89,-2.25,0.00,1.01,0.28,9.30,0.00,0.00,0.00,0.00
2026-06-26 17:57:10.591,994.19,994.17,-2.89,-2.25,0.00,1.01,0.28,9.30,0.00,0.00,0.00,0.00
2026-06-26 17:57:10.596,994.19,994.17,-2.89,-2.25,0.00,1.01,0.28,9.30,0.00,0.00,0.00,0.00
2026-06-26 17:57:10.598,994.19,994.17,-2.89,-2.25,0.00,1.01,0.28,9.30,0.00,0.00,0.00,0.00
2026-06-26 17:57:10.600,994.19,994.17,-2.89,-2.25,0.00,1.01,0.32,9.25,0.00,0.00,0.00,0.00
2026-06-26 17:57:10.601,994.19,994.17,-2.89,-2.25,0.00,1.01,0.32,9.25,0.00,0.00,0.00,0.00
2026-06-26 17:57:10.605,994.19,994.17,-2.89,-2.25,0.00,1.01,0.32,9.25,0.00,0.00,0.00,0.00
2026-06-26 17:57:10.609,994.19,994.17,-2.89,-2.25,0.00,1.02,0.30,9.27,0.00,-0.00,0.00,0.00
2026-06-26 17:57:10.610,994.19,994.17,-2.89,-2.25,0.00,1.02,0.30,9.27,0.00,-0.00,0.00,0.00
2026-06-26 17:57:10.612,994.19,994.17,-2.89,-2.25,0.00,1.02,0.30,9.27,0.00,-0.00,0.00,0.00
2026-06-26 17:57:10.618,994.19,994.17,-2.89,-2.25,0.00,1.02,0.30,9.27,0.00,-0.00,0.00,0.00
2026-06-26 17:57:10.619,994.19,994.17,-2.89,-2.25,0.00,1.03,0.30,9.25,0.00,0.00,-0.00,0.00
2026-06-26 17:57:10.621,994.19,994.17,-2.89,-2.25,0.00,1.03,0.30,9.25,0.00,0.00,-0.00,0.00
2026-06-26 17:57:10.627,994.19,994.17,-2.89,-2.25,0.00,1.03,0.30,9.25,0.00,0.00,-0.00,0.00
2026-06-26 17:57:10.629,994.19,994.17,-2.89,-2.25,0.00,1.02,0.29,9.28,0.00,-0.00,0.00,0.00
2026-06-26 17:57:10.676,994.19,994.16,-2.97,-2.28,0.00,1.01,0.29,9.28,0.00,0.00,0.00,0.00
2026-06-26 17:57:10.720,994.19,994.16,-3.06,-2.32,0.00,1.03,0.29,9.28,0.00,0.00,0.00,0.00
2026-06-26 17:57:10.726,994.19,994.16,-3.06,-2.32,0.00,1.03,0.29,9.28,0.00,0.00,0.00,0.00
2026-06-26 17:57:10.729,994.19,994.16,-3.06,-2.32,0.00,1.03,0.29,9.28,0.00,0.00,0.00,0.00
2026-06-26 17:57:10.731,994.19,994.16,-3.06,-2.32,0.00,1.01,0.30,9.28,0.00,0.00,0.00,0.00
2026-06-26 17:57:10.733,994.19,994.16,-3.06,-2.32,0.00,1.01,0.30,9.28,0.00,0.00,0.00,0.00
2026-06-26 17:57:10.735,994.19,994.16,-3.06,-2.32,0.00,1.01,0.30,9.28,0.00,0.00,0.00,0.00
2026-06-26 17:57:10.738,994.19,994.16,-3.06,-2.32,0.00,1.01,0.30,9.28,0.00,0.00,0.00,0.00
2026-06-26 17:57:10.740,994.19,994.16,-3.06,-2.32,0.00,1.01,0.30,9.29,0.00,0.00,0.00,0.00
2026-06-26 17:57:10.741,994.19,994.16,-3.06,-2.32,0.00,1.01,0.30,9.29,0.00,0.00,0.00,0.00
2026-06-26 17:57:10.745,994.19,994.16,-3.06,-2.32,0.00,1.01,0.30,9.29,0.00,0.00,0.00,0.00
2026-06-26 17:57:10.749,994.19,994.16,-3.06,-2.32,0.00,1.01,0.30,9.29,0.00,0.00,0.00,0.00
2026-06-26 17:57:10.751,994.19,994.16,-3.06,-2.32,0.00,1.02,0.32,9.27,0.00,0.00,0.00,0.00
2026-06-26 17:57:10.754,994.19,994.16,-3.06,-2.32,0.00,1.02,0.32,9.27,0.00,0.00,0.00,0.00
2026-06-26 17:57:10.759,994.19,994.16,-3.06,-2.32,0.00,1.02,0.32,9.27,-0.00,0.00,-0.00,0.00
2026-06-26 17:57:10.761,994.19,994.16,-3.06,-2.32,0.00,1.03,0.31,9.25,-0.00,0.00,-0.00,0.00
2026-06-26 17:57:10.763,994.19,994.16,-3.06,-2.32,0.00,1.03,0.31,9.25,-0.00,0.00,-0.00,0.00
2026-06-26 17:57:10.768,994.19,994.16,-3.06,-2.32,0.00,1.03,0.31,9.25,-0.00,0.00,-0.00,0.00
2026-06-26 17:57:10.771,994.19,994.16,-3.06,-2.32,0.00,1.01,0.31,9.28,0.00,0.00,0.00,0.00
2026-06-26 17:57:10.818,994.19,994.17,-3.00,-2.29,0.00,1.01,0.30,9.27,0.00,0.00,0.00,0.00
2026-06-26 17:57:10.861,994.19,994.17,-2.82,-2.22,0.00,1.02,0.29,9.27,0.00,0.00,0.00,0.00
2026-06-26 17:57:10.866,994.19,994.17,-2.82,-2.22,0.00,1.02,0.29,9.27,0.00,0.00,0.00,0.00
2026-06-26 17:57:10.869,994.19,994.17,-2.82,-2.22,0.00,1.02,0.29,9.27,0.00,0.00,0.00,0.00
2026-06-26 17:57:10.871,994.19,994.17,-2.82,-2.22,0.00,1.01,0.29,9.24,0.00,0.00,0.00,0.00
2026-06-26 17:57:10.873,994.19,994.17,-2.82,-2.22,0.00,1.01,0.29,9.24,0.00,0.00,0.00,0.00
2026-06-26 17:57:10.879,994.19,994.17,-2.82,-2.22,0.00,1.01,0.29,9.24,0.00,0.00,0.00,0.00
2026-06-26 17:57:10.881,994.19,994.17,-2.82,-2.22,0.00,1.01,0.31,9.28,0.00,0.00,0.00,0.00
2026-06-26 17:57:10.882,994.19,994.17,-2.82,-2.22,0.00,1.01,0.31,9.28,0.00,0.00,0.00,0.00
2026-06-26 17:57:10.889,994.19,994.17,-2.82,-2.22,0.00,1.01,0.31,9.28,0.00,0.00,0.00,0.00
2026-06-26 17:57:10.891,994.19,994.17,-2.82,-2.22,0.00,1.05,0.29,9.29,0.00,0.00,0.00,0.00
2026-06-26 17:57:10.894,994.19,994.17,-2.82,-2.22,0.00,1.05,0.29,9.29,0.00,0.00,0.00,0.00
2026-06-26 17:57:10.898,994.19,994.17,-2.82,-2.22,0.00,1.05,0.29,9.29,-0.00,0.00,0.00,0.00
2026-06-26 17:57:10.900,994.19,994.17,-2.82,-2.22,0.00,1.01,0.26,9.30,-0.00,0.00,0.00,0.00
2026-06-26 17:57:10.902,994.19,994.17,-2.82,-2.22,0.00,1.01,0.26,9.30,-0.00,0.00,0.00,0.00
2026-06-26 17:57:10.908,994.19,994.17,-2.82,-2.22,0.00,1.01,0.26,9.30,-0.00,0.00,0.00,0.00
2026-06-26 17:57:10.917,994.19,994.17,-2.82,-2.22,0.00,1.01,0.29,9.27,0.00,0.00,0.00,0.00
2026-06-26 17:57:10.002,994.19,994.17,-2.12,-1.93,0.00,1.01,0.30,9.29,-0.00,-0.00,0.00,0.00
2026-06-26 17:57:11.008,994.19,994.17,-2.12,-1.93,0.00,1.01,0.30,9.29,-0.00,-0.00,0.00,0.00
2026-06-26 17:57:11.011,994.19,994.17,-2.12,-1.93,0.00,1.00,0.29,9.28,-0.00,-0.00,0.00,0.00
2026-06-26 17:57:11.013,994.19,994.17,-2.12,-1.93,0.00,1.00,0.29,9.28,-0.00,-0.00,0.00,0.00
2026-06-26 17:57:11.018,994.19,994.17,-2.12,-1.93,0.00,1.00,0.29,9.28,-0.00,-0.00,0.00,0.00
2026-06-26 17:57:11.020,994.19,994.17,-2.12,-1.93,0.00,1.01,0.30,9.26,-0.00,0.00,0.00,0.00
2026-06-26 17:57:11.022,994.19,994.17,-2.12,-1.93,0.00,1.01,0.30,9.26,-0.00,0.00,0.00,0.00
2026-06-26 17:57:11.025,994.19,994.17,-2.12,-1.93,0.00,1.01,0.30,9.26,-0.00,0.00,0.00,0.00
2026-06-26 17:57:11.029,994.19,994.17,-2.12,-1.93,0.00,1.01,0.30,9.26,0.00,-0.00,0.00,0.00
2026-06-26 17:57:11.031,994.19,994.17,-2.12,-1.93,0.00,1.02,0.31,9.28,0.00,-0.00,0.00,0.00
2026-06-26 17:57:11.033,994.19,994.17,-2.12,-1.93,0.00,1.02,0.31,9.28,0.00,-0.00,0.00,0.00
2026-06-26 17:57:11.034,994.19,994.17,-2.12,-1.93,0.00,1.02,0.31,9.28,0.00,-0.00,0.00,0.00
2026-06-26 17:57:11.036,994.19,994.17,-2.12,-1.93,0.00,1.02,0.31,9.28,0.00,-0.00,0.00,0.00
2026-06-26 17:57:11.039,994.19,994.17,-2.12,-1.93,0.00,1.02,0.31,9.28,0.00,-0.00,0.00,0.00
2026-06-26 17:57:11.040,994.19,994.17,-2.12,-1.93,0.00,1.01,0.29,9.31,0.00,-0.00,0.00,0.00
2026-06-26 17:57:11.043,994.19,994.17,-2.12,-1.93,0.00,1.01,0.29,9.31,0.00,-0.00,0.00,0.00
2026-06-26 17:57:11.050,994.19,994.17,-2.12,-1.93,0.00,1.01,0.29,9.31,0.00,-0.00,0.00,0.00
2026-06-26 17:57:11.052,994.19,994.17,-2.12,-1.93,0.00,1.00,0.30,9.29,-0.00,-0.00,0.00,0.00
2026-06-26 17:57:11.059,994.19,994.17,-2.12,-1.93,0.00,1.00,0.30,9.29,-0.00,-0.00,0.00,0.00
2026-06-26 17:57:11.061,994.19,994.17,-2.12,-1.93,0.00,1.03,0.29,9.26,-0.00,-0.00,0.00,0.00
2026-06-26 17:57:11.149,994.20,994.17,-2.19,-1.96,0.00,1.04,0.28,9.29,-0.00,0.00,-0.00,0.00
2026-06-26 17:57:11.150,994.20,994.17,-2.19,-1.96,0.00,1.03,0.30,9.30,0.00,-0.00,0.00,0.00
2026-06-26 17:57:11.152,994.20,994.17,-2.19,-1.96,0.00,1.03,0.30,9.30,0.00,-0.00,0.00,0.00
2026-06-26 17:57:11.156,994.20,994.17,-2.19,-1.96,0.00,1.03,0.30,9.30,0.00,-0.00,0.00,0.00
2026-06-26 17:57:11.159,994.20,994.17,-2.19,-1.96,0.00,1.03,0.30,9.30,-0.00,-0.00,0.00,0.00
2026-06-26 17:57:11.161,994.20,994.17,-2.19,-1.96,0.00,1.00,0.31,9.25,-0.00,-0.00,0.00,0.00
2026-06-26 17:57:11.163,994.20,994.17,-2.19,-1.96,0.00,1.00,0.31,9.25,-0.00,-0.00,0.00,0.00
2026-06-26 17:57:11.169,994.20,994.17,-2.19,-1.96,0.00,1.00,0.31,9.25,-0.00,-0.00,0.00,0.00
2026-06-26 17:57:11.171,994.20,994.17,-2.19,-1.96,0.00,0.99,0.28,9.29,0.00,-0.00,0.00,0.00
2026-06-26 17:57:11.173,994.20,994.17,-2.19,-1.96,0.00,0.99,0.28,9.29,0.00,-0.00,0.00,0.00
2026-06-26 17:57:11.179,994.20,994.17,-2.19,-1.96,0.00,0.99,0.28,9.29,0.00,-0.00,0.00,0.00
2026-06-26 17:57:11.181,994.20,994.17,-2.19,-1.96,0.00,1.00,0.30,9.27,0.00,0.00,-0.00,0.00
2026-06-26 17:57:11.182,994.20,994.17,-2.19,-1.96,0.00,1.00,0.30,9.27,0.00,0.00,-0.00,0.00
2026-06-26 17:57:11.184,994.20,994.17,-2.19,-1.96,0.00,1.00,0.30,9.27,0.00,0.00,-0.00,0.00
2026-06-26 17:57:11.186,994.20,994.17,-2.19,-1.96,0.00,1.00,0.30,9.27,0.00,0.00,-0.00,0.00
2026-06-26 17:57:11.190,994.20,994.17,-2.19,-1.96,0.00,1.00,0.30,9.27,0.00,0.00,0.00,0.00
2026-06-26 17:57:11.191,994.20,994.17,-2.19,-1.96,0.00,1.01,0.30,9.29,0.00,0.00,0.00,0.00
2026-06-26 17:57:11.194,994.20,994.17,-2.19,-1.96,0.00,1.01,0.30,9.29,0.00,0.00,0.00,0.00
2026-06-26 17:57:11.199,994.20,994.17,-2.19,-1.96,0.00,1.01,0.30,9.29,0.00,0.00,0.00,0.00
2026-06-26 17:57:11.201,994.20,994.17,-2.19,-1.96,0.00,1.01,0.30,9.31,0.00,0.00,0.00,0.00
2026-06-26 17:57:11.203,994.20,994.17,-2.19,-1.96,0.00,1.01,0.30,9.31,0.00,0.00,0.00,0.00
2026-06-26 17:57:11.241,994.20,994.18,-1.95,-1.85,0.00,1.01,0.30,9.28,0.00,0.00,0.00,0.00
2026-06-26 17:57:11.242,994.20,994.18,-1.95,-1.85,0.00,1.01,0.30,9.28,0.00,0.00,0.00,0.00
2026-06-26 17:57:11.246,994.20,994.18,-1.95,-1.85,0.00,1.01,0.30,9.28,0.00,0.00,0.00,0.00
2026-06-26 17:57:11.290,994.19,994.18,-1.36,-1.54,0.00,1.01,0.30,9.29,-0.00,-0.00,0.00,0.00
2026-06-26 17:57:11.292,994.19,994.18,-1.36,-1.54,0.00,1.01,0.30,9.29,-0.00,-0.00,0.00,0.00
2026-06-26 17:57:11.295,994.19,994.18,-1.36,-1.54,0.00,1.01,0.30,9.29,-0.00,-0.00,0.00,0.00
2026-06-26 17:57:11.300,994.19,994.18,-1.36,-1.54,0.00,1.01,0.30,9.29,-0.00,-0.00,-0.00,0.00
2026-06-26 17:57:11.302,994.19,994.18,-1.36,-1.54,0.00,1.02,0.31,9.28,-0.00,-0.00,-0.00,0.00
2026-06-26 17:57:11.305,994.19,994.18,-1.36,-1.54,0.00,1.02,0.31,9.28,-0.00,-0.00,-0.00,0.00
2026-06-26 17:57:11.310,994.19,994.18,-1.36,-1.54,0.00,1.02,0.31,9.28,0.00,-0.00,-0.00,0.00
2026-06-26 17:57:11.311,994.19,994.18,-1.36,-1.54,0.00,1.02,0.29,9.25,0.00,-0.00,-0.00,0.00
2026-06-26 17:57:11.313,994.19,994.18,-1.36,-1.54,0.00,1.02,0.29,9.25,0.00,-0.00,-0.00,0.00
2026-06-26 17:57:11.320,994.19,994.18,-1.36,-1.54,0.00,1.02,0.29,9.25,0.00,-0.00,0.00,0.00
2026-06-26 17:57:11.322,994.19,994.18,-1.36,-1.54,0.00,1.03,0.30,9.27,0.00,-0.00,0.00,0.00
2026-06-26 17:57:11.324,994.19,994.18,-1.36,-1.54,0.00,1.03,0.30,9.27,0.00,-0.00,0.00,0.00
2026-06-26 17:57:11.330,994.19,994.18,-1.36,-1.54,0.00,1.03,0.30,9.27,0.00,0.00,0.00,0.00
2026-06-26 17:57:11.332,994.19,994.18,-1.36,-1.54,0.00,1.01,0.30,9.27,0.00,0.00,0.00,0.00
2026-06-26 17:57:11.333,994.19,994.18,-1.36,-1.54,0.00,1.01,0.30,9.27,0.00,0.00,0.00,0.00
2026-06-26 17:57:11.335,994.19,994.18,-1.36,-1.54,0.00,1.01,0.30,9.27,0.00,0.00,0.00,0.00
2026-06-26 17:57:11.339,994.19,994.18,-1.36,-1.54,0.00,1.01,0.30,9.27,0.00,0.00,0.00,0.00
2026-06-26 17:57:11.383,994.19,994.18,-1.26,-1.49,0.00,1.02,0.29,9.28,0.00,-0.00,0.00,0.00
2026-06-26 17:57:11.384,994.19,994.18,-1.26,-1.49,0.00,1.02,0.29,9.28,0.00,-0.00,0.00,0.00
2026-06-26 17:57:11.386,994.19,994.18,-1.26,-1.49,0.00,1.02,0.29,9.28,0.00,-0.00,0.00,0.00
2026-06-26 17:57:11.389,994.19,994.18,-1.26,-1.49,0.00,1.02,0.29,9.28,0.00,-0.00,0.00,0.00
2026-06-26 17:57:11.432,994.19,994.18,-1.26,-1.49,0.00,1.00,0.31,9.28,0.00,0.00,-0.00,0.00
2026-06-26 17:57:11.434,994.19,994.18,-1.26,-1.49,0.00,1.00,0.31,9.28,0.00,0.00,-0.00,0.00
2026-06-26 17:57:11.436,994.19,994.18,-1.26,-1.49,0.00,1.00,0.31,9.28,0.00,0.00,-0.00,0.00
2026-06-26 17:57:11.437,994.19,994.18,-1.26,-1.49,0.00,1.00,0.31,9.28,0.00,0.00,-0.00,0.00
2026-06-26 17:57:11.440,994.19,994.18,-1.26,-1.49,0.00,1.00,0.31,9.28,0.00,-0.00,0.00,0.00
2026-06-26 17:57:11.442,994.19,994.18,-1.26,-1.49,0.00,1.02,0.29,9.28,0.00,-0.00,0.00,0.00
2026-06-26 17:57:11.444,994.19,994.18,-1.26,-1.49,0.00,1.02,0.29,9.28,0.00,-0.00,0.00,0.00
2026-06-26 17:57:11.449,994.19,994.18,-1.26,-1.49,0.00,1.02,0.29,9.28,0.00,-0.00,0.00,0.00
2026-06-26 17:57:11.451,994.19,994.18,-1.26,-1.49,0.00,1.01,0.29,9.28,-0.00,0.00,0.00,0.00
2026-06-26 17:57:11.452,994.19,994.18,-1.26,-1.49,0.00,1.01,0.29,9.28,-0.00,0.00,0.00,0.00
2026-06-26 17:57:11.459,994.19,994.18,-1.26,-1.49,0.00,1.01,0.29,9.28,-0.00,0.00,0.00,0.00
2026-06-26 17:57:11.462,994.19,994.18,-1.26,-1.49,0.00,1.01,0.29,9.27,-0.00,-0.00,0.00,0.00
2026-06-26 17:57:11.463,994.19,994.18,-1.26,-1.49,0.00,1.01,0.29,9.27,-0.00,-0.00,0.00,0.00
2026-06-26 17:57:11.469,994.19,994.18,-1.26,-1.49,0.00,1.01,0.29,9.27,-0.00,-0.00,0.00,0.00
2026-06-26 17:57:11.471,994.19,994.18,-1.26,-1.49,0.00,1.03,0.30,9.27,0.00,0.00,-0.00,0.00
2026-06-26 17:57:11.473,994.19,994.18,-1.26,-1.49,0.00,1.03,0.30,9.27,0.00,0.00,-0.00,0.00
2026-06-26 17:57:11.477,994.19,994.18,-1.26,-1.49,0.00,1.03,0.30,9.27,0.00,0.00,-0.00,0.00
2026-06-26 17:57:11.481,994.19,994.18,-1.26,-1.49,0.00,1.03,0.30,9.27,0.00,-0.00,0.00,0.00
2026-06-26 17:57:11.482,994.19,994.18,-1.26,-1.49,0.00,1.01,0.30,9.27,0.00,-0.00,0.00,0.00
2026-06-26 17:57:11.528,994.19,994.17,-1.54,-1.65,0.00,1.00,0.29,9.25,0.00,-0.00,0.00,0.00
2026-06-26 17:57:11.531,994.19,994.17,-1.54,-1.65,0.00,1.02,0.28,9.26,-0.00,-0.00,0.00,0.00
2026-06-26 17:57:11.571,994.19,994.17,-1.81,-1.78,0.00,1.01,0.29,9.28,-0.00,-0.00,0.00,0.00
2026-06-26 17:57:11.573,994.19,994.17,-1.81,-1.78,0.00,1.01,0.29,9.28,-0.00,-0.00,0.00,0.00
2026-06-26 17:57:11.577,994.19,994.17,-1.81,-1.78,0.00,1.01,0.29,9.28,-0.00,-0.00,0.00,0.00
2026-06-26 17:57:11.581,994.19,994.17,-1.81,-1.78,0.00,1.03,0.31,9.28,-0.00,-0.01,0.00,0.00
2026-06-26 17:57:11.582,994.19,994.17,-1.81,-1.78,0.00,1.03,0.31,9.28,-0.00,-0.01,0.00,0.00
2026-06-26 17:57:11.584,994.19,994.17,-1.81,-1.78,0.00,1.03,0.31,9.28,-0.00,-0.01,0.00,0.00
2026-06-26 17:57:11.585,994.19,994.17,-1.81,-1.78,0.00,1.03,0.31,9.28,-0.00,-0.01,0.00,0.00
2026-06-26 17:57:11.587,994.19,994.17,-1.81,-1.78,0.00,1.03,0.31,9.28,-0.00,-0.01,0.00,0.00
2026-06-26 17:57:11.590,994.19,994.17,-1.81,-1.78,0.00,1.03,0.31,9.28,-0.00,-0.01,0.00,0.00
2026-06-26 17:57:11.591,994.19,994.17,-1.81,-1.78,0.00,1.01,0.29,9.27,-0.00,0.00,0.00,0.00
2026-06-26 17:57:11.593,994.19,994.17,-1.81,-1.78,0.00,1.01,0.29,9.27,-0.00,0.00,0.00,0.00
2026-06-26 17:57:11.596,994.19,994.17,-1.81,-1.78,0.00,1.01,0.29,9.27,-0.00,0.00,0.00,0.00
2026-06-26 17:57:11.600,994.19,994.17,-1.81,-1.78,0.00,1.01,0.29,9.27,0.00,0.00,0.00,0.00
2026-06-26 17:57:11.603,994.19,994.17,-1.81,-1.78,0.00,1.01,0.30,9.27,0.00,0.00,0.00,0.00
2026-06-26 17:57:11.608,994.19,994.17,-1.81,-1.78,0.00,1.01,0.30,9.27,0.00,0.00,0.00,0.00
2026-06-26 17:57:11.611,994.19,994.17,-1.81,-1.78,0.00,1.03,0.30,9.30,-0.00,0.00,0.00,0.00
2026-06-26 17:57:11.613,994.19,994.17,-1.81,-1.78,0.00,1.03,0.30,9.30,-0.00,0.00,0.00,0.00
2026-06-26 17:57:11.614,994.19,994.17,-1.81,-1.78,0.00,1.03,0.30,9.30,-0.00,0.00,0.00,0.00
2026-06-26 17:57:11.619,994.19,994.17,-1.81,-1.78,0.00,1.03,0.30,9.30,-0.00,0.00,0.00,0.00
2026-06-26 17:57:11.621,994.19,994.17,-1.81,-1.78,0.00,1.02,0.28,9.30,-0.00,-0.00,0.00,0.00
2026-06-26 17:57:11.670,994.19,994.17,-1.78,-1.77,0.00,1.01,0.29,9.25,-0.00,0.00,0.00,0.00
2026-06-26 17:57:11.711,994.20,994.17,-2.12,-1.93,0.00,1.02,0.28,9.29,-0.00,0.00,0.00,0.00
2026-06-26 17:57:11.712,994.20,994.17,-2.12,-1.93,0.00,1.01,0.30,9.26,-0.00,0.00,0.00,0.00
2026-06-26 17:57:11.714,994.20,994.17,-2.12,-1.93,0.00,1.01,0.30,9.26,-0.00,0.00,0.00,0.00
2026-06-26 17:57:11.715,994.20,994.17,-2.12,-1.93,0.00,1.01,0.30,9.26,-0.00,0.00,0.00,0.00
2026-06-26 17:57:11.720,994.20,994.17,-2.12,-1.93,0.00,1.01,0.30,9.26,-0.00,0.00,0.00,0.00
2026-06-26 17:57:11.722,994.20,994.17,-2.12,-1.93,0.00,1.01,0.29,9.27,-0.00,-0.00,0.00,0.00
2026-06-26 17:57:11.724,994.20,994.17,-2.12,-1.93,0.00,1.01,0.29,9.27,-0.00,-0.00,0.00,0.00
2026-06-26 17:57:11.730,994.20,994.17,-2.12,-1.93,0.00,1.01,0.29,9.27,-0.00,-0.00,0.00,0.00
2026-06-26 17:57:11.731,994.20,994.17,-2.12,-1.93,0.00,1.01,0.30,9.28,-0.00,0.00,-0.00,0.00
2026-06-26 17:57:11.733,994.20,994.17,-2.12,-1.93,0.00,1.01,0.30,9.28,-0.00,0.00,-0.00,0.00
2026-06-26 17:57:11.736,994.20,994.17,-2.12,-1.93,0.00,1.01,0.30,9.28,-0.00,0.00,-0.00,0.00
2026-06-26 17:57:11.740,994.20,994.17,-2.12,-1.93,0.00,1.01,0.30,9.28,-0.00,0.00,-0.00,0.00
2026-06-26 17:57:11.741,994.20,994.17,-2.12,-1.93,0.00,1.03,0.30,9.27,0.00,0.00,0.00,0.00
2026-06-26 17:57:11.743,994.20,994.17,-2.12,-1.93,0.00,1.03,0.30,9.27,0.00,0.00,0.00,0.00
2026-06-26 17:57:11.744,994.20,994.17,-2.12,-1.93,0.00,1.03,0.30,9.27,0.00,0.00,0.00,0.00
2026-06-26 17:57:11.750,994.20,994.17,-2.12,-1.93,0.00,1.03,0.30,9.27,0.00,0.00,0.00,0.00
2026-06-26 17:57:11.752,994.20,994.17,-2.12,-1.93,0.00,1.04,0.31,9.26,-0.00,0.00,0.00,0.00
2026-06-26 17:57:11.754,994.20,994.17,-2.12,-1.93,0.00,1.04,0.31,9.26,-0.00,0.00,0.00,0.00
2026-06-26 17:57:11.761,994.20,994.17,-2.12,-1.93,0.00,1.04,0.31,9.26,-0.00,0.00,0.00,0.00
2026-06-26 17:57:11.763,994.20,994.17,-2.12,-1.93,0.00,1.01,0.28,9.25,-0.00,0.00,-0.00,0.00
2026-06-26 17:57:11.766,994.20,994.17,-2.12,-1.93,0.00,1.01,0.28,9.25,-0.00,0.00,-0.00,0.00
2026-06-26 17:57:11.851,994.19,994.17,-2.47,-2.09,0.00,1.03,0.31,9.26,-0.00,0.00,-0.00,0.00
2026-06-26 17:57:11.853,994.19,994.17,-2.47,-2.09,0.00,1.03,0.31,9.26,-0.00,0.00,-0.00,0.00
2026-06-26 17:57:11.855,994.19,994.17,-2.47,-2.09,0.00,1.03,0.31,9.26,-0.00,0.00,-0.00,0.00
2026-06-26 17:57:11.860,994.19,994.17,-2.47,-2.09,0.00,1.03,0.31,9.26,-0.00,0.00,-0.00,0.00
2026-06-26 17:57:11.862,994.19,994.17,-2.47,-2.09,0.00,1.02,0.29,9.28,-0.00,0.00,0.00,0.00
2026-06-26 17:57:11.863,994.19,994.17,-2.47,-2.09,0.00,1.02,0.29,9.28,-0.00,0.00,0.00,0.00
2026-06-26 17:57:11.866,994.19,994.17,-2.47,-2.09,0.00,1.02,0.29,9.28,-0.00,0.00,0.00,0.00
2026-06-26 17:57:11.870,994.19,994.17,-2.47,-2.09,0.00,1.02,0.29,9.28,-0.00,0.00,0.00,0.00
2026-06-26 17:57:11.872,994.19,994.17,-2.47,-2.09,0.00,1.02,0.29,9.30,0.00,0.00,0.00,0.00
2026-06-26 17:57:11.874,994.19,994.17,-2.47,-2.09,0.00,1.02,0.29,9.30,0.00,0.00,0.00,0.00
2026-06-26 17:57:11.880,994.19,994.17,-2.47,-2.09,0.00,1.02,0.29,9.30,0.00,0.00,0.00,0.00
2026-06-26 17:57:11.882,994.19,994.17,-2.47,-2.09,0.00,1.02,0.32,9.29,-0.00,-0.00,0.00,0.00
2026-06-26 17:57:11.885,994.19,994.17,-2.47,-2.09,0.00,1.02,0.32,9.29,-0.00,-0.00,0.00,0.00
2026-06-26 17:57:11.893,994.19,994.17,-2.47,-2.09,0.00,1.02,0.32,9.29,-0.00,0.01,-0.00,0.00
2026-06-26 17:57:11.897,994.19,994.17,-2.47,-2.09,0.00,0.99,0.31,9.29,-0.00,0.01,-0.00,0.00
2026-06-26 17:57:11.901,994.19,994.17,-2.47,-2.09,0.00,0.99,0.31,9.29,-0.00,0.00,0.00,0.00
2026-06-26 17:57:11.903,994.19,994.17,-2.47,-2.09,0.00,1.01,0.31,9.28,-0.00,0.00,0.00,0.00
2026-06-26 17:57:11.904,994.19,994.17,-2.47,-2.09,0.00,1.01,0.31,9.28,-0.00,0.00,0.00,0.00
2026-06-26 17:57:11.910,994.19,994.17,-2.47,-2.09,0.00,1.01,0.31,9.28,-0.00,0.00,0.00,0.00
2026-06-26 17:57:11.951,994.19,994.17,-2.73,-2.19,0.00,1.02,0.29,9.26,0.00,0.00,0.00,0.00
2026-06-26 17:57:11.994,994.19,994.17,-2.39,-2.05,0.00,1.01,0.31,9.27,0.00,0.00,0.00,0.00
2026-06-26 17:57:11.998,994.19,994.17,-2.39,-2.05,0.00,1.01,0.31,9.27,0.00,0.00,0.00,0.00
2026-06-26 17:57:11.001,994.19,994.17,-2.39,-2.05,0.00,1.01,0.31,9.27,-0.00,0.00,0.00,0.00
2026-06-26 17:57:11.003,994.19,994.17,-2.39,-2.05,0.00,1.02,0.28,9.27,-0.00,0.00,0.00,0.00
2026-06-26 17:57:12.004,994.19,994.17,-2.39,-2.05,0.00,1.02,0.28,9.27,-0.00,0.00,0.00,0.00
2026-06-26 17:57:12.008,994.19,994.17,-2.39,-2.05,0.00,1.02,0.28,9.27,-0.00,0.00,0.00,0.00
2026-06-26 17:57:12.011,994.19,994.17,-2.39,-2.05,0.00,1.02,0.28,9.27,0.00,0.00,0.00,0.00
2026-06-26 17:57:12.013,994.19,994.17,-2.39,-2.05,0.00,1.01,0.30,9.26,0.00,0.00,0.00,0.00
2026-06-26 17:57:12.014,994.19,994.17,-2.39,-2.05,0.00,1.01,0.30,9.26,0.00,0.00,0.00,0.00
2026-06-26 17:57:12.016,994.19,994.17,-2.39,-2.05,0.00,1.01,0.30,9.26,0.00,0.00,0.00,0.00
2026-06-26 17:57:12.021,994.19,994.17,-2.39,-2.05,0.00,1.01,0.30,9.26,0.00,-0.00,-0.00,0.00
2026-06-26 17:57:12.023,994.19,994.17,-2.39,-2.05,0.00,1.04,0.30,9.25,0.00,-0.00,-0.00,0.00
2026-06-26 17:57:12.024,994.19,994.17,-2.39,-2.05,0.00,1.04,0.30,9.25,0.00,-0.00,-0.00,0.00
2026-06-26 17:57:12.028,994.19,994.17,-2.39,-2.05,0.00,1.04,0.30,9.25,0.00,-0.00,-0.00,0.00
2026-06-26 17:57:12.032,994.19,994.17,-2.39,-2.05,0.00,1.04,0.30,9.25,0.00,-0.00,0.00,0.00
2026-06-26 17:57:12.033,994.19,994.17,-2.39,-2.05,0.00,1.03,0.30,9.29,0.00,-0.00,0.00,0.00
2026-06-26 17:57:12.035,994.19,994.17,-2.39,-2.05,0.00,1.03,0.30,9.29,0.00,-0.00,0.00,0.00
2026-06-26 17:57:12.038,994.19,994.17,-2.39,-2.05,0.00,1.03,0.30,9.29,0.00,-0.00,0.00,0.00
2026-06-26 17:57:12.042,994.19,994.17,-2.39,-2.05,0.00,1.03,0.30,9.29,0.00,-0.00,-0.00,0.00
2026-06-26 17:57:12.044,994.19,994.17,-2.39,-2.05,0.00,1.01,0.28,9.29,0.00,-0.00,-0.00,0.00
2026-06-26 17:57:12.051,994.19,994.17,-2.39,-2.05,0.00,1.01,0.28,9.29,0.00,0.00,0.00,0.00
2026-06-26 17:57:12.136,994.19,994.16,-2.94,-2.27,0.00,1.01,0.29,9.27,0.00,0.00,0.00,0.00
2026-06-26 17:57:12.140,994.19,994.16,-2.94,-2.27,0.00,1.01,0.29,9.27,0.00,0.00,0.00,0.00
2026-06-26 17:57:12.142,994.19,994.16,-2.94,-2.27,0.00,1.01,0.32,9.29,-0.00,0.00,0.00,0.00
2026-06-26 17:57:12.143,994.19,994.16,-2.94,-2.27,0.00,1.01,0.32,9.29,-0.00,0.00,0.00,0.00
2026-06-26 17:57:12.145,994.19,994.16,-2.94,-2.27,0.00,1.01,0.32,9.29,-0.00,0.00,0.00,0.00
2026-06-26 17:57:12.151,994.19,994.16,-2.94,-2.27,0.00,1.01,0.32,9.29,-0.00,-0.00,0.00,0.00
2026-06-26 17:57:12.153,994.19,994.16,-2.94,-2.27,0.00,1.01,0.29,9.27,-0.00,-0.00,0.00,0.00
2026-06-26 17:57:12.155,994.19,994.16,-2.94,-2.27,0.00,1.01,0.29,9.27,-0.00,-0.00,0.00,0.00
2026-06-26 17:57:12.161,994.19,994.16,-2.94,-2.27,0.00,1.01,0.29,9.27,-0.00,-0.00,0.00,0.00
2026-06-26 17:57:12.162,994.19,994.16,-2.94,-2.27,0.00,1.02,0.30,9.25,-0.00,0.00,-0.00,0.00
2026-06-26 17:57:12.164,994.19,994.16,-2.94,-2.27,0.00,1.02,0.30,9.25,-0.00,0.00,-0.00,0.00
2026-06-26 17:57:12.166,994.19,994.16,-2.94,-2.27,0.00,1.02,0.30,9.25,-0.00,0.00,-0.00,0.00
2026-06-26 17:57:12.171,994.19,994.16,-2.94,-2.27,0.00,1.02,0.30,9.25,-0.00,0.00,-0.00,0.00
2026-06-26 17:57:12.173,994.19,994.16,-2.94,-2.27,0.00,1.03,0.31,9.28,0.00,0.00,0.00,0.00
2026-06-26 17:57:12.175,994.19,994.16,-2.94,-2.27,0.00,1.03,0.31,9.28,0.00,0.00,0.00,0.00
