timestamp,pressure_bag,pressure_bme,diff_pressure,v_wind_est,speed,accel_x,accel_y,accel_z,gyro_x,gyro_y,gyro_z,power
2026-06-26 17:53:15.376,994.16,994.25,8.78,3.93,0.00,1.00,0.29,9.32,-0.00,0.00,0.00,0.00
2026-06-26 17:53:15.383,994.16,994.25,8.78,3.93,0.00,1.00,0.29,9.28,-0.00,0.00,0.00,0.00
2026-06-26 17:53:15.385,994.16,994.25,8.78,3.93,0.00,1.03,0.29,9.28,-0.00,-0.00,0.00,0.00
2026-06-26 17:53:15.388,994.16,994.25,8.78,3.93,0.00,1.03,0.29,9.28,-0.00,-0.00,0.00,0.00
2026-06-26 17:53:15.393,994.16,994.25,8.78,3.93,0.00,1.03,0.29,9.28,-0.00,-0.00,0.00,0.00
2026-06-26 17:53:15.396,994.16,994.25,8.78,3.93,0.00,1.01,0.29,9.27,-0.00,-0.00,0.00,0.00
2026-06-26 17:53:15.404,994.16,994.25,8.78,3.93,0.00,1.01,0.29,9.27,0.00,-0.00,0.00,0.00
2026-06-26 17:53:15.406,994.16,994.25,8.78,3.93,0.00,1.01,0.28,9.28,0.00,-0.00,0.00,0.00
2026-06-26 17:53:15.409,994.16,994.25,8.78,3.93,0.00,1.01,0.28,9.28,0.00,-0.00,0.00,0.00
2026-06-26 17:53:15.413,994.16,994.25,8.78,3.93,0.00,1.01,0.28,9.28,-0.00,0.00,0.00,0.00
2026-06-26 17:53:15.415,994.16,994.25,8.78,3.93,0.00,1.03,0.31,9.30,-0.00,0.00,0.00,0.00
2026-06-26 17:53:15.416,994.16,994.25,8.78,3.93,0.00,1.03,0.31,9.30,-0.00,0.00,0.00,0.00
2026-06-26 17:53:15.418,994.16,994.25,8.78,3.93,0.00,1.03,0.31,9.30,-0.00,0.00,0.00,0.00
2026-06-26 17:53:15.422,994.16,994.25,8.78,3.93,0.00,1.03,0.31,9.30,-0.00,0.00,0.00,0.00
2026-06-26 17:53:15.424,994.16,994.25,8.78,3.93,0.00,1.03,0.30,9.30,0.00,-0.00,0.00,0.00
2026-06-26 17:53:15.425,994.16,994.25,8.78,3.93,0.00,1.03,0.30,9.30,0.00,-0.00,0.00,0.00
2026-06-26 17:53:15.428,994.16,994.25,8.78,3.93,0.00,1.03,0.30,9.30,0.00,-0.00,0.00,0.00
2026-06-26 17:53:15.473,994.16,994.25,9.18,4.01,0.00,1.00,0.28,9.29,0.00,-0.00,-0.00,0.00
2026-06-26 17:53:15.516,994.16,994.25,9.32,4.05,0.00,1.01,0.30,9.28,-0.00,-0.00,0.00,0.00
2026-06-26 17:53:15.518,994.16,994.25,9.32,4.05,0.00,1.01,0.30,9.28,-0.00,-0.00,0.00,0.00
2026-06-26 17:53:15.523,994.16,994.25,9.32,4.05,0.00,1.01,0.30,9.28,-0.00,-0.00,0.00,0.00
2026-06-26 17:53:15.525,994.16,994.25,9.32,4.05,0.00,1.01,0.28,9.28,0.00,0.00,0.00,0.00
2026-06-26 17:53:15.527,994.16,994.25,9.32,4.05,0.00,1.01,0.28,9.28,0.00,0.00,0.00,0.00
2026-06-26 17:53:15.532,994.16,994.25,9.32,4.05,0.00,1.01,0.28,9.28,0.00,0.00,0.00,0.00
2026-06-26 17:53:15.534,994.16,994.25,9.32,4.05,0.00,1.02,0.30,9.26,-0.00,0.00,0.00,0.00
2026-06-26 17:53:15.535,994.16,994.25,9.32,4.05,0.00,1.02,0.30,9.26,-0.00,0.00,0.00,0.00
2026-06-26 17:53:15.537,994.16,994.25,9.32,4.05,0.00,1.02,0.30,9.26,-0.00,0.00,0.00,0.00
2026-06-26 17:53:15.538,994.16,994.25,9.32,4.05,0.00,1.02,0.30,9.26,-0.00,0.00,0.00,0.00
2026-06-26 17:53:15.539,994.16,994.25,9.32,4.05,0.00,1.02,0.30,9.26,-0.00,0.00,0.00,0.00
2026-06-26 17:53:15.543,994.16,994.25,9.32,4.05,0.00,1.02,0.30,9.26,-0.00,0.00,0.00,0.00
2026-06-26 17:53:15.545,994.16,994.25,9.32,4.05,0.00,1.01,0.29,9.27,0.00,0.00,0.00,0.00
2026-06-26 17:53:15.547,994.16,994.25,9.32,4.05,0.00,1.01,0.29,9.27,0.00,0.00,0.00,0.00
2026-06-26 17:53:15.548,994.16,994.25,9.32,4.05,0.00,1.01,0.29,9.27,0.00,0.00,0.00,0.00
2026-06-26 17:53:15.553,994.16,994.25,9.32,4.05,0.00,1.01,0.29,9.27,0.00,0.00,0.00,0.00
2026-06-26 17:53:15.555,994.16,994.25,9.32,4.05,0.00,1.00,0.29,9.29,0.00,0.00,0.00,0.00
2026-06-26 17:53:15.556,994.16,994.25,9.32,4.05,0.00,1.00,0.29,9.29,0.00,0.00,0.00,0.00
2026-06-26 17:53:15.557,994.16,994.25,9.32,4.05,0.00,1.00,0.29,9.29,0.00,0.00,0.00,0.00
2026-06-26 17:53:15.559,994.16,994.25,9.32,4.05,0.00,1.00,0.29,9.29,0.00,0.00,0.00,0.00
2026-06-26 17:53:15.566,994.16,994.25,9.32,4.05,0.00,1.00,0.29,9.29,0.00,-0.00,-0.00,0.00
2026-06-26 17:53:15.574,994.16,994.25,9.32,4.05,0.00,1.03,0.29,9.28,0.00,-0.00,-0.00,0.00
2026-06-26 17:53:15.659,994.16,994.25,9.09,4.00,0.00,1.01,0.28,9.28,0.00,0.00,-0.00,0.00
2026-06-26 17:53:15.662,994.16,994.25,9.09,4.00,0.00,1.01,0.28,9.28,0.00,0.00,-0.00,0.00
2026-06-26 17:53:15.665,994.16,994.25,9.09,4.00,0.00,1.01,0.28,9.28,0.00,0.00,0.00,0.00
2026-06-26 17:53:15.668,994.16,994.25,9.09,4.00,0.00,1.02,0.30,9.28,0.00,0.00,0.00,0.00
2026-06-26 17:53:15.673,994.16,994.25,9.09,4.00,0.00,1.02,0.30,9.28,0.00,0.00,0.00,0.00
2026-06-26 17:53:15.675,994.16,994.25,9.09,4.00,0.00,1.01,0.28,9.26,-0.00,0.00,-0.00,0.00
2026-06-26 17:53:15.677,994.16,994.25,9.09,4.00,0.00,1.01,0.28,9.26,-0.00,0.00,-0.00,0.00
2026-06-26 17:53:15.678,994.16,994.25,9.09,4.00,0.00,1.01,0.28,9.26,-0.00,0.00,-0.00,0.00
2026-06-26 17:53:15.682,994.16,994.25,9.09,4.00,0.00,1.01,0.28,9.26,-0.00,0.00,-0.00,0.00
2026-06-26 17:53:15.685,994.16,994.25,9.09,4.00,0.00,1.01,0.28,9.26,0.00,0.00,0.00,0.00
2026-06-26 17:53:15.686,994.16,994.25,9.09,4.00,0.00,1.02,0.28,9.25,0.00,0.00,0.00,0.00
2026-06-26 17:53:15.687,994.16,994.25,9.09,4.00,0.00,1.02,0.28,9.25,0.00,0.00,0.00,0.00
2026-06-26 17:53:15.689,994.16,994.25,9.09,4.00,0.00,1.02,0.28,9.25,0.00,0.00,0.00,0.00
2026-06-26 17:53:15.694,994.16,994.25,9.09,4.00,0.00,1.02,0.28,9.25,0.00,0.00,0.00,0.00
2026-06-26 17:53:15.695,994.16,994.25,9.09,4.00,0.00,1.02,0.30,9.28,0.00,-0.00,-0.00,0.00
2026-06-26 17:53:15.697,994.16,994.25,9.09,4.00,0.00,1.02,0.30,9.28,0.00,-0.00,-0.00,0.00
2026-06-26 17:53:15.698,994.16,994.25,9.09,4.00,0.00,1.02,0.30,9.28,0.00,-0.00,-0.00,0.00
2026-06-26 17:53:15.701,994.16,994.25,9.09,4.00,0.00,1.02,0.30,9.28,0.00,-0.00,-0.00,0.00
2026-06-26 17:53:15.705,994.16,994.25,9.09,4.00,0.00,1.02,0.30,9.28,-0.00,0.00,-0.00,0.00
2026-06-26 17:53:15.706,994.16,994.25,9.09,4.00,0.00,1.01,0.29,9.29,-0.00,0.00,-0.00,0.00
2026-06-26 17:53:15.707,994.16,994.25,9.09,4.00,0.00,1.01,0.29,9.29,-0.00,0.00,-0.00,0.00
2026-06-26 17:53:15.708,994.16,994.25,9.09,4.00,0.00,1.01,0.29,9.29,-0.00,0.00,-0.00,0.00
2026-06-26 17:53:15.714,994.16,994.25,9.09,4.00,0.00,1.01,0.29,9.29,-0.00,0.00,-0.00,0.00
2026-06-26 17:53:15.720,994.16,994.25,9.09,4.00,0.00,1.01,0.28,9.27,-0.00,0.00,0.00,0.00
2026-06-26 17:53:15.805,994.17,994.25,8.62,3.89,0.00,1.01,0.28,9.29,-0.00,0.00,0.00,0.00
2026-06-26 17:53:15.806,994.17,994.25,8.62,3.89,0.00,1.01,0.30,9.25,-0.00,0.00,0.00,0.00
2026-06-26 17:53:15.807,994.17,994.25,8.62,3.89,0.00,1.01,0.30,9.25,-0.00,0.00,0.00,0.00
2026-06-26 17:53:15.809,994.17,994.25,8.62,3.89,0.00,1.01,0.30,9.25,-0.00,0.00,0.00,0.00
2026-06-26 17:53:15.810,994.17,994.25,8.62,3.89,0.00,1.01,0.30,9.25,-0.00,0.00,0.00,0.00
2026-06-26 17:53:15.811,994.17,994.25,8.62,3.89,0.00,1.01,0.30,9.25,-0.00,0.00,0.00,0.00
2026-06-26 17:53:15.812,994.17,994.25,8.62,3.89,0.00,1.01,0.30,9.25,-0.00,0.00,0.00,0.00
2026-06-26 17:53:15.815,994.17,994.25,8.62,3.89,0.00,1.00,0.29,9.28,0.00,0.00,0.00,0.00
2026-06-26 17:53:15.817,994.17,994.25,8.62,3.89,0.00,1.00,0.29,9.28,0.00,0.00,0.00,0.00
2026-06-26 17:53:15.818,994.17,994.25,8.62,3.89,0.00,1.00,0.29,9.28,0.00,0.00,0.00,0.00
2026-06-26 17:53:15.822,994.17,994.25,8.62,3.89,0.00,1.00,0.29,9.28,0.00,0.00,0.00,0.00
2026-06-26 17:53:15.825,994.17,994.25,8.62,3.89,0.00,1.00,0.29,9.28,0.00,0.00,0.00,0.00
2026-06-26 17:53:15.828,994.17,994.25,8.62,3.89,0.00,1.01,0.28,9.31,0.00,0.00,0.00,0.00
2026-06-26 17:53:15.834,994.17,994.25,8.62,3.89,0.00,1.01,0.28,9.31,0.00,0.00,0.00,0.00
2026-06-26 17:53:15.836,994.17,994.25,8.62,3.89,0.00,1.00,0.29,9.27,-0.00,0.00,0.00,0.00
2026-06-26 17:53:15.838,994.17,994.25,8.62,3.89,0.00,1.00,0.29,9.27,-0.00,0.00,0.00,0.00
2026-06-26 17:53:15.840,994.17,994.25,8.62,3.89,0.00,1.00,0.29,9.27,-0.00,0.00,0.00,0.00
2026-06-26 17:53:15.845,994.17,994.25,8.62,3.89,0.00,1.00,0.29,9.27,-0.00,0.00,0.00,0.00
2026-06-26 17:53:15.847,994.17,994.25,8.62,3.89,0.00,1.01,0.29,9.26,-0.00,0.00,0.00,0.00
2026-06-26 17:53:15.849,994.17,994.25,8.62,3.89,0.00,1.01,0.29,9.26,-0.00,0.00,0.00,0.00
2026-06-26 17:53:15.855,994.17,994.25,8.62,3.89,0.00,1.01,0.29,9.26,-0.00,0.00,0.00,0.00
2026-06-26 17:53:15.856,994.17,994.25,8.62,3.89,0.00,1.01,0.31,9.27,-0.00,-0.00,0.00,0.00
2026-06-26 17:53:15.858,994.17,994.25,8.62,3.89,0.00,1.01,0.31,9.27,-0.00,-0.00,0.00,0.00
2026-06-26 17:53:15.861,994.17,994.25,8.62,3.89,0.00,1.01,0.31,9.27,-0.00,-0.00,0.00,0.00
2026-06-26 17:53:15.945,994.17,994.25,8.61,3.89,0.00,1.01,0.26,9.24,0.00,0.00,-0.00,0.00
2026-06-26 17:53:15.946,994.17,994.25,8.61,3.89,0.00,1.02,0.29,9.29,0.00,0.00,-0.00,0.00
2026-06-26 17:53:15.948,994.17,994.25,8.61,3.89,0.00,1.02,0.29,9.29,0.00,0.00,-0.00,0.00
2026-06-26 17:53:15.951,994.17,994.25,8.61,3.89,0.00,1.02,0.29,9.29,0.00,0.00,-0.00,0.00
2026-06-26 17:53:15.956,994.17,994.25,8.61,3.89,0.00,1.02,0.29,9.29,-0.00,0.00,-0.00,0.00
2026-06-26 17:53:15.959,994.17,994.25,8.61,3.89,0.00,1.01,0.28,9.28,-0.00,0.00,-0.00,0.00
2026-06-26 17:53:15.961,994.17,994.25,8.61,3.89,0.00,1.01,0.28,9.28,-0.00,0.00,-0.00,0.00
2026-06-26 17:53:15.964,994.17,994.25,8.61,3.89,0.00,1.01,0.28,9.28,-0.00,0.00,-0.00,0.00
2026-06-26 17:53:15.965,994.17,994.25,8.61,3.89,0.00,1.03,0.28,9.28,0.00,0.00,0.00,0.00
2026-06-26 17:53:15.967,994.17,994.25,8.61,3.89,0.00,1.03,0.28,9.28,0.00,0.00,0.00,0.00
2026-06-26 17:53:15.968,994.17,994.25,8.61,3.89,0.00,1.03,0.28,9.28,0.00,0.00,0.00,0.00
2026-06-26 17:53:15.972,994.17,994.25,8.61,3.89,0.00,1.03,0.28,9.28,0.00,0.00,0.00,0.00
2026-06-26 17:53:15.975,994.17,994.25,8.61,3.89,0.00,1.03,0.28,9.28,-0.00,0.01,-0.00,0.00
2026-06-26 17:53:15.977,994.17,994.25,8.61,3.89,0.00,1.03,0.29,9.27,-0.00,0.01,-0.00,0.00
2026-06-26 17:53:15.978,994.17,994.25,8.61,3.89,0.00,1.03,0.29,9.27,-0.00,0.01,-0.00,0.00
2026-06-26 17:53:15.981,994.17,994.25,8.61,3.89,0.00,1.03,0.29,9.27,-0.00,0.01,-0.00,0.00
2026-06-26 17:53:15.985,994.17,994.25,8.61,3.89,0.00,1.03,0.29,9.27,-0.00,0.00,-0.00,0.00
2026-06-26 17:53:15.987,994.17,994.25,8.61,3.89,0.00,1.01,0.29,9.24,-0.00,0.00,-0.00,0.00
2026-06-26 17:53:15.988,994.17,994.25,8.61,3.89,0.00,1.01,0.29,9.24,-0.00,0.00,-0.00,0.00
2026-06-26 17:53:15.996,994.17,994.25,8.61,3.89,0.00,1.01,0.29,9.24,-0.00,0.00,-0.00,0.00
2026-06-26 17:53:15.999,994.17,994.25,8.61,3.89,0.00,1.03,0.27,9.27,-0.00,-0.00,0.00,0.00
2026-06-26 17:53:15.005,994.17,994.25,8.61,3.89,0.00,1.03,0.27,9.27,-0.00,-0.00,0.00,0.00
2026-06-26 17:53:16.086,994.17,994.25,8.44,3.85,0.00,1.02,0.31,9.24,-0.00,0.00,0.00,0.00
2026-06-26 17:53:16.088,994.17,994.25,8.44,3.85,0.00,1.02,0.31,9.24,-0.00,0.00,0.00,0.00
2026-06-26 17:53:16.089,994.17,994.25,8.44,3.85,0.00,1.02,0.31,9.24,-0.00,0.00,0.00,0.00
2026-06-26 17:53:16.095,994.17,994.25,8.44,3.85,0.00,1.02,0.31,9.24,-0.00,0.00,0.00,0.00
2026-06-26 17:53:16.097,994.17,994.25,8.44,3.85,0.00,1.03,0.28,9.27,0.00,0.00,0.00,0.00
2026-06-26 17:53:16.099,994.17,994.25,8.44,3.85,0.00,1.03,0.28,9.27,0.00,0.00,0.00,0.00
2026-06-26 17:53:16.104,994.17,994.25,8.44,3.85,0.00,1.03,0.28,9.27,0.00,0.00,0.00,0.00
2026-06-26 17:53:16.106,994.17,994.25,8.44,3.85,0.00,1.04,0.29,9.27,-0.00,0.00,-0.00,0.00
2026-06-26 17:53:16.108,994.17,994.25,8.44,3.85,0.00,1.04,0.29,9.27,-0.00,0.00,-0.00,0.00
2026-06-26 17:53:16.110,994.17,994.25,8.44,3.85,0.00,1.04,0.29,9.27,-0.00,0.00,-0.00,0.00
2026-06-26 17:53:16.112,994.17,994.25,8.44,3.85,0.00,1.04,0.29,9.27,-0.00,0.00,-0.00,0.00
2026-06-26 17:53:16.116,994.17,994.25,8.44,3.85,0.00,1.04,0.29,9.27,0.00,-0.00,-0.00,0.00
2026-06-26 17:53:16.117,994.17,994.25,8.44,3.85,0.00,1.01,0.31,9.28,0.00,-0.00,-0.00,0.00
2026-06-26 17:53:16.119,994.17,994.25,8.44,3.85,0.00,1.01,0.31,9.28,0.00,-0.00,-0.00,0.00
2026-06-26 17:53:16.126,994.17,994.25,8.44,3.85,0.00,1.01,0.31,9.28,0.00,0.00,0.00,0.00
2026-06-26 17:53:16.127,994.17,994.25,8.44,3.85,0.00,1.01,0.28,9.27,0.00,0.00,0.00,0.00
2026-06-26 17:53:16.134,994.17,994.25,8.44,3.85,0.00,1.01,0.28,9.27,0.00,0.00,0.00,0.00
2026-06-26 17:53:16.138,994.17,994.25,8.44,3.85,0.00,1.01,0.30,9.27,0.00,-0.00,0.00,0.00
2026-06-26 17:53:16.142,994.17,994.25,8.44,3.85,0.00,1.01,0.30,9.27,0.00,-0.00,0.00,0.00
2026-06-26 17:53:16.146,994.17,994.25,8.44,3.85,0.00,1.01,0.30,9.27,-0.00,-0.00,-0.00,0.00
2026-06-26 17:53:16.234,994.16,994.25,8.97,3.97,0.00,1.01,0.28,9.29,-0.00,-0.00,0.00,0.00
2026-06-26 17:53:16.236,994.16,994.25,8.97,3.97,0.00,1.02,0.28,9.28,0.00,-0.00,0.00,0.00
2026-06-26 17:53:16.238,994.16,994.25,8.97,3.97,0.00,1.02,0.28,9.28,0.00,-0.00,0.00,0.00
2026-06-26 17:53:16.245,994.16,994.25,8.97,3.97,0.00,1.02,0.28,9.28,0.00,-0.00,0.00,0.00
2026-06-26 17:53:16.248,994.16,994.25,8.97,3.97,0.00,1.02,0.29,9.26,0.00,-0.00,0.00,0.00
2026-06-26 17:53:16.249,994.16,994.25,8.97,3.97,0.00,1.02,0.29,9.26,0.00,-0.00,0.00,0.00
2026-06-26 17:53:16.255,994.16,994.25,8.97,3.97,0.00,1.02,0.29,9.26,0.00,-0.00,0.00,0.00
2026-06-26 17:53:16.257,994.16,994.25,8.97,3.97,0.00,1.02,0.27,9.28,-0.00,-0.00,0.00,0.00
2026-06-26 17:53:16.259,994.16,994.25,8.97,3.97,0.00,1.02,0.27,9.28,-0.00,-0.00,0.00,0.00
2026-06-26 17:53:16.261,994.16,994.25,8.97,3.97,0.00,1.02,0.27,9.28,-0.00,-0.00,0.00,0.00
2026-06-26 17:53:16.265,994.16,994.25,8.97,3.97,0.00,1.02,0.27,9.28,-0.00,-0.00,0.00,0.00
2026-06-26 17:53:16.267,994.16,994.25,8.97,3.97,0.00,1.01,0.27,9.29,0.00,-0.00,0.00,0.00
2026-06-26 17:53:16.275,994.16,994.25,8.97,3.97,0.00,1.01,0.27,9.29,0.00,-0.00,0.00,0.00
2026-06-26 17:53:16.277,994.16,994.25,8.97,3.97,0.00,1.02,0.29,9.29,0.00,-0.00,0.00,0.00
2026-06-26 17:53:16.279,994.16,994.25,8.97,3.97,0.00,1.02,0.29,9.29,0.00,-0.00,0.00,0.00
2026-06-26 17:53:16.285,994.16,994.25,8.97,3.97,0.00,1.02,0.29,9.29,0.00,-0.00,0.00,0.00
2026-06-26 17:53:16.288,994.16,994.25,8.97,3.97,0.00,1.01,0.30,9.25,-0.00,0.00,-0.00,0.00
2026-06-26 17:53:16.376,994.16,994.25,8.71,3.91,0.00,1.00,0.28,9.30,0.00,-0.00,-0.00,0.00
2026-06-26 17:53:16.378,994.16,994.25,8.71,3.91,0.00,1.01,0.27,9.27,0.00,-0.00,-0.00,0.00
2026-06-26 17:53:16.379,994.16,994.25,8.71,3.91,0.00,1.01,0.27,9.27,0.00,-0.00,-0.00,0.00
2026-06-26 17:53:16.385,994.16,994.25,8.71,3.91,0.00,1.01,0.27,9.27,0.00,-0.00,-0.00,0.00
2026-06-26 17:53:16.387,994.16,994.25,8.71,3.91,0.00,1.02,0.28,9.26,0.00,0.00,0.00,0.00
2026-06-26 17:53:16.388,994.16,994.25,8.71,3.91,0.00,1.02,0.28,9.26,0.00,0.00,0.00,0.00
2026-06-26 17:53:16.390,994.16,994.25,8.71,3.91,0.00,1.02,0.28,9.26,0.00,0.00,0.00,0.00
2026-06-26 17:53:16.396,994.16,994.25,8.71,3.91,0.00,1.02,0.28,9.26,0.00,0.00,0.00,0.00
2026-06-26 17:53:16.398,994.16,994.25,8.71,3.91,0.00,1.00,0.30,9.27,0.00,0.00,0.00,0.00
2026-06-26 17:53:16.399,994.16,994.25,8.71,3.91,0.00,1.00,0.30,9.27,0.00,0.00,0.00,0.00
2026-06-26 17:53:16.404,994.16,994.25,8.71,3.91,0.00,1.00,0.30,9.27,0.00,0.00,0.00,0.00
2026-06-26 17:53:16.406,994.16,994.25,8.71,3.91,0.00,1.01,0.28,9.27,0.00,0.00,0.00,0.00
2026-06-26 17:53:16.408,994.16,994.25,8.71,3.91,0.00,1.01,0.28,9.27,0.00,0.00,0.00,0.00
2026-06-26 17:53:16.410,994.16,994.25,8.71,3.91,0.00,1.01,0.28,9.27,0.00,0.00,0.00,0.00
2026-06-26 17:53:16.412,994.16,994.25,8.71,3.91,0.00,1.01,0.28,9.27,0.00,0.00,0.00,0.00
2026-06-26 17:53:16.416,994.16,994.25,8.71,3.91,0.00,1.01,0.28,9.27,0.00,-0.00,0.00,0.00
2026-06-26 17:53:16.423,994.16,994.25,8.71,3.91,0.00,1.01,0.28,9.30,0.00,-0.00,0.00,0.00
2026-06-26 17:53:16.426,994.16,994.25,8.71,3.91,0.00,1.01,0.29,9.28,0.00,-0.00,-0.00,0.00
2026-06-26 17:53:16.428,994.16,994.25,8.71,3.91,0.00,1.01,0.29,9.28,0.00,-0.00,-0.00,0.00
2026-06-26 17:53:16.435,994.16,994.25,8.71,3.91,0.00,1.01,0.29,9.28,0.00,-0.00,-0.00,0.00
2026-06-26 17:53:16.476,994.16,994.25,8.48,3.86,0.00,1.02,0.30,9.27,0.00,-0.00,0.00,0.00
2026-06-26 17:53:16.519,994.16,994.25,8.30,3.82,0.00,1.01,0.30,9.27,-0.00,0.00,0.00,0.00
2026-06-26 17:53:16.526,994.16,994.25,8.30,3.82,0.00,1.01,0.30,9.27,-0.00,0.00,0.00,0.00
2026-06-26 17:53:16.527,994.16,994.25,8.30,3.82,0.00,1.01,0.31,9.29,0.00,-0.00,0.00,0.00
2026-06-26 17:53:16.529,994.16,994.25,8.30,3.82,0.00,1.01,0.31,9.29,0.00,-0.00,0.00,0.00
2026-06-26 17:53:16.533,994.16,994.25,8.30,3.82,0.00,1.01,0.31,9.29,0.00,-0.00,0.00,0.00
2026-06-26 17:53:16.537,994.16,994.25,8.30,3.82,0.00,1.01,0.31,9.29,0.00,-0.00,-0.00,0.00
2026-06-26 17:53:16.538,994.16,994.25,8.30,3.82,0.00,1.02,0.29,9.27,0.00,-0.00,-0.00,0.00
2026-06-26 17:53:16.540,994.16,994.25,8.30,3.82,0.00,1.02,0.29,9.27,0.00,-0.00,-0.00,0.00
2026-06-26 17:53:16.544,994.16,994.25,8.30,3.82,0.00,1.02,0.29,9.27,0.00,-0.00,-0.00,0.00
2026-06-26 17:53:16.546,994.16,994.25,8.30,3.82,0.00,1.02,0.29,9.27,0.00,-0.00,0.00,0.00
2026-06-26 17:53:16.548,994.16,994.25,8.30,3.82,0.00,1.02,0.28,9.28,0.00,-0.00,0.00,0.00
2026-06-26 17:53:16.553,994.16,994.25,8.30,3.82,0.00,1.02,0.28,9.28,0.00,-0.00,0.00,0.00
2026-06-26 17:53:16.558,994.16,994.25,8.30,3.82,0.00,1.02,0.28,9.28,0.00,-0.00,0.00,0.00
2026-06-26 17:53:16.561,994.16,994.25,8.30,3.82,0.00,1.02,0.29,9.25,0.00,-0.00,0.00,0.00
2026-06-26 17:53:16.564,994.16,994.25,8.30,3.82,0.00,1.02,0.29,9.25,0.00,-0.00,0.00,0.00
2026-06-26 17:53:16.567,994.16,994.25,8.30,3.82,0.00,1.02,0.29,9.25,0.00,-0.00,-0.00,0.00
2026-06-26 17:53:16.570,994.16,994.25,8.30,3.82,0.00,1.01,0.28,9.27,0.00,-0.00,-0.00,0.00
2026-06-26 17:53:16.576,994.16,994.25,8.30,3.82,0.00,1.01,0.28,9.27,0.00,-0.00,-0.00,0.00
2026-06-26 17:53:16.617,994.16,994.25,8.89,3.95,0.00,1.05,0.26,9.28,0.00,-0.00,-0.00,0.00
2026-06-26 17:53:16.618,994.16,994.25,8.89,3.95,0.00,1.01,0.27,9.29,0.00,-0.00,-0.00,0.00
2026-06-26 17:53:16.661,994.16,994.25,9.26,4.03,0.00,1.02,0.30,9.29,-0.00,0.00,0.00,0.00
2026-06-26 17:53:16.664,994.16,994.25,9.26,4.03,0.00,1.02,0.30,9.29,-0.00,0.00,0.00,0.00
2026-06-26 17:53:16.667,994.16,994.25,9.26,4.03,0.00,1.02,0.30,9.29,-0.00,0.00,0.00,0.00
2026-06-26 17:53:16.670,994.16,994.25,9.26,4.03,0.00,1.02,0.29,9.28,-0.00,0.00,0.00,0.00
2026-06-26 17:53:16.676,994.16,994.25,9.26,4.03,0.00,1.02,0.29,9.28,-0.00,0.00,0.00,0.00
2026-06-26 17:53:16.678,994.16,994.25,9.26,4.03,0.00,0.99,0.29,9.29,-0.00,0.00,0.00,0.00
2026-06-26 17:53:16.680,994.16,994.25,9.26,4.03,0.00,0.99,0.29,9.29,-0.00,0.00,0.00,0.00
2026-06-26 17:53:16.686,994.16,994.25,9.26,4.03,0.00,0.99,0.29,9.29,-0.00,0.00,0.00,0.00
2026-06-26 17:53:16.688,994.16,994.25,9.26,4.03,0.00,1.02,0.29,9.28,0.00,0.00,0.00,0.00
2026-06-26 17:53:16.689,994.16,994.25,9.26,4.03,0.00,1.02,0.29,9.28,0.00,0.00,0.00,0.00
2026-06-26 17:53:16.693,994.16,994.25,9.26,4.03,0.00,1.02,0.29,9.28,0.00,0.00,0.00,0.00
2026-06-26 17:53:16.697,994.16,994.25,9.26,4.03,0.00,1.02,0.29,9.28,0.00,0.00,0.00,0.00
2026-06-26 17:53:16.699,994.16,994.25,9.26,4.03,0.00,1.03,0.28,9.26,0.00,0.00,0.00,0.00
2026-06-26 17:53:16.705,994.16,994.25,9.26,4.03,0.00,1.03,0.28,9.26,0.00,0.00,0.00,0.00
2026-06-26 17:53:16.707,994.16,994.25,9.26,4.03,0.00,1.01,0.29,9.25,-0.00,0.00,0.00,0.00
2026-06-26 17:53:16.709,994.16,994.25,9.26,4.03,0.00,1.01,0.29,9.25,-0.00,0.00,0.00,0.00
2026-06-26 17:53:16.711,994.16,994.25,9.26,4.03,0.00,1.01,0.29,9.25,-0.00,0.00,0.00,0.00
2026-06-26 17:53:16.713,994.16,994.25,9.26,4.03,0.00,1.01,0.29,9.25,-0.00,0.00,0.00,0.00
2026-06-26 17:53:16.717,994.16,994.25,9.26,4.03,0.00,1.01,0.29,9.25,0.00,0.00,-0.00,0.00
2026-06-26 17:53:16.757,994.16,994.25,9.32,4.05,0.00,1.02,0.28,9.27,0.00,0.00,0.00,0.00
2026-06-26 17:53:16.759,994.16,994.25,9.32,4.05,0.00,1.02,0.28,9.27,0.00,0.00,0.00,0.00
2026-06-26 17:53:16.807,994.16,994.25,9.55,4.10,0.00,1.02,0.29,9.27,0.00,-0.00,-0.00,0.00
2026-06-26 17:53:16.808,994.16,994.25,9.55,4.10,0.00,1.02,0.30,9.29,0.00,0.00,0.00,0.00
2026-06-26 17:53:16.810,994.16,994.25,9.55,4.10,0.00,1.02,0.30,9.29,0.00,0.00,0.00,0.00
2026-06-26 17:53:16.812,994.16,994.25,9.55,4.10,0.00,1.02,0.30,9.29,0.00,0.00,0.00,0.00
2026-06-26 17:53:16.814,994.16,994.25,9.55,4.10,0.00,1.02,0.30,9.29,0.00,0.00,0.00,0.00
2026-06-26 17:53:16.817,994.16,994.25,9.55,4.10,0.00,1.02,0.30,9.29,0.00,0.00,0.00,0.00
2026-06-26 17:53:16.819,994.16,994.25,9.55,4.10,0.00,1.01,0.30,9.27,0.00,0.00,0.00,0.00
2026-06-26 17:53:16.821,994.16,994.25,9.55,4.10,0.00,1.01,0.30,9.27,0.00,0.00,0.00,0.00
2026-06-26 17:53:16.827,994.16,994.25,9.55,4.10,0.00,1.01,0.30,9.27,0.00,0.00,0.00,0.00
2026-06-26 17:53:16.830,994.16,994.25,9.55,4.10,0.00,1.00,0.29,9.27,-0.00,-0.00,0.00,0.00
2026-06-26 17:53:16.836,994.16,994.25,9.55,4.10,0.00,1.00,0.29,9.27,-0.00,-0.00,0.00,0.00
2026-06-26 17:53:16.840,994.16,994.25,9.55,4.10,0.00,1.02,0.28,9.27,0.00,-0.00,-0.00,0.00
2026-06-26 17:53:16.846,994.16,994.25,9.55,4.10,0.00,1.02,0.28,9.27,0.00,-0.00,-0.00,0.00
2026-06-26 17:53:16.848,994.16,994.25,9.55,4.10,0.00,1.02,0.30,9.27,0.00,0.00,-0.00,0.00
2026-06-26 17:53:16.850,994.16,994.25,9.55,4.10,0.00,1.02,0.30,9.27,0.00,0.00,-0.00,0.00
2026-06-26 17:53:16.856,994.16,994.25,9.55,4.10,0.00,1.02,0.30,9.27,0.00,0.00,-0.00,0.00
2026-06-26 17:53:16.897,994.16,994.25,9.31,4.04,0.00,1.01,0.30,9.24,-0.00,0.00,0.00,0.00
2026-06-26 17:53:16.899,994.16,994.25,9.31,4.04,0.00,1.03,0.32,9.29,-0.00,0.00,0.00,0.00
2026-06-26 17:53:16.900,994.16,994.25,9.31,4.04,0.00,1.03,0.32,9.29,-0.00,0.00,0.00,0.00
2026-06-26 17:53:16.947,994.15,994.25,9.74,4.14,0.00,1.01,0.28,9.26,-0.00,0.00,0.00,0.00
2026-06-26 17:53:16.954,994.15,994.25,9.74,4.14,0.00,1.01,0.29,9.29,-0.00,0.00,0.00,0.00
2026-06-26 17:53:16.957,994.15,994.25,9.74,4.14,0.00,1.01,0.29,9.29,0.00,0.00,0.00,0.00
2026-06-26 17:53:16.959,994.15,994.25,9.74,4.14,0.00,1.00,0.29,9.28,0.00,0.00,0.00,0.00
2026-06-26 17:53:16.961,994.15,994.25,9.74,4.14,0.00,1.00,0.29,9.28,0.00,0.00,0.00,0.00
2026-06-26 17:53:16.963,994.15,994.25,9.74,4.14,0.00,1.00,0.29,9.28,0.00,0.00,0.00,0.00
2026-06-26 17:53:16.967,994.15,994.25,9.74,4.14,0.00,1.00,0.29,9.28,0.00,0.00,0.00,0.00
2026-06-26 17:53:16.969,994.15,994.25,9.74,4.14,0.00,1.00,0.29,9.28,0.00,-0.00,0.00,0.00
2026-06-26 17:53:16.970,994.15,994.25,9.74,4.14,0.00,1.00,0.29,9.28,0.00,-0.00,0.00,0.00
2026-06-26 17:53:16.976,994.15,994.25,9.74,4.14,0.00,1.00,0.29,9.28,0.00,-0.00,0.00,0.00
2026-06-26 17:53:16.978,994.15,994.25,9.74,4.14,0.00,1.01,0.31,9.26,0.00,-0.00,0.00,0.00
2026-06-26 17:53:16.979,994.15,994.25,9.74,4.14,0.00,1.01,0.31,9.26,0.00,-0.00,0.00,0.00
2026-06-26 17:53:16.984,994.15,994.25,9.74,4.14,0.00,1.01,0.31,9.26,0.00,-0.00,0.00,0.00
2026-06-26 17:53:16.988,994.15,994.25,9.74,4.14,0.00,1.01,0.31,9.26,-0.00,0.00,-0.00,0.00
2026-06-26 17:53:16.997,994.15,994.25,9.74,4.14,0.00,1.03,0.28,9.28,-0.00,0.00,-0.00,0.00
2026-06-26 17:53:17.040,994.15,994.25,9.64,4.12,0.00,1.01,0.30,9.26,-0.00,-0.00,0.00,0.00
2026-06-26 17:53:17.045,994.15,994.25,9.64,4.12,0.00,1.01,0.30,9.26,-0.00,-0.00,0.00,0.00
2026-06-26 17:53:17.088,994.16,994.25,9.59,4.10,0.00,1.00,0.30,9.27,-0.00,-0.00,0.00,0.00
2026-06-26 17:53:17.089,994.16,994.25,9.59,4.10,0.00,1.00,0.30,9.27,-0.00,-0.00,0.00,0.00
2026-06-26 17:53:17.091,994.16,994.25,9.59,4.10,0.00,1.00,0.30,9.27,-0.00,-0.00,0.00,0.00
2026-06-26 17:53:17.097,994.16,994.25,9.59,4.10,0.00,1.00,0.30,9.27,-0.00,-0.00,0.00,0.00
2026-06-26 17:53:17.098,994.16,994.25,9.59,4.10,0.00,1.02,0.28,9.28,0.00,0.00,0.00,0.00
2026-06-26 17:53:17.100,994.16,994.25,9.59,4.10,0.00,1.02,0.28,9.28,0.00,0.00,0.00,0.00
2026-06-26 17:53:17.103,994.16,994.25,9.59,4.10,0.00,1.02,0.28,9.28,0.00,0.00,0.00,0.00
2026-06-26 17:53:17.108,994.16,994.25,9.59,4.10,0.00,1.02,0.28,9.28,0.00,0.00,-0.00,0.00
2026-06-26 17:53:17.110,994.16,994.25,9.59,4.10,0.00,1.01,0.30,9.28,0.00,0.00,-0.00,0.00
2026-06-26 17:53:17.112,994.16,994.25,9.59,4.10,0.00,1.01,0.30,9.28,0.00,0.00,-0.00,0.00
2026-06-26 17:53:17.113,994.16,994.25,9.59,4.10,0.00,1.01,0.30,9.28,0.00,0.00,-0.00,0.00
2026-06-26 17:53:17.117,994.16,994.25,9.59,4.10,0.00,1.01,0.30,9.28,0.00,0.00,-0.00,0.00
2026-06-26 17:53:17.118,994.16,994.25,9.59,4.10,0.00,1.02,0.28,9.29,-0.00,0.00,0.00,0.00
2026-06-26 17:53:17.120,994.16,994.25,9.59,4.10,0.00,1.02,0.28,9.29,-0.00,0.00,0.00,0.00
2026-06-26 17:53:17.121,994.16,994.25,9.59,4.10,0.00,1.02,0.28,9.29,-0.00,0.00,0.00,0.00
2026-06-26 17:53:17.127,994.16,994.25,9.59,4.10,0.00,1.02,0.28,9.29,-0.00,0.00,0.00,0.00
2026-06-26 17:53:17.129,994.16,994.25,9.59,4.10,0.00,1.01,0.28,9.27,0.00,0.00,0.00,0.00
2026-06-26 17:53:17.131,994.16,994.25,9.59,4.10,0.00,1.01,0.28,9.27,0.00,0.00,0.00,0.00
2026-06-26 17:53:17.137,994.16,994.25,9.59,4.10,0.00,1.01,0.28,9.27,0.00,-0.00,-0.00,0.00
2026-06-26 17:53:17.139,994.16,994.25,9.59,4.10,0.00,1.01,0.29,9.29,0.00,-0.00,-0.00,0.00
2026-06-26 17:53:17.179,994.16,994.25,9.56,4.10,0.00,1.01,0.27,9.30,0.00,-0.00,-0.00,0.00
2026-06-26 17:53:17.181,994.16,994.25,9.56,4.10,0.00,1.01,0.27,9.30,0.00,-0.00,-0.00,0.00
2026-06-26 17:53:17.185,994.16,994.25,9.56,4.10,0.00,1.01,0.27,9.30,0.00,-0.00,-0.00,0.00
2026-06-26 17:53:17.188,994.16,994.25,9.56,4.10,0.00,1.01,0.27,9.30,0.00,-0.00,0.00,0.00
2026-06-26 17:53:17.228,994.16,994.25,9.54,4.09,0.00,1.01,0.28,9.27,-0.00,0.00,0.00,0.00
2026-06-26 17:53:17.230,994.16,994.25,9.54,4.09,0.00,1.01,0.28,9.27,-0.00,0.00,0.00,0.00
2026-06-26 17:53:17.233,994.16,994.25,9.54,4.09,0.00,1.01,0.28,9.27,-0.00,0.00,0.00,0.00
2026-06-26 17:53:17.238,994.16,994.25,9.54,4.09,0.00,1.01,0.28,9.27,-0.00,0.00,-0.00,0.00
2026-06-26 17:53:17.240,994.16,994.25,9.54,4.09,0.00,1.00,0.29,9.24,-0.00,0.00,-0.00,0.00
2026-06-26 17:53:17.247,994.16,994.25,9.54,4.09,0.00,1.00,0.29,9.24,-0.00,0.00,-0.00,0.00
2026-06-26 17:53:17.249,994.16,994.25,9.54,4.09,0.00,1.04,0.30,9.27,0.00,-0.00,0.00,0.00
2026-06-26 17:53:17.251,994.16,994.25,9.54,4.09,0.00,1.04,0.30,9.27,0.00,-0.00,0.00,0.00
2026-06-26 17:53:17.263,994.16,994.25,9.54,4.09,0.00,1.04,0.30,9.27,-0.00,-0.00,-0.00,0.00
2026-06-26 17:53:17.268,994.16,994.25,9.54,4.09,0.00,1.01,0.29,9.27,0.00,-0.00,-0.00,0.00
2026-06-26 17:53:17.271,994.16,994.25,9.54,4.09,0.00,1.01,0.28,9.28,0.00,-0.00,-0.00,0.00
2026-06-26 17:53:17.277,994.16,994.25,9.54,4.09,0.00,1.01,0.28,9.28,0.00,-0.00,-0.00,0.00
2026-06-26 17:53:17.318,994.16,994.25,9.86,4.16,0.00,1.00,0.27,9.27,0.00,0.00,0.00,0.00
2026-06-26 17:53:17.320,994.16,994.25,9.86,4.16,0.00,1.01,0.29,9.30,0.00,0.00,0.00,0.00
2026-06-26 17:53:17.321,994.16,994.25,9.86,4.16,0.00,1.01,0.29,9.30,0.00,0.00,0.00,0.00
2026-06-26 17:53:17.325,994.16,994.25,9.86,4.16,0.00,1.01,0.29,9.30,0.00,0.00,0.00,0.00
2026-06-26 17:53:17.368,994.16,994.25,9.88,4.17,0.00,1.02,0.29,9.28,0.00,0.00,0.00,0.00
2026-06-26 17:53:17.370,994.16,994.25,9.88,4.17,0.00,1.03,0.30,9.28,0.00,0.00,0.00,0.00
2026-06-26 17:53:17.371,994.16,994.25,9.88,4.17,0.00,1.03,0.30,9.28,0.00,0.00,0.00,0.00
2026-06-26 17:53:17.375,994.16,994.25,9.88,4.17,0.00,1.03,0.30,9.28,0.00,0.00,0.00,0.00
2026-06-26 17:53:17.378,994.16,994.25,9.88,4.17,0.00,1.03,0.30,9.28,0.00,-0.00,-0.00,0.00
2026-06-26 17:53:17.380,994.16,994.25,9.88,4.17,0.00,1.01,0.30,9.29,0.00,-0.00,-0.00,0.00
2026-06-26 17:53:17.381,994.16,994.25,9.88,4.17,0.00,1.01,0.30,9.29,0.00,-0.00,-0.00,0.00
2026-06-26 17:53:17.386,994.16,994.25,9.88,4.17,0.00,1.01,0.30,9.29,0.00,-0.00,-0.00,0.00
2026-06-26 17:53:17.389,994.16,994.25,9.88,4.17,0.00,1.03,0.30,9.26,-0.00,0.00,-0.00,0.00
2026-06-26 17:53:17.395,994.16,994.25,9.88,4.17,0.00,1.03,0.30,9.26,-0.00,0.00,-0.00,0.00
2026-06-26 17:53:17.398,994.16,994.25,9.88,4.17,0.00,1.03,0.30,9.26,0.00,0.00,0.00,0.00
2026-06-26 17:53:17.400,994.16,994.25,9.88,4.17,0.00,1.03,0.28,9.28,0.00,0.00,0.00,0.00
2026-06-26 17:53:17.401,994.16,994.25,9.88,4.17,0.00,1.03,0.28,9.28,0.00,0.00,0.00,0.00
2026-06-26 17:53:17.408,994.16,994.25,9.88,4.17,0.00,1.03,0.28,9.28,0.00,0.00,0.00,0.00
2026-06-26 17:53:17.410,994.16,994.25,9.88,4.17,0.00,1.01,0.28,9.27,0.00,0.00,0.00,0.00
2026-06-26 17:53:17.414,994.16,994.25,9.88,4.17,0.00,1.01,0.28,9.27,0.00,0.00,0.00,0.00
2026-06-26 17:53:17.459,994.16,994.25,9.55,4.10,0.00,1.02,0.29,9.30,0.00,-0.00,0.00,0.00
2026-06-26 17:53:17.461,994.16,994.25,9.55,4.10,0.00,1.01,0.29,9.27,0.00,-0.00,0.00,0.00
2026-06-26 17:53:17.462,994.16,994.25,9.55,4.10,0.00,1.01,0.29,9.27,0.00,-0.00,0.00,0.00
2026-06-26 17:53:17.464,994.16,994.25,9.55,4.10,0.00,1.01,0.29,9.27,0.00,-0.00,0.00,0.00
2026-06-26 17:53:17.466,994.16,994.25,9.55,4.10,0.00,1.01,0.29,9.27,0.00,-0.00,0.00,0.00
2026-06-26 17:53:17.509,994.15,994.25,9.77,4.14,0.00,1.01,0.29,9.27,0.00,0.00,0.00,0.00
2026-06-26 17:53:17.511,994.15,994.25,9.77,4.14,0.00,1.01,0.29,9.27,0.00,0.00,0.00,0.00
2026-06-26 17:53:17.513,994.15,994.25,9.77,4.14,0.00,1.01,0.29,9.27,0.00,0.00,0.00,0.00
2026-06-26 17:53:17.514,994.15,994.25,9.77,4.14,0.00,1.01,0.29,9.27,0.00,0.00,0.00,0.00
2026-06-26 17:53:17.516,994.15,994.25,9.77,4.14,0.00,1.01,0.29,9.27,0.00,0.00,0.00,0.00
2026-06-26 17:53:17.519,994.15,994.25,9.77,4.14,0.00,1.01,0.29,9.27,0.00,-0.00,0.00,0.00
2026-06-26 17:53:17.521,994.15,994.25,9.77,4.14,0.00,1.01,0.28,9.31,0.00,-0.00,0.00,0.00
2026-06-26 17:53:17.523,994.15,994.25,9.77,4.14,0.00,1.01,0.28,9.31,0.00,-0.00,0.00,0.00
2026-06-26 17:53:17.528,994.15,994.25,9.77,4.14,0.00,1.01,0.28,9.31,0.00,-0.00,0.00,0.00
2026-06-26 17:53:17.530,994.15,994.25,9.77,4.14,0.00,1.02,0.29,9.28,-0.00,0.00,-0.00,0.00
2026-06-26 17:53:17.531,994.15,994.25,9.77,4.14,0.00,1.02,0.29,9.28,-0.00,0.00,-0.00,0.00
2026-06-26 17:53:17.535,994.15,994.25,9.77,4.14,0.00,1.02,0.29,9.28,-0.00,0.00,-0.00,0.00
2026-06-26 17:53:17.541,994.15,994.25,9.77,4.14,0.00,1.01,0.29,9.26,-0.00,0.00,-0.00,0.00
2026-06-26 17:53:17.542,994.15,994.25,9.77,4.14,0.00,1.01,0.29,9.26,-0.00,0.00,-0.00,0.00
2026-06-26 17:53:17.549,994.15,994.25,9.77,4.14,0.00,1.01,0.29,9.26,0.00,0.00,0.00,0.00
2026-06-26 17:53:17.551,994.15,994.25,9.77,4.14,0.00,1.01,0.31,9.27,0.00,0.00,0.00,0.00
2026-06-26 17:53:17.555,994.15,994.25,9.77,4.14,0.00,1.01,0.31,9.27,0.00,0.00,0.00,0.00
2026-06-26 17:53:17.599,994.15,994.25,9.73,4.14,0.00,1.03,0.28,9.23,-0.00,0.00,0.00,0.00
2026-06-26 17:53:17.602,994.15,994.25,9.73,4.14,0.00,1.01,0.27,9.29,-0.00,0.00,0.00,0.00
2026-06-26 17:53:17.608,994.15,994.25,9.73,4.14,0.00,1.01,0.27,9.29,-0.00,0.00,0.00,0.00
2026-06-26 17:53:17.651,994.15,994.25,9.85,4.16,0.00,1.00,0.30,9.27,0.00,0.00,0.00,0.00
2026-06-26 17:53:17.654,994.15,994.25,9.85,4.16,0.00,1.00,0.30,9.27,0.00,0.00,0.00,0.00
2026-06-26 17:53:17.659,994.15,994.25,9.85,4.16,0.00,1.00,0.30,9.27,0.00,-0.00,0.00,0.00
2026-06-26 17:53:17.660,994.15,994.25,9.85,4.16,0.00,1.00,0.29,9.28,0.00,-0.00,0.00,0.00
2026-06-26 17:53:17.664,994.15,994.25,9.85,4.16,0.00,1.00,0.29,9.28,0.00,-0.00,0.00,0.00
2026-06-26 17:53:17.666,994.15,994.25,9.85,4.16,0.00,1.00,0.29,9.28,0.00,-0.00,0.00,0.00
2026-06-26 17:53:17.669,994.15,994.25,9.85,4.16,0.00,1.00,0.29,9.28,-0.00,-0.00,0.00,0.00
2026-06-26 17:53:17.671,994.15,994.25,9.85,4.16,0.00,1.03,0.29,9.31,-0.00,-0.00,0.00,0.00
2026-06-26 17:53:17.675,994.15,994.25,9.85,4.16,0.00,1.03,0.29,9.31,-0.00,-0.00,0.00,0.00
2026-06-26 17:53:17.679,994.15,994.25,9.85,4.16,0.00,1.03,0.29,9.31,-0.00,-0.00,0.00,0.00
2026-06-26 17:53:17.680,994.15,994.25,9.85,4.16,0.00,1.01,0.30,9.27,-0.00,-0.00,0.00,0.00
2026-06-26 17:53:17.682,994.15,994.25,9.85,4.16,0.00,1.01,0.30,9.27,-0.00,-0.00,0.00,0.00
2026-06-26 17:53:17.685,994.15,994.25,9.85,4.16,0.00,1.01,0.30,9.27,-0.00,-0.00,0.00,0.00
2026-06-26 17:53:17.689,994.15,994.25,9.85,4.16,0.00,1.01,0.30,9.27,0.00,0.00,-0.00,0.00
2026-06-26 17:53:17.691,994.15,994.25,9.85,4.16,0.00,1.02,0.29,9.25,0.00,0.00,-0.00,0.00
2026-06-26 17:53:17.697,994.15,994.25,9.85,4.16,0.00,1.02,0.29,9.25,0.00,0.00,-0.00,0.00
2026-06-26 17:53:17.742,994.15,994.25,10.22,4.24,0.00,1.02,0.29,9.27,-0.00,0.00,-0.00,0.00
2026-06-26 17:53:17.746,994.15,994.25,10.22,4.24,0.00,1.02,0.29,9.27,-0.00,0.00,-0.00,0.00
2026-06-26 17:53:17.749,994.15,994.25,10.22,4.24,0.00,1.02,0.29,9.27,0.00,-0.00,0.00,0.00
2026-06-26 17:53:17.792,994.15,994.25,10.27,4.25,0.00,1.04,0.30,9.28,0.00,0.00,0.00,0.00
2026-06-26 17:53:17.798,994.15,994.25,10.27,4.25,0.00,1.04,0.30,9.28,0.00,0.00,0.00,0.00
2026-06-26 17:53:17.800,994.15,994.25,10.27,4.25,0.00,1.03,0.31,9.28,0.00,-0.00,-0.00,0.00
2026-06-26 17:53:17.801,994.15,994.25,10.27,4.25,0.00,1.03,0.31,9.28,0.00,-0.00,-0.00,0.00
2026-06-26 17:53:17.803,994.15,994.25,10.27,4.25,0.00,1.03,0.31,9.28,0.00,-0.00,-0.00,0.00
2026-06-26 17:53:17.809,994.15,994.25,10.27,4.25,0.00,1.03,0.31,9.28,0.00,-0.00,-0.00,0.00
2026-06-26 17:53:17.811,994.15,994.25,10.27,4.25,0.00,1.01,0.28,9.29,-0.00,-0.00,-0.00,0.00
2026-06-26 17:53:17.814,994.15,994.25,10.27,4.25,0.00,1.01,0.28,9.29,-0.00,-0.00,-0.00,0.00
2026-06-26 17:53:17.818,994.15,994.25,10.27,4.25,0.00,1.01,0.28,9.29,-0.00,-0.00,-0.00,0.00
2026-06-26 17:53:17.820,994.15,994.25,10.27,4.25,0.00,1.02,0.29,9.29,0.00,0.00,-0.00,0.00
2026-06-26 17:53:17.826,994.15,994.25,10.27,4.25,0.00,1.02,0.29,9.29,0.00,0.00,-0.00,0.00
2026-06-26 17:53:17.830,994.15,994.25,10.27,4.25,0.00,1.02,0.29,9.29,-0.00,0.00,0.00,0.00
2026-06-26 17:53:17.849,994.15,994.25,10.27,4.25,0.00,1.02,0.27,9.25,0.00,0.00,-0.00,0.00
2026-06-26 17:53:17.933,994.15,994.26,10.41,4.28,0.00,1.01,0.28,9.30,-0.00,-0.00,0.00,0.00
2026-06-26 17:53:17.939,994.15,994.26,10.41,4.28,0.00,1.01,0.28,9.30,-0.00,-0.00,0.00,0.00
2026-06-26 17:53:17.941,994.15,994.26,10.41,4.28,0.00,1.03,0.29,9.27,-0.00,-0.00,-0.00,0.00
2026-06-26 17:53:17.943,994.15,994.26,10.41,4.28,0.00,1.03,0.29,9.27,-0.00,-0.00,-0.00,0.00
2026-06-26 17:53:17.947,994.15,994.26,10.41,4.28,0.00,1.03,0.29,9.27,-0.00,-0.00,-0.00,0.00
2026-06-26 17:53:17.950,994.15,994.26,10.41,4.28,0.00,1.01,0.31,9.26,-0.00,0.00,-0.00,0.00
2026-06-26 17:53:17.958,994.15,994.26,10.41,4.28,0.00,1.01,0.31,9.26,-0.00,0.00,-0.00,0.00
2026-06-26 17:53:17.960,994.15,994.26,10.41,4.28,0.00,1.01,0.30,9.28,0.00,-0.00,0.00,0.00
2026-06-26 17:53:17.962,994.15,994.26,10.41,4.28,0.00,1.01,0.30,9.28,0.00,-0.00,0.00,0.00
2026-06-26 17:53:17.964,994.15,994.26,10.41,4.28,0.00,1.01,0.30,9.28,0.00,-0.00,0.00,0.00
2026-06-26 17:53:17.965,994.15,994.26,10.41,4.28,0.00,1.01,0.30,9.28,0.00,-0.00,0.00,0.00
2026-06-26 17:53:17.969,994.15,994.26,10.41,4.28,0.00,1.01,0.30,9.28,0.00,-0.00,0.00,0.00
2026-06-26 17:53:17.971,994.15,994.26,10.41,4.28,0.00,1.03,0.28,9.27,-0.00,0.00,0.00,0.00
2026-06-26 17:53:17.973,994.15,994.26,10.41,4.28,0.00,1.03,0.28,9.27,-0.00,0.00,0.00,0.00
2026-06-26 17:53:17.979,994.15,994.26,10.41,4.28,0.00,1.03,0.28,9.27,-0.00,0.00,0.00,0.00
2026-06-26 17:53:17.982,994.15,994.26,10.41,4.28,0.00,1.01,0.27,9.28,-0.00,0.00,0.00,0.00
2026-06-26 17:53:17.989,994.15,994.26,10.41,4.28,0.00,1.01,0.27,9.28,-0.00,0.00,0.00,0.00
2026-06-26 17:53:17.991,994.15,994.26,10.41,4.28,0.00,1.02,0.30,9.27,-0.00,-0.00,-0.00,0.00
2026-06-26 17:53:18.079,994.15,994.26,10.34,4.26,0.00,1.03,0.27,9.29,-0.00,0.00,0.00,0.00
2026-06-26 17:53:18.081,994.15,994.26,10.34,4.26,0.00,1.00,0.27,9.26,-0.00,-0.00,-0.00,0.00
2026-06-26 17:53:18.082,994.15,994.26,10.34,4.26,0.00,1.00,0.27,9.26,-0.00,-0.00,-0.00,0.00
2026-06-26 17:53:18.083,994.15,994.26,10.34,4.26,0.00,1.00,0.27,9.26,-0.00,-0.00,-0.00,0.00
2026-06-26 17:53:18.085,994.15,994.26,10.34,4.26,0.00,1.00,0.27,9.26,-0.00,-0.00,-0.00,0.00
2026-06-26 17:53:18.090,994.15,994.26,10.34,4.26,0.00,1.00,0.27,9.26,0.00,0.00,0.00,0.00
2026-06-26 17:53:18.092,994.15,994.26,10.34,4.26,0.00,1.02,0.29,9.26,0.00,0.00,0.00,0.00
2026-06-26 17:53:18.093,994.15,994.26,10.34,4.26,0.00,1.02,0.29,9.26,0.00,0.00,0.00,0.00
2026-06-26 17:53:18.096,994.15,994.26,10.34,4.26,0.00,1.02,0.29,9.26,0.00,0.00,0.00,0.00
2026-06-26 17:53:18.100,994.15,994.26,10.34,4.26,0.00,1.02,0.29,9.26,0.00,0.00,-0.00,0.00
2026-06-26 17:53:18.101,994.15,994.26,10.34,4.26,0.00,1.03,0.28,9.25,0.00,0.00,-0.00,0.00
2026-06-26 17:53:18.102,994.15,994.26,10.34,4.26,0.00,1.03,0.28,9.25,0.00,0.00,-0.00,0.00
2026-06-26 17:53:18.104,994.15,994.26,10.34,4.26,0.00,1.03,0.28,9.25,0.00,0.00,-0.00,0.00
2026-06-26 17:53:18.110,994.15,994.26,10.34,4.26,0.00,1.03,0.28,9.25,0.00,0.00,-0.00,0.00
2026-06-26 17:53:18.111,994.15,994.26,10.34,4.26,0.00,1.00,0.29,9.28,0.00,0.00,0.00,0.00
2026-06-26 17:53:18.113,994.15,994.26,10.34,4.26,0.00,1.00,0.29,9.28,0.00,0.00,0.00,0.00
2026-06-26 17:53:18.114,994.15,994.26,10.34,4.26,0.00,1.00,0.29,9.28,0.00,0.00,0.00,0.00
2026-06-26 17:53:18.116,994.15,994.26,10.34,4.26,0.00,1.00,0.29,9.28,0.00,0.00,0.00,0.00
2026-06-26 17:53:18.117,994.15,994.26,10.34,4.26,0.00,1.00,0.29,9.28,0.00,0.00,0.00,0.00
2026-06-26 17:53:18.120,994.15,994.26,10.34,4.26,0.00,1.00,0.29,9.28,0.00,0.00,0.00,0.00
2026-06-26 17:53:18.121,994.15,994.26,10.34,4.26,0.00,1.02,0.29,9.28,0.00,0.00,0.00,0.00
2026-06-26 17:53:18.123,994.15,994.26,10.34,4.26,0.00,1.02,0.29,9.28,0.00,0.00,0.00,0.00
2026-06-26 17:53:18.124,994.15,994.26,10.34,4.26,0.00,1.02,0.29,9.28,0.00,0.00,0.00,0.00
2026-06-26 17:53:18.129,994.15,994.26,10.34,4.26,0.00,1.02,0.29,9.28,0.00,0.00,0.00,0.00
2026-06-26 17:53:18.131,994.15,994.26,10.34,4.26,0.00,1.02,0.29,9.27,-0.00,0.00,0.00,0.00
2026-06-26 17:53:18.132,994.15,994.26,10.34,4.26,0.00,1.02,0.29,9.27,-0.00,0.00,0.00,0.00
2026-06-26 17:53:18.133,994.15,994.26,10.34,4.26,0.00,1.02,0.29,9.27,-0.00,0.00,0.00,0.00
2026-06-26 17:53:18.220,994.15,994.26,10.44,4.28,0.00,1.00,0.28,9.30,0.00,0.00,0.00,0.00
2026-06-26 17:53:18.221,994.15,994.26,10.44,4.28,0.00,1.01,0.29,9.28,0.00,0.00,0.00,0.00
2026-06-26 17:53:18.222,994.15,994.26,10.44,4.28,0.00,1.01,0.29,9.28,0.00,0.00,0.00,0.00
2026-06-26 17:53:18.223,994.15,994.26,10.44,4.28,0.00,1.01,0.29,9.28,0.00,0.00,0.00,0.00
2026-06-26 17:53:18.227,994.15,994.26,10.44,4.28,0.00,1.01,0.29,9.28,0.00,0.00,0.00,0.00
2026-06-26 17:53:18.230,994.15,994.26,10.44,4.28,0.00,1.01,0.29,9.28,-0.00,0.00,-0.00,0.00
2026-06-26 17:53:18.231,994.15,994.26,10.44,4.28,0.00,1.01,0.31,9.28,-0.00,0.00,-0.00,0.00
2026-06-26 17:53:18.233,994.15,994.26,10.44,4.28,0.00,1.01,0.31,9.28,-0.00,0.00,-0.00,0.00
2026-06-26 17:53:18.234,994.15,994.26,10.44,4.28,0.00,1.01,0.31,9.28,-0.00,0.00,-0.00,0.00
2026-06-26 17:53:18.240,994.15,994.26,10.44,4.28,0.00,1.01,0.31,9.28,-0.00,0.00,-0.00,0.00
2026-06-26 17:53:18.242,994.15,994.26,10.44,4.28,0.00,1.01,0.28,9.26,0.00,0.00,0.00,0.00
2026-06-26 17:53:18.243,994.15,994.26,10.44,4.28,0.00,1.01,0.28,9.26,0.00,0.00,0.00,0.00
2026-06-26 17:53:18.245,994.15,994.26,10.44,4.28,0.00,1.01,0.28,9.26,0.00,0.00,0.00,0.00
2026-06-26 17:53:18.250,994.15,994.26,10.44,4.28,0.00,1.01,0.28,9.26,0.00,0.00,0.00,0.00
2026-06-26 17:53:18.251,994.15,994.26,10.44,4.28,0.00,1.01,0.30,9.26,0.00,0.00,-0.00,0.00
2026-06-26 17:53:18.252,994.15,994.26,10.44,4.28,0.00,1.01,0.30,9.26,0.00,0.00,-0.00,0.00
2026-06-26 17:53:18.254,994.15,994.26,10.44,4.28,0.00,1.01,0.30,9.26,0.00,0.00,-0.00,0.00
2026-06-26 17:53:18.259,994.15,994.26,10.44,4.28,0.00,1.01,0.30,9.26,0.00,0.00,-0.00,0.00
2026-06-26 17:53:18.261,994.15,994.26,10.44,4.28,0.00,1.01,0.29,9.27,0.00,0.00,0.00,0.00
2026-06-26 17:53:18.262,994.15,994.26,10.44,4.28,0.00,1.01,0.29,9.27,0.00,0.00,0.00,0.00
2026-06-26 17:53:18.264,994.15,994.26,10.44,4.28,0.00,1.01,0.29,9.27,0.00,0.00,0.00,0.00
2026-06-26 17:53:18.266,994.15,994.26,10.44,4.28,0.00,1.01,0.29,9.27,0.00,0.00,0.00,0.00
2026-06-26 17:53:18.269,994.15,994.26,10.44,4.28,0.00,1.01,0.29,9.27,0.00,0.00,0.00,0.00
2026-06-26 17:53:18.271,994.15,994.26,10.44,4.28,0.00,1.01,0.29,9.28,0.00,0.00,0.00,0.00
2026-06-26 17:53:18.272,994.15,994.26,10.44,4.28,0.00,1.01,0.29,9.28,0.00,0.00,0.00,0.00
2026-06-26 17:53:18.273,994.15,994.26,10.44,4.28,0.00,1.01,0.29,9.28,0.00,0.00,0.00,0.00
2026-06-26 17:53:18.274,994.15,994.26,10.44,4.28,0.00,1.01,0.29,9.28,0.00,0.00,0.00,0.00
2026-06-26 17:53:18.319,994.15,994.26,10.84,4.36,0.00,1.01,0.29,9.29,0.00,-0.00,-0.00,0.00
2026-06-26 17:53:18.361,994.15,994.26,10.89,4.37,0.00,1.01,0.27,9.27,0.00,0.00,0.00,0.00
2026-06-26 17:53:18.363,994.15,994.26,10.89,4.37,0.00,1.01,0.27,9.27,0.00,0.00,0.00,0.00
2026-06-26 17:53:18.364,994.15,994.26,10.89,4.37,0.00,1.01,0.27,9.27,0.00,0.00,0.00,0.00
2026-06-26 17:53:18.365,994.15,994.26,10.89,4.37,0.00,1.01,0.27,9.27,0.00,0.00,0.00,0.00
2026-06-26 17:53:18.366,994.15,994.26,10.89,4.37,0.00,1.01,0.27,9.27,0.00,0.00,0.00,0.00
2026-06-26 17:53:18.367,994.15,994.26,10.89,4.37,0.00,1.01,0.27,9.27,0.00,0.00,0.00,0.00
2026-06-26 17:53:18.370,994.15,994.26,10.89,4.37,0.00,1.01,0.27,9.27,-0.00,0.00,0.00,0.00
2026-06-26 17:53:18.371,994.15,994.26,10.89,4.37,0.00,0.99,0.30,9.27,-0.00,0.00,0.00,0.00
2026-06-26 17:53:18.373,994.15,994.26,10.89,4.37,0.00,0.99,0.30,9.27,-0.00,0.00,0.00,0.00
2026-06-26 17:53:18.374,994.15,994.26,10.89,4.37,0.00,0.99,0.30,9.27,-0.00,0.00,0.00,0.00
2026-06-26 17:53:18.378,994.15,994.26,10.89,4.37,0.00,0.99,0.30,9.27,-0.00,0.00,0.00,0.00
2026-06-26 17:53:18.381,994.15,994.26,10.89,4.37,0.00,0.99,0.30,9.27,0.00,0.00,0.00,0.00
2026-06-26 17:53:18.383,994.15,994.26,10.89,4.37,0.00,1.01,0.30,9.29,0.00,0.00,0.00,0.00
2026-06-26 17:53:18.386,994.15,994.26,10.89,4.37,0.00,1.01,0.30,9.29,0.00,0.00,0.00,0.00
2026-06-26 17:53:18.390,994.15,994.26,10.89,4.37,0.00,1.01,0.30,9.29,0.00,0.00,0.00,0.00
2026-06-26 17:53:18.392,994.15,994.26,10.89,4.37,0.00,1.01,0.31,9.27,0.00,0.00,0.00,0.00
2026-06-26 17:53:18.393,994.15,994.26,10.89,4.37,0.00,1.01,0.31,9.27,0.00,0.00,0.00,0.00
2026-06-26 17:53:18.394,994.15,994.26,10.89,4.37,0.00,1.01,0.31,9.27,0.00,0.00,0.00,0.00
2026-06-26 17:53:18.400,994.15,994.26,10.89,4.37,0.00,1.01,0.31,9.27,0.00,0.00,0.00,0.00
2026-06-26 17:53:18.401,994.15,994.26,10.89,4.37,0.00,1.01,0.29,9.29,0.00,0.00,0.00,0.00
2026-06-26 17:53:18.403,994.15,994.26,10.89,4.37,0.00,1.01,0.29,9.29,0.00,0.00,0.00,0.00
2026-06-26 17:53:18.404,994.15,994.26,10.89,4.37,0.00,1.01,0.29,9.29,0.00,0.00,0.00,0.00
2026-06-26 17:53:18.410,994.15,994.26,10.89,4.37,0.00,1.01,0.29,9.29,0.00,0.00,0.00,0.00
2026-06-26 17:53:18.412,994.15,994.26,10.89,4.37,0.00,0.99,0.29,9.30,0.00,-0.00,0.00,0.00
2026-06-26 17:53:18.413,994.15,994.26,10.89,4.37,0.00,0.99,0.29,9.30,0.00,-0.00,0.00,0.00
2026-06-26 17:53:18.414,994.15,994.26,10.89,4.37,0.00,0.99,0.29,9.30,0.00,-0.00,0.00,0.00
2026-06-26 17:53:18.415,994.15,994.26,10.89,4.37,0.00,0.99,0.29,9.30,0.00,-0.00,0.00,0.00
2026-06-26 17:53:18.416,994.15,994.26,10.89,4.37,0.00,0.99,0.29,9.30,0.00,-0.00,0.00,0.00
2026-06-26 17:53:18.461,994.15,994.25,10.07,4.21,0.00,1.01,0.29,9.28,0.00,-0.00,0.00,0.00
2026-06-26 17:53:18.502,994.15,994.25,10.11,4.22,0.00,0.99,0.27,9.27,0.00,-0.00,-0.00,0.00
2026-06-26 17:53:18.504,994.15,994.25,10.11,4.22,0.00,0.99,0.27,9.27,0.00,-0.00,-0.00,0.00
2026-06-26 17:53:18.510,994.15,994.25,10.11,4.22,0.00,0.99,0.27,9.27,0.00,-0.00,-0.00,0.00
2026-06-26 17:53:18.511,994.15,994.25,10.11,4.22,0.00,1.01,0.29,9.28,0.00,0.00,0.00,0.00
2026-06-26 17:53:18.512,994.15,994.25,10.11,4.22,0.00,1.01,0.29,9.28,0.00,0.00,0.00,0.00
2026-06-26 17:53:18.514,994.15,994.25,10.11,4.22,0.00,1.01,0.29,9.28,0.00,0.00,0.00,0.00
2026-06-26 17:53:18.515,994.15,994.25,10.11,4.22,0.00,1.01,0.29,9.28,0.00,0.00,0.00,0.00
2026-06-26 17:53:18.516,994.15,994.25,10.11,4.22,0.00,1.01,0.29,9.28,0.00,0.00,0.00,0.00
2026-06-26 17:53:18.517,994.15,994.25,10.11,4.22,0.00,1.01,0.29,9.28,0.00,0.00,0.00,0.00
2026-06-26 17:53:18.519,994.15,994.25,10.11,4.22,0.00,1.01,0.29,9.28,0.00,0.00,0.00,0.00
2026-06-26 17:53:18.521,994.15,994.25,10.11,4.22,0.00,1.01,0.29,9.28,0.00,0.00,0.00,0.00
2026-06-26 17:53:18.525,994.15,994.25,10.11,4.22,0.00,1.02,0.27,9.29,0.00,0.00,0.00,0.00
2026-06-26 17:53:18.530,994.15,994.25,10.11,4.22,0.00,1.02,0.27,9.29,0.00,0.00,0.00,0.00
2026-06-26 17:53:18.532,994.15,994.25,10.11,4.22,0.00,1.03,0.27,9.27,0.00,0.00,-0.00,0.00
2026-06-26 17:53:18.533,994.15,994.25,10.11,4.22,0.00,1.03,0.27,9.27,0.00,0.00,-0.00,0.00
2026-06-26 17:53:18.534,994.15,994.25,10.11,4.22,0.00,1.03,0.27,9.27,0.00,0.00,-0.00,0.00
2026-06-26 17:53:18.540,994.15,994.25,10.11,4.22,0.00,1.03,0.27,9.27,0.00,0.00,-0.00,0.00
2026-06-26 17:53:18.541,994.15,994.25,10.11,4.22,0.00,1.01,0.30,9.27,0.00,0.00,-0.00,0.00
2026-06-26 17:53:18.543,994.15,994.25,10.11,4.22,0.00,1.01,0.30,9.27,0.00,0.00,-0.00,0.00
2026-06-26 17:53:18.545,994.15,994.25,10.11,4.22,0.00,1.01,0.30,9.27,0.00,0.00,-0.00,0.00
2026-06-26 17:53:18.550,994.15,994.25,10.11,4.22,0.00,1.01,0.30,9.27,0.00,0.00,-0.00,0.00
2026-06-26 17:53:18.554,994.15,994.25,10.11,4.22,0.00,1.00,0.28,9.28,0.00,0.00,-0.00,0.00
2026-06-26 17:53:18.561,994.15,994.25,10.11,4.22,0.00,1.00,0.28,9.28,0.00,0.00,-0.00,0.00
2026-06-26 17:53:18.601,994.15,994.25,10.03,4.20,0.00,1.01,0.28,9.25,0.00,0.00,0.00,0.00
2026-06-26 17:53:18.643,994.15,994.25,10.21,4.24,0.00,1.01,0.29,9.26,-0.00,0.00,0.00,0.00
2026-06-26 17:53:18.645,994.15,994.25,10.21,4.24,0.00,1.01,0.29,9.26,-0.00,0.00,0.00,0.00
2026-06-26 17:53:18.648,994.15,994.25,10.21,4.24,0.00,1.01,0.29,9.26,-0.00,0.00,0.00,0.00
2026-06-26 17:53:18.651,994.15,994.25,10.21,4.24,0.00,1.01,0.29,9.26,-0.00,-0.00,0.00,0.00
2026-06-26 17:53:18.652,994.15,994.25,10.21,4.24,0.00,1.01,0.30,9.25,-0.00,-0.00,0.00,0.00
2026-06-26 17:53:18.653,994.15,994.25,10.21,4.24,0.00,1.01,0.30,9.25,-0.00,-0.00,0.00,0.00
2026-06-26 17:53:18.655,994.15,994.25,10.21,4.24,0.00,1.01,0.30,9.25,-0.00,-0.00,0.00,0.00
2026-06-26 17:53:18.661,994.15,994.25,10.21,4.24,0.00,1.01,0.30,9.25,-0.00,-0.00,0.00,0.00
2026-06-26 17:53:18.663,994.15,994.25,10.21,4.24,0.00,1.02,0.29,9.30,-0.00,-0.00,0.00,0.00
2026-06-26 17:53:18.664,994.15,994.25,10.21,4.24,0.00,1.02,0.29,9.30,-0.00,-0.00,0.00,0.00
2026-06-26 17:53:18.665,994.15,994.25,10.21,4.24,0.00,1.02,0.29,9.30,-0.00,-0.00,0.00,0.00
2026-06-26 17:53:18.667,994.15,994.25,10.21,4.24,0.00,1.02,0.29,9.30,-0.00,-0.00,0.00,0.00
2026-06-26 17:53:18.668,994.15,994.25,10.21,4.24,0.00,1.02,0.29,9.30,-0.00,-0.00,0.00,0.00
2026-06-26 17:53:18.671,994.15,994.25,10.21,4.24,0.00,1.02,0.29,9.30,0.00,0.00,0.00,0.00
2026-06-26 17:53:18.672,994.15,994.25,10.21,4.24,0.00,1.01,0.30,9.29,0.00,0.00,0.00,0.00
2026-06-26 17:53:18.674,994.15,994.25,10.21,4.24,0.00,1.01,0.30,9.29,0.00,0.00,0.00,0.00
2026-06-26 17:53:18.678,994.15,994.25,10.21,4.24,0.00,1.01,0.30,9.29,0.00,0.00,0.00,0.00
2026-06-26 17:53:18.681,994.15,994.25,10.21,4.24,0.00,1.01,0.30,9.29,-0.00,-0.00,0.00,0.00
2026-06-26 17:53:18.683,994.15,994.25,10.21,4.24,0.00,1.01,0.30,9.29,-0.00,-0.00,0.00,0.00
2026-06-26 17:53:18.685,994.15,994.25,10.21,4.24,0.00,1.01,0.30,9.29,-0.00,-0.00,0.00,0.00
2026-06-26 17:53:18.690,994.15,994.25,10.21,4.24,0.00,1.01,0.30,9.29,-0.00,-0.00,0.00,0.00
2026-06-26 17:53:18.692,994.15,994.25,10.21,4.24,0.00,1.00,0.31,9.25,-0.00,0.00,-0.00,0.00
2026-06-26 17:53:18.693,994.15,994.25,10.21,4.24,0.00,1.00,0.31,9.25,-0.00,0.00,-0.00,0.00
2026-06-26 17:53:18.695,994.15,994.25,10.21,4.24,0.00,1.00,0.31,9.25,-0.00,0.00,-0.00,0.00
2026-06-26 17:53:18.700,994.15,994.25,10.21,4.24,0.00,1.00,0.31,9.25,-0.00,0.00,-0.00,0.00
2026-06-26 17:53:18.742,994.15,994.26,10.48,4.29,0.00,1.01,0.30,9.26,0.00,0.00,-0.00,0.00
2026-06-26 17:53:18.784,994.16,994.26,10.15,4.22,0.00,1.01,0.28,9.29,-0.00,0.00,-0.00,0.00
2026-06-26 17:53:18.788,994.16,994.26,10.15,4.22,0.00,1.01,0.28,9.29,-0.00,0.00,-0.00,0.00
2026-06-26 17:53:18.791,994.16,994.26,10.15,4.22,0.00,1.01,0.28,9.29,0.00,0.00,0.00,0.00
2026-06-26 17:53:18.793,994.16,994.26,10.15,4.22,0.00,1.02,0.29,9.28,0.00,0.00,0.00,0.00
2026-06-26 17:53:18.794,994.16,994.26,10.15,4.22,0.00,1.02,0.29,9.28,0.00,0.00,0.00,0.00
2026-06-26 17:53:18.795,994.16,994.26,10.15,4.22,0.00,1.02,0.29,9.28,0.00,0.00,0.00,0.00
2026-06-26 17:53:18.801,994.16,994.26,10.15,4.22,0.00,1.02,0.29,9.28,0.00,0.00,0.00,0.00
2026-06-26 17:53:18.803,994.16,994.26,10.15,4.22,0.00,1.01,0.28,9.31,0.00,0.00,-0.00,0.00
2026-06-26 17:53:18.805,994.16,994.26,10.15,4.22,0.00,1.01,0.28,9.31,0.00,0.00,-0.00,0.00
2026-06-26 17:53:18.810,994.16,994.26,10.15,4.22,0.00,1.01,0.28,9.31,0.00,0.00,-0.00,0.00
2026-06-26 17:53:18.812,994.16,994.26,10.15,4.22,0.00,1.03,0.29,9.28,-0.00,0.00,0.00,0.00
2026-06-26 17:53:18.814,994.16,994.26,10.15,4.22,0.00,1.03,0.29,9.28,-0.00,0.00,0.00,0.00
2026-06-26 17:53:18.818,994.16,994.26,10.15,4.22,0.00,1.03,0.29,9.28,-0.00,0.00,0.00,0.00
2026-06-26 17:53:18.821,994.16,994.26,10.15,4.22,0.00,1.03,0.29,9.28,0.00,0.00,-0.00,0.00
2026-06-26 17:53:18.823,994.16,994.26,10.15,4.22,0.00,1.02,0.28,9.27,0.00,0.00,-0.00,0.00
2026-06-26 17:53:18.825,994.16,994.26,10.15,4.22,0.00,1.02,0.28,9.27,0.00,0.00,-0.00,0.00
2026-06-26 17:53:18.831,994.16,994.26,10.15,4.22,0.00,1.02,0.28,9.27,0.00,0.00,-0.00,0.00
2026-06-26 17:53:18.832,994.16,994.26,10.15,4.22,0.00,1.03,0.27,9.27,-0.00,0.00,-0.00,0.00
2026-06-26 17:53:18.833,994.16,994.26,10.15,4.22,0.00,1.03,0.27,9.27,-0.00,0.00,-0.00,0.00
2026-06-26 17:53:18.835,994.16,994.26,10.15,4.22,0.00,1.03,0.27,9.27,-0.00,0.00,-0.00,0.00
2026-06-26 17:53:18.841,994.16,994.26,10.15,4.22,0.00,1.03,0.27,9.27,-0.00,0.00,-0.00,0.00
2026-06-26 17:53:18.922,994.16,994.25,9.62,4.11,0.00,1.01,0.28,9.27,0.00,-0.00,0.00,0.00
2026-06-26 17:53:18.923,994.16,994.25,9.62,4.11,0.00,1.01,0.28,9.27,0.00,-0.00,0.00,0.00
2026-06-26 17:53:18.924,994.16,994.25,9.62,4.11,0.00,1.01,0.28,9.27,0.00,-0.00,0.00,0.00
2026-06-26 17:53:18.926,994.16,994.25,9.62,4.11,0.00,1.01,0.28,9.27,0.00,-0.00,0.00,0.00
2026-06-26 17:53:18.931,994.16,994.25,9.62,4.11,0.00,1.01,0.28,9.27,0.00,-0.00,0.00,0.00
2026-06-26 17:53:18.932,994.16,994.25,9.62,4.11,0.00,1.01,0.29,9.28,-0.00,0.00,-0.00,0.00
2026-06-26 17:53:18.933,994.16,994.25,9.62,4.11,0.00,1.01,0.29,9.28,-0.00,0.00,-0.00,0.00
2026-06-26 17:53:18.935,994.16,994.25,9.62,4.11,0.00,1.01,0.29,9.28,-0.00,0.00,-0.00,0.00
2026-06-26 17:53:18.937,994.16,994.25,9.62,4.11,0.00,1.01,0.29,9.28,-0.00,0.00,-0.00,0.00
2026-06-26 17:53:18.941,994.16,994.25,9.62,4.11,0.00,1.01,0.29,9.28,-0.00,-0.00,-0.00,0.00
2026-06-26 17:53:18.945,994.16,994.25,9.62,4.11,0.00,1.02,0.28,9.27,-0.00,-0.00,-0.00,0.00
2026-06-26 17:53:18.951,994.16,994.25,9.62,4.11,0.00,1.02,0.28,9.27,-0.00,-0.00,-0.00,0.00
2026-06-26 17:53:18.955,994.16,994.25,9.62,4.11,0.00,1.03,0.29,9.26,0.00,-0.00,0.00,0.00
2026-06-26 17:53:18.961,994.16,994.25,9.62,4.11,0.00,1.03,0.29,9.26,0.00,-0.00,0.00,0.00
2026-06-26 17:53:18.963,994.16,994.25,9.62,4.11,0.00,1.01,0.31,9.28,-0.00,-0.00,0.00,0.00
2026-06-26 17:53:18.964,994.16,994.25,9.62,4.11,0.00,1.01,0.31,9.28,-0.00,-0.00,0.00,0.00
2026-06-26 17:53:18.965,994.16,994.25,9.62,4.11,0.00,1.01,0.31,9.28,-0.00,-0.00,0.00,0.00
2026-06-26 17:53:18.967,994.16,994.25,9.62,4.11,0.00,1.01,0.31,9.28,-0.00,-0.00,0.00,0.00
2026-06-26 17:53:18.971,994.16,994.25,9.62,4.11,0.00,1.01,0.31,9.28,-0.00,-0.00,0.00,0.00
2026-06-26 17:53:18.973,994.16,994.25,9.62,4.11,0.00,1.04,0.31,9.27,-0.00,0.00,0.00,0.00
2026-06-26 17:53:18.979,994.16,994.25,9.62,4.11,0.00,1.04,0.31,9.27,-0.00,0.00,0.00,0.00
2026-06-26 17:53:18.982,994.16,994.25,9.62,4.11,0.00,1.04,0.31,9.27,-0.00,0.00,0.00,0.00
2026-06-26 17:53:18.983,994.16,994.25,9.62,4.11,0.00,1.03,0.29,9.28,-0.00,0.00,0.00,0.00
2026-06-26 17:53:19.067,994.16,994.26,9.96,4.18,0.00,1.03,0.30,9.28,-0.00,-0.00,0.00,0.00
2026-06-26 17:53:19.068,994.16,994.26,9.96,4.18,0.00,1.03,0.30,9.28,-0.00,-0.00,0.00,0.00
2026-06-26 17:53:19.071,994.16,994.26,9.96,4.18,0.00,1.03,0.30,9.28,-0.00,-0.00,0.00,0.00
2026-06-26 17:53:19.072,994.16,994.26,9.96,4.18,0.00,1.01,0.27,9.31,0.00,-0.00,0.00,0.00
2026-06-26 17:53:19.074,994.16,994.26,9.96,4.18,0.00,1.01,0.27,9.31,0.00,-0.00,0.00,0.00
2026-06-26 17:53:19.075,994.16,994.26,9.96,4.18,0.00,1.01,0.27,9.31,0.00,-0.00,0.00,0.00
2026-06-26 17:53:19.077,994.16,994.26,9.96,4.18,0.00,1.01,0.27,9.31,0.00,-0.00,0.00,0.00
2026-06-26 17:53:19.082,994.16,994.26,9.96,4.18,0.00,1.01,0.27,9.31,-0.00,-0.00,0.00,0.00
2026-06-26 17:53:19.084,994.16,994.26,9.96,4.18,0.00,1.02,0.28,9.28,-0.00,-0.00,0.00,0.00
2026-06-26 17:53:19.085,994.16,994.26,9.96,4.18,0.00,1.02,0.28,9.28,-0.00,-0.00,0.00,0.00
2026-06-26 17:53:19.090,994.16,994.26,9.96,4.18,0.00,1.02,0.28,9.28,-0.00,-0.00,0.00,0.00
2026-06-26 17:53:19.092,994.16,994.26,9.96,4.18,0.00,1.02,0.29,9.28,0.00,0.00,0.00,0.00
2026-06-26 17:53:19.095,994.16,994.26,9.96,4.18,0.00,1.02,0.29,9.28,0.00,0.00,0.00,0.00
2026-06-26 17:53:19.101,994.16,994.26,9.96,4.18,0.00,1.02,0.29,9.28,-0.00,-0.00,0.00,0.00
2026-06-26 17:53:19.104,994.16,994.26,9.96,4.18,0.00,1.01,0.28,9.27,-0.00,-0.00,0.00,0.00
2026-06-26 17:53:19.107,994.16,994.26,9.96,4.18,0.00,1.01,0.28,9.27,-0.00,-0.00,0.00,0.00
2026-06-26 17:53:19.112,994.16,994.26,9.96,4.18,0.00,1.01,0.28,9.27,-0.00,-0.00,0.00,0.00
2026-06-26 17:53:19.113,994.16,994.26,9.96,4.18,0.00,1.03,0.29,9.28,-0.00,-0.00,0.00,0.00
2026-06-26 17:53:19.115,994.16,994.26,9.96,4.18,0.00,1.03,0.29,9.28,-0.00,-0.00,0.00,0.00
2026-06-26 17:53:19.117,994.16,994.26,9.96,4.18,0.00,1.03,0.29,9.28,-0.00,-0.00,0.00,0.00
2026-06-26 17:53:19.119,994.16,994.26,9.96,4.18,0.00,1.03,0.29,9.28,-0.00,-0.00,0.00,0.00
2026-06-26 17:53:19.122,994.16,994.26,9.96,4.18,0.00,1.03,0.29,9.28,0.00,0.00,-0.00,0.00
2026-06-26 17:53:19.124,994.16,994.26,9.96,4.18,0.00,1.02,0.29,9.28,0.00,0.00,-0.00,0.00
2026-06-26 17:53:19.126,994.16,994.26,9.96,4.18,0.00,1.02,0.29,9.28,0.00,0.00,-0.00,0.00
2026-06-26 17:53:19.212,994.16,994.25,9.61,4.11,0.00,1.05,0.28,9.30,-0.00,0.00,-0.00,0.00
2026-06-26 17:53:19.213,994.16,994.25,9.61,4.11,0.00,1.02,0.30,9.27,-0.00,0.00,-0.00,0.00
2026-06-26 17:53:19.214,994.16,994.25,9.61,4.11,0.00,1.02,0.30,9.27,-0.00,0.00,-0.00,0.00
2026-06-26 17:53:19.216,994.16,994.25,9.61,4.11,0.00,1.02,0.30,9.27,-0.00,0.00,-0.00,0.00
2026-06-26 17:53:19.217,994.16,994.25,9.61,4.11,0.00,1.02,0.30,9.27,-0.00,0.00,-0.00,0.00
2026-06-26 17:53:19.219,994.16,994.25,9.61,4.11,0.00,1.02,0.30,9.27,-0.00,0.00,-0.00,0.00
2026-06-26 17:53:19.222,994.16,994.25,9.61,4.11,0.00,1.02,0.30,9.27,-0.00,0.00,-0.00,0.00
2026-06-26 17:53:19.223,994.16,994.25,9.61,4.11,0.00,1.03,0.28,9.30,-0.00,0.00,0.00,0.00
2026-06-26 17:53:19.225,994.16,994.25,9.61,4.11,0.00,1.03,0.28,9.30,-0.00,0.00,0.00,0.00
2026-06-26 17:53:19.231,994.16,994.25,9.61,4.11,0.00,1.03,0.28,9.30,-0.00,0.00,0.00,0.00
2026-06-26 17:53:19.232,994.16,994.25,9.61,4.11,0.00,1.02,0.31,9.28,-0.00,0.00,0.00,0.00
2026-06-26 17:53:19.234,994.16,994.25,9.61,4.11,0.00,1.02,0.31,9.28,-0.00,0.00,0.00,0.00
2026-06-26 17:53:19.237,994.16,994.25,9.61,4.11,0.00,1.02,0.31,9.28,-0.00,0.00,0.00,0.00
2026-06-26 17:53:19.242,994.16,994.25,9.61,4.11,0.00,1.02,0.31,9.28,-0.00,-0.00,0.00,0.00
2026-06-26 17:53:19.243,994.16,994.25,9.61,4.11,0.00,1.01,0.32,9.28,-0.00,-0.00,0.00,0.00
2026-06-26 17:53:19.244,994.16,994.25,9.61,4.11,0.00,1.01,0.32,9.28,-0.00,-0.00,0.00,0.00
2026-06-26 17:53:19.246,994.16,994.25,9.61,4.11,0.00,1.01,0.32,9.28,-0.00,-0.00,0.00,0.00
2026-06-26 17:53:19.247,994.16,994.25,9.61,4.11,0.00,1.01,0.32,9.28,-0.00,-0.00,0.00,0.00
2026-06-26 17:53:19.252,994.16,994.25,9.61,4.11,0.00,1.01,0.32,9.28,-0.00,-0.00,0.00,0.00
2026-06-26 17:53:19.254,994.16,994.25,9.61,4.11,0.00,0.99,0.29,9.28,0.00,-0.00,0.00,0.00
2026-06-26 17:53:19.255,994.16,994.25,9.61,4.11,0.00,0.99,0.29,9.28,0.00,-0.00,0.00,0.00
2026-06-26 17:53:19.262,994.16,994.25,9.61,4.11,0.00,0.99,0.29,9.28,0.00,-0.00,0.00,0.00
2026-06-26 17:53:19.263,994.16,994.25,9.61,4.11,0.00,1.02,0.29,9.29,-0.00,-0.00,0.00,0.00
2026-06-26 17:53:19.264,994.16,994.25,9.61,4.11,0.00,1.02,0.29,9.29,-0.00,-0.00,0.00,0.00
2026-06-26 17:53:19.266,994.16,994.25,9.61,4.11,0.00,1.02,0.29,9.29,-0.00,-0.00,0.00,0.00
2026-06-26 17:53:19.267,994.16,994.25,9.61,4.11,0.00,1.02,0.29,9.29,-0.00,-0.00,0.00,0.00
2026-06-26 17:53:19.353,994.16,994.25,9.02,3.98,0.00,1.01,0.28,9.27,-0.00,0.00,0.00,0.00
2026-06-26 17:53:19.354,994.16,994.25,9.02,3.98,0.00,1.01,0.28,9.27,-0.00,0.00,0.00,0.00
2026-06-26 17:53:19.355,994.16,994.25,9.02,3.98,0.00,1.01,0.28,9.27,-0.00,0.00,0.00,0.00
2026-06-26 17:53:19.357,994.16,994.25,9.02,3.98,0.00,1.01,0.28,9.27,-0.00,0.00,0.00,0.00
2026-06-26 17:53:19.362,994.16,994.25,9.02,3.98,0.00,1.01,0.28,9.27,-0.00,0.00,0.00,0.00
2026-06-26 17:53:19.363,994.16,994.25,9.02,3.98,0.00,1.01,0.30,9.28,0.00,0.00,0.00,0.00
2026-06-26 17:53:19.364,994.16,994.25,9.02,3.98,0.00,1.01,0.30,9.28,0.00,0.00,0.00,0.00
2026-06-26 17:53:19.366,994.16,994.25,9.02,3.98,0.00,1.01,0.30,9.28,0.00,0.00,0.00,0.00
2026-06-26 17:53:19.367,994.16,994.25,9.02,3.98,0.00,1.01,0.30,9.28,0.00,0.00,0.00,0.00
2026-06-26 17:53:19.369,994.16,994.25,9.02,3.98,0.00,1.01,0.30,9.28,0.00,0.00,0.00,0.00
2026-06-26 17:53:19.372,994.16,994.25,9.02,3.98,0.00,1.01,0.30,9.28,0.00,0.00,0.00,0.00
2026-06-26 17:53:19.374,994.16,994.25,9.02,3.98,0.00,1.02,0.27,9.30,0.00,0.00,0.00,0.00
2026-06-26 17:53:19.375,994.16,994.25,9.02,3.98,0.00,1.02,0.27,9.30,0.00,0.00,0.00,0.00
2026-06-26 17:53:19.378,994.16,994.25,9.02,3.98,0.00,1.02,0.27,9.30,0.00,0.00,0.00,0.00
2026-06-26 17:53:19.382,994.16,994.25,9.02,3.98,0.00,1.02,0.27,9.30,-0.00,0.00,0.00,0.00
2026-06-26 17:53:19.383,994.16,994.25,9.02,3.98,0.00,1.02,0.28,9.29,-0.00,0.00,0.00,0.00
2026-06-26 17:53:19.385,994.16,994.25,9.02,3.98,0.00,1.02,0.28,9.29,-0.00,0.00,0.00,0.00
2026-06-26 17:53:19.386,994.16,994.25,9.02,3.98,0.00,1.02,0.28,9.29,-0.00,0.00,0.00,0.00
2026-06-26 17:53:19.390,994.16,994.25,9.02,3.98,0.00,1.02,0.28,9.29,-0.00,0.00,0.00,0.00
2026-06-26 17:53:19.393,994.16,994.25,9.02,3.98,0.00,1.01,0.29,9.23,-0.00,0.00,0.00,0.00
2026-06-26 17:53:19.395,994.16,994.25,9.02,3.98,0.00,1.01,0.29,9.23,-0.00,0.00,0.00,0.00
2026-06-26 17:53:19.400,994.16,994.25,9.02,3.98,0.00,1.01,0.29,9.23,-0.00,0.00,0.00,0.00
2026-06-26 17:53:19.402,994.16,994.25,9.02,3.98,0.00,1.00,0.27,9.26,0.00,0.00,0.00,0.00
2026-06-26 17:53:19.404,994.16,994.25,9.02,3.98,0.00,1.00,0.27,9.26,0.00,0.00,0.00,0.00
2026-06-26 17:53:19.405,994.16,994.25,9.02,3.98,0.00,1.00,0.27,9.26,0.00,0.00,0.00,0.00
2026-06-26 17:53:19.406,994.16,994.25,9.02,3.98,0.00,1.00,0.27,9.26,0.00,0.00,0.00,0.00
2026-06-26 17:53:19.412,994.16,994.25,9.02,3.98,0.00,1.00,0.27,9.26,0.00,0.00,0.00,0.00
2026-06-26 17:53:19.495,994.16,994.25,8.41,3.84,0.00,1.02,0.31,9.25,0.00,-0.00,0.00,0.00
2026-06-26 17:53:19.500,994.16,994.25,8.41,3.84,0.00,1.02,0.31,9.25,0.00,-0.00,0.00,0.00
2026-06-26 17:53:19.503,994.16,994.25,8.41,3.84,0.00,1.02,0.31,9.25,0.00,0.00,0.00,0.00
2026-06-26 17:53:19.504,994.16,994.25,8.41,3.84,0.00,1.03,0.30,9.30,0.00,0.00,0.00,0.00
2026-06-26 17:53:19.505,994.16,994.25,8.41,3.84,0.00,1.03,0.30,9.30,0.00,0.00,0.00,0.00
2026-06-26 17:53:19.506,994.16,994.25,8.41,3.84,0.00,1.03,0.30,9.30,0.00,0.00,0.00,0.00
2026-06-26 17:53:19.511,994.16,994.25,8.41,3.84,0.00,1.03,0.30,9.30,0.00,0.00,0.00,0.00
2026-06-26 17:53:19.513,994.16,994.25,8.41,3.84,0.00,1.02,0.27,9.27,-0.00,0.00,0.00,0.00
2026-06-26 17:53:19.514,994.16,994.25,8.41,3.84,0.00,1.02,0.27,9.27,-0.00,0.00,0.00,0.00
2026-06-26 17:53:19.515,994.16,994.25,8.41,3.84,0.00,1.02,0.27,9.27,-0.00,0.00,0.00,0.00
2026-06-26 17:53:19.517,994.16,994.25,8.41,3.84,0.00,1.02,0.27,9.27,-0.00,0.00,0.00,0.00
2026-06-26 17:53:19.518,994.16,994.25,8.41,3.84,0.00,1.02,0.27,9.27,-0.00,0.00,0.00,0.00
2026-06-26 17:53:19.520,994.16,994.25,8.41,3.84,0.00,1.02,0.27,9.27,-0.00,0.00,0.00,0.00
2026-06-26 17:53:19.523,994.16,994.25,8.41,3.84,0.00,1.01,0.28,9.31,-0.00,0.00,-0.00,0.00
2026-06-26 17:53:19.525,994.16,994.25,8.41,3.84,0.00,1.01,0.28,9.31,-0.00,0.00,-0.00,0.00
2026-06-26 17:53:19.526,994.16,994.25,8.41,3.84,0.00,1.01,0.28,9.31,-0.00,0.00,-0.00,0.00
2026-06-26 17:53:19.529,994.16,994.25,8.41,3.84,0.00,1.01,0.28,9.31,-0.00,0.00,-0.00,0.00
2026-06-26 17:53:19.533,994.16,994.25,8.41,3.84,0.00,1.01,0.28,9.31,0.00,0.00,-0.00,0.00
2026-06-26 17:53:19.534,994.16,994.25,8.41,3.84,0.00,1.00,0.28,9.27,0.00,0.00,-0.00,0.00
2026-06-26 17:53:19.535,994.16,994.25,8.41,3.84,0.00,1.00,0.28,9.27,0.00,0.00,-0.00,0.00
2026-06-26 17:53:19.541,994.16,994.25,8.41,3.84,0.00,1.00,0.28,9.27,0.00,0.00,-0.00,0.00
2026-06-26 17:53:19.544,994.16,994.25,8.41,3.84,0.00,1.03,0.28,9.25,0.00,0.00,-0.00,0.00
2026-06-26 17:53:19.545,994.16,994.25,8.41,3.84,0.00,1.03,0.28,9.25,0.00,0.00,-0.00,0.00
2026-06-26 17:53:19.546,994.16,994.25,8.41,3.84,0.00,1.03,0.28,9.25,0.00,0.00,-0.00,0.00
2026-06-26 17:53:19.549,994.16,994.25,8.41,3.84,0.00,1.03,0.28,9.25,0.00,0.00,-0.00,0.00
2026-06-26 17:53:19.553,994.16,994.25,8.41,3.84,0.00,1.03,0.28,9.25,0.00,-0.00,0.00,0.00
2026-06-26 17:53:19.554,994.16,994.25,8.41,3.84,0.00,1.01,0.27,9.30,0.00,-0.00,0.00,0.00
2026-06-26 17:53:19.637,994.16,994.25,8.38,3.84,0.00,1.02,0.30,9.27,0.00,0.00,0.00,0.00
2026-06-26 17:53:19.643,994.16,994.25,8.38,3.84,0.00,1.02,0.30,9.27,0.00,-0.00,0.00,0.00
2026-06-26 17:53:19.644,994.16,994.25,8.38,3.84,0.00,0.99,0.29,9.24,0.00,-0.00,0.00,0.00
2026-06-26 17:53:19.647,994.16,994.25,8.38,3.84,0.00,0.99,0.29,9.24,0.00,-0.00,0.00,0.00
2026-06-26 17:53:19.653,994.16,994.25,8.38,3.84,0.00,0.99,0.29,9.24,0.00,-0.00,0.00,0.00
2026-06-26 17:53:19.654,994.16,994.25,8.38,3.84,0.00,1.02,0.28,9.29,0.00,0.00,-0.00,0.00
2026-06-26 17:53:19.656,994.16,994.25,8.38,3.84,0.00,1.02,0.28,9.29,0.00,0.00,-0.00,0.00
2026-06-26 17:53:19.657,994.16,994.25,8.38,3.84,0.00,1.02,0.28,9.29,0.00,0.00,-0.00,0.00
2026-06-26 17:53:19.662,994.16,994.25,8.38,3.84,0.00,1.02,0.28,9.29,0.00,0.00,-0.00,0.00
2026-06-26 17:53:19.664,994.16,994.25,8.38,3.84,0.00,1.02,0.29,9.28,0.00,-0.00,0.00,0.00
2026-06-26 17:53:19.666,994.16,994.25,8.38,3.84,0.00,1.02,0.29,9.28,0.00,-0.00,0.00,0.00
2026-06-26 17:53:19.667,994.16,994.25,8.38,3.84,0.00,1.02,0.29,9.28,0.00,-0.00,0.00,0.00
2026-06-26 17:53:19.669,994.16,994.25,8.38,3.84,0.00,1.02,0.29,9.28,0.00,-0.00,0.00,0.00
2026-06-26 17:53:19.670,994.16,994.25,8.38,3.84,0.00,1.02,0.29,9.28,0.00,-0.00,0.00,0.00
2026-06-26 17:53:19.673,994.16,994.25,8.38,3.84,0.00,1.02,0.29,9.28,0.00,-0.00,0.00,0.00
2026-06-26 17:53:19.675,994.16,994.25,8.38,3.84,0.00,1.02,0.30,9.27,0.00,-0.00,0.00,0.00
2026-06-26 17:53:19.676,994.16,994.25,8.38,3.84,0.00,1.02,0.30,9.27,0.00,-0.00,0.00,0.00
2026-06-26 17:53:19.681,994.16,994.25,8.38,3.84,0.00,1.02,0.30,9.27,0.00,-0.00,0.00,0.00
2026-06-26 17:53:19.683,994.16,994.25,8.38,3.84,0.00,1.01,0.30,9.28,0.00,0.00,0.00,0.00
2026-06-26 17:53:19.685,994.16,994.25,8.38,3.84,0.00,1.01,0.30,9.28,0.00,0.00,0.00,0.00
2026-06-26 17:53:19.687,994.16,994.25,8.38,3.84,0.00,1.01,0.30,9.28,0.00,0.00,0.00,0.00
2026-06-26 17:53:19.692,994.16,994.25,8.38,3.84,0.00,1.01,0.30,9.28,0.00,0.00,0.00,0.00
2026-06-26 17:53:19.694,994.16,994.25,8.38,3.84,0.00,1.01,0.31,9.27,0.00,-0.00,0.00,0.00
2026-06-26 17:53:19.695,994.16,994.25,8.38,3.84,0.00,1.01,0.31,9.27,0.00,-0.00,0.00,0.00
2026-06-26 17:53:19.783,994.17,994.25,8.42,3.85,0.00,1.01,0.29,9.28,0.00,0.00,-0.00,0.00
2026-06-26 17:53:19.784,994.17,994.25,8.42,3.85,0.00,1.01,0.30,9.27,-0.00,-0.00,0.00,0.00
2026-06-26 17:53:19.785,994.17,994.25,8.42,3.85,0.00,1.01,0.30,9.27,-0.00,-0.00,0.00,0.00
2026-06-26 17:53:19.786,994.17,994.25,8.42,3.85,0.00,1.01,0.30,9.27,-0.00,-0.00,0.00,0.00
2026-06-26 17:53:19.789,994.17,994.25,8.42,3.85,0.00,1.01,0.30,9.27,-0.00,-0.00,0.00,0.00
2026-06-26 17:53:19.793,994.17,994.25,8.42,3.85,0.00,1.01,0.30,9.27,-0.00,0.00,0.00,0.00
2026-06-26 17:53:19.794,994.17,994.25,8.42,3.85,0.00,1.02,0.28,9.25,-0.00,0.00,0.00,0.00
2026-06-26 17:53:19.795,994.17,994.25,8.42,3.85,0.00,1.02,0.28,9.25,-0.00,0.00,0.00,0.00
2026-06-26 17:53:19.797,994.17,994.25,8.42,3.85,0.00,1.02,0.28,9.25,-0.00,0.00,0.00,0.00
2026-06-26 17:53:19.802,994.17,994.25,8.42,3.85,0.00,1.02,0.28,9.25,-0.00,0.00,0.00,0.00
2026-06-26 17:53:19.804,994.17,994.25,8.42,3.85,0.00,1.03,0.29,9.27,0.00,-0.00,-0.00,0.00
2026-06-26 17:53:19.805,994.17,994.25,8.42,3.85,0.00,1.03,0.29,9.27,0.00,-0.00,-0.00,0.00
2026-06-26 17:53:19.806,994.17,994.25,8.42,3.85,0.00,1.03,0.29,9.27,0.00,-0.00,-0.00,0.00
2026-06-26 17:53:19.809,994.17,994.25,8.42,3.85,0.00,1.03,0.29,9.27,0.00,-0.00,-0.00,0.00
2026-06-26 17:53:19.813,994.17,994.25,8.42,3.85,0.00,1.03,0.29,9.27,0.00,0.00,-0.00,0.00
2026-06-26 17:53:19.815,994.17,994.25,8.42,3.85,0.00,1.01,0.29,9.26,0.00,0.00,-0.00,0.00
2026-06-26 17:53:19.818,994.17,994.25,8.42,3.85,0.00,1.01,0.29,9.26,0.00,0.00,-0.00,0.00
2026-06-26 17:53:19.820,994.17,994.25,8.42,3.85,0.00,1.01,0.29,9.26,0.00,0.00,-0.00,0.00
2026-06-26 17:53:19.823,994.17,994.25,8.42,3.85,0.00,1.01,0.29,9.26,0.00,0.00,-0.00,0.00
2026-06-26 17:53:19.826,994.17,994.25,8.42,3.85,0.00,1.02,0.27,9.28,0.00,0.00,0.00,0.00
2026-06-26 17:53:19.830,994.17,994.25,8.42,3.85,0.00,1.02,0.27,9.28,0.00,0.00,0.00,0.00
2026-06-26 17:53:19.834,994.17,994.25,8.42,3.85,0.00,1.02,0.27,9.28,0.00,-0.00,0.00,0.00
2026-06-26 17:53:19.839,994.17,994.25,8.42,3.85,0.00,1.01,0.30,9.27,0.00,-0.00,0.00,0.00
2026-06-26 17:53:19.923,994.17,994.25,8.59,3.89,0.00,0.99,0.30,9.29,-0.00,0.00,0.00,0.00
2026-06-26 17:53:19.925,994.17,994.25,8.59,3.89,0.00,1.01,0.27,9.32,-0.00,0.00,0.00,0.00
2026-06-26 17:53:19.926,994.17,994.25,8.59,3.89,0.00,1.01,0.27,9.32,-0.00,0.00,0.00,0.00
2026-06-26 17:53:19.927,994.17,994.25,8.59,3.89,0.00,1.01,0.27,9.32,-0.00,0.00,0.00,0.00
2026-06-26 17:53:19.931,994.17,994.25,8.59,3.89,0.00,1.01,0.27,9.32,-0.00,0.00,0.00,0.00
2026-06-26 17:53:19.933,994.17,994.25,8.59,3.89,0.00,1.01,0.27,9.32,0.00,0.00,0.00,0.00
2026-06-26 17:53:19.935,994.17,994.25,8.59,3.89,0.00,1.01,0.29,9.27,0.00,0.00,0.00,0.00
2026-06-26 17:53:19.936,994.17,994.25,8.59,3.89,0.00,1.01,0.29,9.27,0.00,0.00,0.00,0.00
2026-06-26 17:53:19.939,994.17,994.25,8.59,3.89,0.00,1.01,0.29,9.27,0.00,0.00,0.00,0.00
2026-06-26 17:53:19.943,994.17,994.25,8.59,3.89,0.00,1.01,0.29,9.27,0.00,0.00,-0.00,0.00
2026-06-26 17:53:19.946,994.17,994.25,8.59,3.89,0.00,1.01,0.31,9.27,0.00,0.00,-0.00,0.00
2026-06-26 17:53:19.947,994.17,994.25,8.59,3.89,0.00,1.01,0.31,9.27,0.00,0.00,-0.00,0.00
2026-06-26 17:53:19.950,994.17,994.25,8.59,3.89,0.00,1.01,0.31,9.27,0.00,0.00,-0.00,0.00
2026-06-26 17:53:19.954,994.17,994.25,8.59,3.89,0.00,1.01,0.31,9.27,0.00,-0.00,-0.00,0.00
2026-06-26 17:53:19.956,994.17,994.25,8.59,3.89,0.00,1.03,0.28,9.26,0.00,-0.00,-0.00,0.00
2026-06-26 17:53:19.957,994.17,994.25,8.59,3.89,0.00,1.03,0.28,9.26,0.00,-0.00,-0.00,0.00
2026-06-26 17:53:19.963,994.17,994.25,8.59,3.89,0.00,1.03,0.28,9.26,0.00,-0.00,-0.00,0.00
2026-06-26 17:53:19.966,994.17,994.25,8.59,3.89,0.00,1.03,0.28,9.27,0.00,-0.00,0.00,0.00
2026-06-26 17:53:19.967,994.17,994.25,8.59,3.89,0.00,1.03,0.28,9.27,0.00,-0.00,0.00,0.00
2026-06-26 17:53:19.969,994.17,994.25,8.59,3.89,0.00,1.03,0.28,9.27,0.00,-0.00,0.00,0.00
2026-06-26 17:53:19.973,994.17,994.25,8.59,3.89,0.00,1.03,0.28,9.27,0.00,-0.00,0.00,0.00
2026-06-26 17:53:19.975,994.17,994.25,8.59,3.89,0.00,1.01,0.30,9.27,0.00,0.00,0.00,0.00
2026-06-26 17:53:19.977,994.17,994.25,8.59,3.89,0.00,1.01,0.30,9.27,0.00,0.00,0.00,0.00
2026-06-26 17:53:19.983,994.17,994.25,8.59,3.89,0.00,1.01,0.30,9.27,0.00,0.00,0.00,0.00
2026-06-26 17:53:20.066,994.17,994.25,8.42,3.85,0.00,1.02,0.29,9.27,0.00,0.00,0.00,0.00
2026-06-26 17:53:20.068,994.17,994.25,8.42,3.85,0.00,1.02,0.29,9.27,0.00,0.00,0.00,0.00
2026-06-26 17:53:20.069,994.17,994.25,8.42,3.85,0.00,1.02,0.29,9.27,0.00,0.00,0.00,0.00
2026-06-26 17:53:20.071,994.17,994.25,8.42,3.85,0.00,1.02,0.29,9.27,0.00,0.00,0.00,0.00
2026-06-26 17:53:20.073,994.17,994.25,8.42,3.85,0.00,1.02,0.29,9.27,0.00,0.00,0.00,0.00
2026-06-26 17:53:20.075,994.17,994.25,8.42,3.85,0.00,1.03,0.29,9.26,-0.00,-0.00,-0.00,0.00
2026-06-26 17:53:20.076,994.17,994.25,8.42,3.85,0.00,1.03,0.29,9.26,-0.00,-0.00,-0.00,0.00
2026-06-26 17:53:20.077,994.17,994.25,8.42,3.85,0.00,1.03,0.29,9.26,-0.00,-0.00,-0.00,0.00
2026-06-26 17:53:20.083,994.17,994.25,8.42,3.85,0.00,1.03,0.29,9.26,-0.00,-0.00,-0.00,0.00
2026-06-26 17:53:20.085,994.17,994.25,8.42,3.85,0.00,1.01,0.28,9.29,0.00,0.00,0.00,0.00
2026-06-26 17:53:20.086,994.17,994.25,8.42,3.85,0.00,1.01,0.28,9.29,0.00,0.00,0.00,0.00
2026-06-26 17:53:20.087,994.17,994.25,8.42,3.85,0.00,1.01,0.28,9.29,0.00,0.00,0.00,0.00
2026-06-26 17:53:20.093,994.17,994.25,8.42,3.85,0.00,1.01,0.28,9.29,0.00,0.00,0.00,0.00
2026-06-26 17:53:20.095,994.17,994.25,8.42,3.85,0.00,1.01,0.27,9.27,0.00,-0.00,-0.00,0.00
2026-06-26 17:53:20.097,994.17,994.25,8.42,3.85,0.00,1.01,0.27,9.27,0.00,-0.00,-0.00,0.00
2026-06-26 17:53:20.099,994.17,994.25,8.42,3.85,0.00,1.01,0.27,9.27,0.00,-0.00,-0.00,0.00
2026-06-26 17:53:20.104,994.17,994.25,8.42,3.85,0.00,1.01,0.27,9.27,0.00,-0.00,0.00,0.00
2026-06-26 17:53:20.105,994.17,994.25,8.42,3.85,0.00,1.01,0.28,9.27,0.00,-0.00,0.00,0.00
2026-06-26 17:53:20.106,994.17,994.25,8.42,3.85,0.00,1.01,0.28,9.27,0.00,-0.00,0.00,0.00
2026-06-26 17:53:20.108,994.17,994.25,8.42,3.85,0.00,1.01,0.28,9.27,0.00,-0.00,0.00,0.00
2026-06-26 17:53:20.114,994.17,994.25,8.42,3.85,0.00,1.01,0.28,9.27,0.00,-0.00,0.00,0.00
2026-06-26 17:53:20.115,994.17,994.25,8.42,3.85,0.00,1.01,0.29,9.25,0.00,0.00,-0.00,0.00
2026-06-26 17:53:20.116,994.17,994.25,8.42,3.85,0.00,1.01,0.29,9.25,0.00,0.00,-0.00,0.00
2026-06-26 17:53:20.118,994.17,994.25,8.42,3.85,0.00,1.01,0.29,9.25,0.00,0.00,-0.00,0.00
2026-06-26 17:53:20.119,994.17,994.25,8.42,3.85,0.00,1.01,0.29,9.25,0.00,0.00,-0.00,0.00
2026-06-26 17:53:20.120,994.17,994.25,8.42,3.85,0.00,1.01,0.29,9.25,0.00,0.00,-0.00,0.00
2026-06-26 17:53:20.121,994.17,994.25,8.42,3.85,0.00,1.01,0.29,9.25,0.00,0.00,-0.00,0.00
2026-06-26 17:53:20.124,994.17,994.25,8.42,3.85,0.00,1.01,0.29,9.25,0.00,-0.00,0.00,0.00
2026-06-26 17:53:20.210,994.17,994.25,8.66,3.90,0.00,1.01,0.30,9.27,0.00,-0.00,0.00,0.00
2026-06-26 17:53:20.214,994.17,994.25,8.66,3.90,0.00,1.01,0.30,9.27,0.00,-0.00,0.00,0.00
2026-06-26 17:53:20.218,994.17,994.25,8.66,3.90,0.00,1.02,0.29,9.26,0.00,-0.00,0.00,0.00
2026-06-26 17:53:20.219,994.17,994.25,8.66,3.90,0.00,1.02,0.29,9.26,0.00,-0.00,0.00,0.00
2026-06-26 17:53:20.221,994.17,994.25,8.66,3.90,0.00,1.02,0.29,9.26,0.00,-0.00,0.00,0.00
2026-06-26 17:53:20.224,994.17,994.25,8.66,3.90,0.00,1.02,0.29,9.26,-0.00,0.00,0.00,0.00
2026-06-26 17:53:20.226,994.17,994.25,8.66,3.90,0.00,1.01,0.29,9.27,-0.00,0.00,0.00,0.00
2026-06-26 17:53:20.228,994.17,994.25,8.66,3.90,0.00,1.01,0.29,9.27,-0.00,0.00,0.00,0.00
2026-06-26 17:53:20.233,994.17,994.25,8.66,3.90,0.00,1.01,0.29,9.27,-0.00,0.00,0.00,0.00
2026-06-26 17:53:20.235,994.17,994.25,8.66,3.90,0.00,1.03,0.29,9.30,0.00,0.00,-0.00,0.00
2026-06-26 17:53:20.236,994.17,994.25,8.66,3.90,0.00,1.03,0.29,9.30,0.00,0.00,-0.00,0.00
2026-06-26 17:53:20.237,994.17,994.25,8.66,3.90,0.00,1.03,0.29,9.30,0.00,0.00,-0.00,0.00
2026-06-26 17:53:20.239,994.17,994.25,8.66,3.90,0.00,1.03,0.29,9.30,0.00,0.00,-0.00,0.00
2026-06-26 17:53:20.244,994.17,994.25,8.66,3.90,0.00,1.03,0.29,9.30,0.00,0.00,-0.00,0.00
2026-06-26 17:53:20.245,994.17,994.25,8.66,3.90,0.00,1.01,0.28,9.26,0.00,0.00,0.00,0.00
2026-06-26 17:53:20.247,994.17,994.25,8.66,3.90,0.00,1.01,0.28,9.26,0.00,0.00,0.00,0.00
2026-06-26 17:53:20.250,994.17,994.25,8.66,3.90,0.00,1.01,0.28,9.26,0.00,0.00,0.00,0.00
2026-06-26 17:53:20.254,994.17,994.25,8.66,3.90,0.00,1.01,0.28,9.26,0.00,-0.00,0.00,0.00
2026-06-26 17:53:20.256,994.17,994.25,8.66,3.90,0.00,1.01,0.28,9.26,0.00,-0.00,0.00,0.00
2026-06-26 17:53:20.257,994.17,994.25,8.66,3.90,0.00,1.01,0.28,9.26,0.00,-0.00,0.00,0.00
2026-06-26 17:53:20.258,994.17,994.25,8.66,3.90,0.00,1.01,0.28,9.26,0.00,-0.00,0.00,0.00
2026-06-26 17:53:20.264,994.17,994.25,8.66,3.90,0.00,1.01,0.28,9.26,0.00,-0.00,0.00,0.00
2026-06-26 17:53:20.266,994.17,994.25,8.66,3.90,0.00,1.04,0.28,9.27,0.00,-0.00,0.00,0.00
2026-06-26 17:53:20.348,994.17,994.26,8.97,3.97,0.00,1.00,0.29,9.25,0.00,0.00,-0.00,0.00
2026-06-26 17:53:20.355,994.17,994.26,8.97,3.97,0.00,1.00,0.29,9.25,-0.00,-0.00,0.00,0.00
2026-06-26 17:53:20.356,994.17,994.26,8.97,3.97,0.00,1.02,0.30,9.27,-0.00,-0.00,0.00,0.00
2026-06-26 17:53:20.358,994.17,994.26,8.97,3.97,0.00,1.02,0.30,9.27,-0.00,-0.00,0.00,0.00
2026-06-26 17:53:20.361,994.17,994.26,8.97,3.97,0.00,1.02,0.30,9.27,-0.00,-0.00,0.00,0.00
2026-06-26 17:53:20.365,994.17,994.26,8.97,3.97,0.00,1.02,0.30,9.27,0.00,0.00,-0.00,0.00
2026-06-26 17:53:20.366,994.17,994.26,8.97,3.97,0.00,1.01,0.30,9.27,0.00,0.00,-0.00,0.00
2026-06-26 17:53:20.367,994.17,994.26,8.97,3.97,0.00,1.01,0.30,9.27,0.00,0.00,-0.00,0.00
2026-06-26 17:53:20.369,994.17,994.26,8.97,3.97,0.00,1.01,0.30,9.27,0.00,0.00,-0.00,0.00
2026-06-26 17:53:20.371,994.17,994.26,8.97,3.97,0.00,1.01,0.30,9.27,0.00,0.00,-0.00,0.00
2026-06-26 17:53:20.372,994.17,994.26,8.97,3.97,0.00,1.01,0.30,9.27,0.00,0.00,-0.00,0.00
2026-06-26 17:53:20.376,994.17,994.26,8.97,3.97,0.00,1.00,0.28,9.28,0.00,-0.00,0.00,0.00
2026-06-26 17:53:20.377,994.17,994.26,8.97,3.97,0.00,1.00,0.28,9.28,0.00,-0.00,0.00,0.00
2026-06-26 17:53:20.381,994.17,994.26,8.97,3.97,0.00,1.00,0.28,9.28,0.00,-0.00,0.00,0.00
2026-06-26 17:53:20.384,994.17,994.26,8.97,3.97,0.00,1.00,0.28,9.28,-0.00,0.00,-0.00,0.00
2026-06-26 17:53:20.386,994.17,994.26,8.97,3.97,0.00,1.03,0.26,9.27,-0.00,0.00,-0.00,0.00
2026-06-26 17:53:20.387,994.17,994.26,8.97,3.97,0.00,1.03,0.26,9.27,-0.00,0.00,-0.00,0.00
2026-06-26 17:53:20.390,994.17,994.26,8.97,3.97,0.00,1.03,0.26,9.27,-0.00,0.00,-0.00,0.00
2026-06-26 17:53:20.394,994.17,994.26,8.97,3.97,0.00,1.03,0.26,9.27,-0.00,0.00,-0.00,0.00
2026-06-26 17:53:20.396,994.17,994.26,8.97,3.97,0.00,1.01,0.29,9.25,-0.00,0.00,-0.00,0.00
2026-06-26 17:53:20.397,994.17,994.26,8.97,3.97,0.00,1.01,0.29,9.25,-0.00,0.00,-0.00,0.00
2026-06-26 17:53:20.399,994.17,994.26,8.97,3.97,0.00,1.01,0.29,9.25,-0.00,0.00,-0.00,0.00
2026-06-26 17:53:20.404,994.17,994.26,8.97,3.97,0.00,1.01,0.29,9.25,-0.00,0.00,-0.00,0.00
2026-06-26 17:53:20.405,994.17,994.26,8.97,3.97,0.00,1.04,0.28,9.28,0.00,0.00,0.00,0.00
2026-06-26 17:53:20.406,994.17,994.26,8.97,3.97,0.00,1.04,0.28,9.28,0.00,0.00,0.00,0.00
2026-06-26 17:53:20.408,994.17,994.26,8.97,3.97,0.00,1.04,0.28,9.28,0.00,0.00,0.00,0.00
2026-06-26 17:53:20.494,994.17,994.26,8.94,3.96,0.00,1.02,0.29,9.27,0.00,0.00,0.00,0.00
2026-06-26 17:53:20.496,994.17,994.26,8.94,3.96,0.00,1.01,0.31,9.25,0.00,0.00,0.00,0.00
2026-06-26 17:53:20.497,994.17,994.26,8.94,3.96,0.00,1.01,0.31,9.25,0.00,0.00,0.00,0.00
2026-06-26 17:53:20.498,994.17,994.26,8.94,3.96,0.00,1.01,0.31,9.25,0.00,0.00,0.00,0.00
2026-06-26 17:53:20.501,994.17,994.26,8.94,3.96,0.00,1.01,0.31,9.25,0.00,0.00,0.00,0.00
2026-06-26 17:53:20.505,994.17,994.26,8.94,3.96,0.00,1.01,0.31,9.25,0.00,-0.00,-0.00,0.00
2026-06-26 17:53:20.507,994.17,994.26,8.94,3.96,0.00,1.01,0.30,9.27,0.00,-0.00,-0.00,0.00
2026-06-26 17:53:20.509,994.17,994.26,8.94,3.96,0.00,1.01,0.30,9.27,0.00,-0.00,-0.00,0.00
2026-06-26 17:53:20.514,994.17,994.26,8.94,3.96,0.00,1.01,0.30,9.27,0.00,-0.00,-0.00,0.00
2026-06-26 17:53:20.516,994.17,994.26,8.94,3.96,0.00,1.02,0.30,9.29,0.00,-0.01,0.00,0.00
2026-06-26 17:53:20.518,994.17,994.26,8.94,3.96,0.00,1.02,0.30,9.29,0.00,-0.01,0.00,0.00
2026-06-26 17:53:20.519,994.17,994.26,8.94,3.96,0.00,1.02,0.30,9.29,0.00,-0.01,0.00,0.00
2026-06-26 17:53:20.520,994.17,994.26,8.94,3.96,0.00,1.02,0.30,9.29,0.00,-0.01,0.00,0.00
2026-06-26 17:53:20.526,994.17,994.26,8.94,3.96,0.00,1.02,0.30,9.29,0.00,-0.01,0.00,0.00
2026-06-26 17:53:20.527,994.17,994.26,8.94,3.96,0.00,1.03,0.28,9.29,-0.00,0.01,-0.00,0.00
2026-06-26 17:53:20.532,994.17,994.26,8.94,3.96,0.00,1.03,0.28,9.29,-0.00,0.01,-0.00,0.00
2026-06-26 17:53:20.535,994.17,994.26,8.94,3.96,0.00,1.03,0.28,9.29,0.00,0.00,0.00,0.00
2026-06-26 17:53:20.536,994.17,994.26,8.94,3.96,0.00,1.04,0.28,9.27,0.00,0.00,0.00,0.00
2026-06-26 17:53:20.538,994.17,994.26,8.94,3.96,0.00,1.04,0.28,9.27,0.00,0.00,0.00,0.00
2026-06-26 17:53:20.539,994.17,994.26,8.94,3.96,0.00,1.04,0.28,9.27,0.00,0.00,0.00,0.00
2026-06-26 17:53:20.544,994.17,994.26,8.94,3.96,0.00,1.04,0.28,9.27,0.00,0.00,0.00,0.00
2026-06-26 17:53:20.546,994.17,994.26,8.94,3.96,0.00,1.02,0.30,9.29,0.00,0.00,-0.00,0.00
2026-06-26 17:53:20.548,994.17,994.26,8.94,3.96,0.00,1.02,0.30,9.29,0.00,0.00,-0.00,0.00
2026-06-26 17:53:20.552,994.17,994.26,8.94,3.96,0.00,1.02,0.30,9.29,0.00,0.00,-0.00,0.00
2026-06-26 17:53:20.635,994.17,994.25,8.83,3.94,0.00,1.00,0.31,9.28,0.00,0.00,0.00,0.00
2026-06-26 17:53:20.637,994.17,994.25,8.83,3.94,0.00,1.00,0.31,9.28,0.00,0.00,0.00,0.00
2026-06-26 17:53:20.638,994.17,994.25,8.83,3.94,0.00,1.00,0.31,9.28,0.00,0.00,0.00,0.00
2026-06-26 17:53:20.641,994.17,994.25,8.83,3.94,0.00,1.00,0.31,9.28,0.00,0.00,0.00,0.00
2026-06-26 17:53:20.645,994.17,994.25,8.83,3.94,0.00,1.00,0.31,9.28,0.00,0.00,-0.00,0.00
2026-06-26 17:53:20.646,994.17,994.25,8.83,3.94,0.00,1.02,0.31,9.26,0.00,0.00,-0.00,0.00
2026-06-26 17:53:20.647,994.17,994.25,8.83,3.94,0.00,1.02,0.31,9.26,0.00,0.00,-0.00,0.00
2026-06-26 17:53:20.649,994.17,994.25,8.83,3.94,0.00,1.02,0.31,9.26,0.00,0.00,-0.00,0.00
2026-06-26 17:53:20.650,994.17,994.25,8.83,3.94,0.00,1.02,0.31,9.26,0.00,0.00,-0.00,0.00
2026-06-26 17:53:20.655,994.17,994.25,8.83,3.94,0.00,1.02,0.31,9.26,0.00,0.00,-0.00,0.00
2026-06-26 17:53:20.656,994.17,994.25,8.83,3.94,0.00,1.03,0.28,9.24,0.00,0.00,0.00,0.00
2026-06-26 17:53:20.658,994.17,994.25,8.83,3.94,0.00,1.03,0.28,9.24,0.00,0.00,0.00,0.00
2026-06-26 17:53:20.662,994.17,994.25,8.83,3.94,0.00,1.03,0.28,9.24,0.00,0.00,0.00,0.00
2026-06-26 17:53:20.665,994.17,994.25,8.83,3.94,0.00,1.03,0.28,9.24,0.00,-0.00,0.00,0.00
2026-06-26 17:53:20.667,994.17,994.25,8.83,3.94,0.00,1.02,0.30,9.28,0.00,-0.00,0.00,0.00
2026-06-26 17:53:20.668,994.17,994.25,8.83,3.94,0.00,1.02,0.30,9.28,0.00,-0.00,0.00,0.00
2026-06-26 17:53:20.669,994.17,994.25,8.83,3.94,0.00,1.02,0.30,9.28,0.00,-0.00,0.00,0.00
2026-06-26 17:53:20.670,994.17,994.25,8.83,3.94,0.00,1.02,0.30,9.28,0.00,-0.00,0.00,0.00
2026-06-26 17:53:20.672,994.17,994.25,8.83,3.94,0.00,1.02,0.30,9.28,0.00,-0.00,0.00,0.00
2026-06-26 17:53:20.675,994.17,994.25,8.83,3.94,0.00,1.02,0.30,9.28,0.00,-0.00,0.00,0.00
2026-06-26 17:53:20.677,994.17,994.25,8.83,3.94,0.00,1.03,0.30,9.28,0.00,0.00,0.00,0.00
2026-06-26 17:53:20.679,994.17,994.25,8.83,3.94,0.00,1.03,0.30,9.28,0.00,0.00,0.00,0.00
2026-06-26 17:53:20.686,994.17,994.25,8.83,3.94,0.00,1.03,0.30,9.28,0.00,0.00,0.00,0.00
2026-06-26 17:53:20.687,994.17,994.25,8.83,3.94,0.00,1.02,0.28,9.30,0.00,0.00,0.00,0.00
2026-06-26 17:53:20.688,994.17,994.25,8.83,3.94,0.00,1.02,0.28,9.30,0.00,0.00,0.00,0.00
2026-06-26 17:53:20.694,994.17,994.25,8.83,3.94,0.00,1.02,0.28,9.30,0.00,0.00,0.00,0.00
2026-06-26 17:53:20.735,994.17,994.26,9.00,3.98,0.00,0.99,0.28,9.30,0.00,-0.00,0.00,0.00
2026-06-26 17:53:20.776,994.17,994.26,8.59,3.89,0.00,1.02,0.28,9.28,-0.00,0.00,0.00,0.00
2026-06-26 17:53:20.777,994.17,994.26,8.59,3.89,0.00,1.02,0.28,9.28,-0.00,0.00,0.00,0.00
2026-06-26 17:53:20.779,994.17,994.26,8.59,3.89,0.00,1.02,0.28,9.28,-0.00,0.00,0.00,0.00
2026-06-26 17:53:20.784,994.17,994.26,8.59,3.89,0.00,1.02,0.28,9.28,-0.00,0.00,0.00,0.00
2026-06-26 17:53:20.787,994.17,994.26,8.59,3.89,0.00,1.03,0.28,9.28,0.00,-0.00,0.00,0.00
2026-06-26 17:53:20.789,994.17,994.26,8.59,3.89,0.00,1.03,0.28,9.28,0.00,-0.00,0.00,0.00
2026-06-26 17:53:20.795,994.17,994.26,8.59,3.89,0.00,1.03,0.28,9.28,0.00,-0.00,0.00,0.00
2026-06-26 17:53:20.796,994.17,994.26,8.59,3.89,0.00,1.01,0.31,9.29,0.00,0.00,0.00,0.00
2026-06-26 17:53:20.798,994.17,994.26,8.59,3.89,0.00,1.01,0.31,9.29,0.00,0.00,0.00,0.00
2026-06-26 17:53:20.799,994.17,994.26,8.59,3.89,0.00,1.01,0.31,9.29,0.00,0.00,0.00,0.00
2026-06-26 17:53:20.802,994.17,994.26,8.59,3.89,0.00,1.01,0.31,9.29,0.00,0.00,0.00,0.00
2026-06-26 17:53:20.806,994.17,994.26,8.59,3.89,0.00,1.01,0.29,9.27,-0.00,-0.00,0.00,0.00
2026-06-26 17:53:20.808,994.17,994.26,8.59,3.89,0.00,1.01,0.29,9.27,-0.00,-0.00,0.00,0.00
2026-06-26 17:53:20.809,994.17,994.26,8.59,3.89,0.00,1.01,0.29,9.27,-0.00,-0.00,0.00,0.00
2026-06-26 17:53:20.815,994.17,994.26,8.59,3.89,0.00,1.01,0.29,9.27,-0.00,-0.00,0.00,0.00
2026-06-26 17:53:20.817,994.17,994.26,8.59,3.89,0.00,1.01,0.29,9.28,0.00,-0.00,-0.00,0.00
2026-06-26 17:53:20.819,994.17,994.26,8.59,3.89,0.00,1.01,0.29,9.28,0.00,-0.00,-0.00,0.00
2026-06-26 17:53:20.820,994.17,994.26,8.59,3.89,0.00,1.01,0.29,9.28,0.00,-0.00,-0.00,0.00
2026-06-26 17:53:20.822,994.17,994.26,8.59,3.89,0.00,1.01,0.29,9.28,0.00,-0.00,-0.00,0.00
2026-06-26 17:53:20.825,994.17,994.26,8.59,3.89,0.00,1.01,0.29,9.28,-0.00,0.00,-0.00,0.00
2026-06-26 17:53:20.827,994.17,994.26,8.59,3.89,0.00,1.03,0.30,9.27,-0.00,0.00,-0.00,0.00
2026-06-26 17:53:20.829,994.17,994.26,8.59,3.89,0.00,1.03,0.30,9.27,-0.00,0.00,-0.00,0.00
2026-06-26 17:53:20.833,994.17,994.26,8.59,3.89,0.00,1.03,0.30,9.27,-0.00,0.00,-0.00,0.00
2026-06-26 17:53:20.876,994.17,994.26,8.66,3.90,0.00,1.00,0.29,9.28,-0.00,-0.00,0.00,0.00
2026-06-26 17:53:20.918,994.17,994.26,8.49,3.86,0.00,1.04,0.29,9.31,-0.00,0.00,0.00,0.00
2026-06-26 17:53:20.920,994.17,994.26,8.49,3.86,0.00,1.04,0.29,9.31,-0.00,0.00,0.00,0.00
2026-06-26 17:53:20.921,994.17,994.26,8.49,3.86,0.00,1.04,0.29,9.31,-0.00,0.00,0.00,0.00
2026-06-26 17:53:20.922,994.17,994.26,8.49,3.86,0.00,1.04,0.29,9.31,-0.00,0.00,0.00,0.00
2026-06-26 17:53:20.925,994.17,994.26,8.49,3.86,0.00,1.04,0.29,9.31,0.00,0.00,0.00,0.00
2026-06-26 17:53:20.927,994.17,994.26,8.49,3.86,0.00,1.03,0.31,9.28,0.00,0.00,0.00,0.00
2026-06-26 17:53:20.928,994.17,994.26,8.49,3.86,0.00,1.03,0.31,9.28,0.00,0.00,0.00,0.00
2026-06-26 17:53:20.929,994.17,994.26,8.49,3.86,0.00,1.03,0.31,9.28,0.00,0.00,0.00,0.00
2026-06-26 17:53:20.934,994.17,994.26,8.49,3.86,0.00,1.03,0.31,9.28,0.00,0.00,0.00,0.00
2026-06-26 17:53:20.936,994.17,994.26,8.49,3.86,0.00,1.02,0.27,9.29,0.00,0.00,-0.00,0.00
2026-06-26 17:53:20.937,994.17,994.26,8.49,3.86,0.00,1.02,0.27,9.29,0.00,0.00,-0.00,0.00
2026-06-26 17:53:20.939,994.17,994.26,8.49,3.86,0.00,1.02,0.27,9.29,0.00,0.00,-0.00,0.00
2026-06-26 17:53:20.943,994.17,994.26,8.49,3.86,0.00,1.02,0.27,9.29,0.00,0.00,-0.00,0.00
2026-06-26 17:53:20.946,994.17,994.26,8.49,3.86,0.00,1.02,0.27,9.29,0.00,0.00,0.00,0.00
2026-06-26 17:53:20.947,994.17,994.26,8.49,3.86,0.00,1.00,0.30,9.26,0.00,0.00,0.00,0.00
2026-06-26 17:53:20.948,994.17,994.26,8.49,3.86,0.00,1.00,0.30,9.26,0.00,0.00,0.00,0.00
2026-06-26 17:53:20.954,994.17,994.26,8.49,3.86,0.00,1.00,0.30,9.26,0.00,0.00,0.00,0.00
2026-06-26 17:53:20.957,994.17,994.26,8.49,3.86,0.00,1.00,0.29,9.27,0.00,0.00,0.00,0.00
2026-06-26 17:53:20.958,994.17,994.26,8.49,3.86,0.00,1.00,0.29,9.27,0.00,0.00,0.00,0.00
2026-06-26 17:53:20.961,994.17,994.26,8.49,3.86,0.00,1.00,0.29,9.27,0.00,0.00,0.00,0.00
2026-06-26 17:53:20.966,994.17,994.26,8.49,3.86,0.00,1.00,0.29,9.27,0.00,0.00,0.00,0.00
2026-06-26 17:53:20.968,994.17,994.26,8.49,3.86,0.00,1.01,0.30,9.29,0.00,0.00,0.00,0.00
2026-06-26 17:53:20.970,994.17,994.26,8.49,3.86,0.00,1.01,0.30,9.29,0.00,0.00,0.00,0.00
2026-06-26 17:53:20.974,994.17,994.26,8.49,3.86,0.00,1.01,0.30,9.29,0.00,0.00,0.00,0.00
