timestamp,pressure_bag,pressure_bme,diff_pressure,v_wind_est,speed,accel_x,accel_y,accel_z,gyro_x,gyro_y,gyro_z,power
2026-06-26 17:58:31.091,994.16,994.17,0.85,1.22,0.00,1.01,0.30,9.27,0.00,-0.00,0.00,0.00
2026-06-26 17:58:31.093,994.16,994.17,0.85,1.22,0.00,0.98,0.28,9.27,0.00,0.00,-0.00,0.00
2026-06-26 17:58:31.094,994.16,994.17,0.85,1.22,0.00,0.98,0.28,9.27,0.00,0.00,-0.00,0.00
2026-06-26 17:58:31.101,994.16,994.17,0.85,1.22,0.00,0.98,0.28,9.27,0.00,0.00,-0.00,0.00
2026-06-26 17:58:31.103,994.16,994.17,0.85,1.22,0.00,1.00,0.29,9.26,-0.00,0.00,-0.00,0.00
2026-06-26 17:58:31.105,994.16,994.17,0.85,1.22,0.00,1.00,0.29,9.26,-0.00,0.00,-0.00,0.00
2026-06-26 17:58:31.109,994.16,994.17,0.85,1.22,0.00,1.00,0.29,9.26,-0.00,0.00,-0.00,0.00
2026-06-26 17:58:31.112,994.16,994.17,0.85,1.22,0.00,1.00,0.29,9.26,0.00,0.00,0.00,0.00
2026-06-26 17:58:31.115,994.16,994.17,0.85,1.22,0.00,1.01,0.29,9.27,0.00,0.00,0.00,0.00
2026-06-26 17:58:31.117,994.16,994.17,0.85,1.22,0.00,1.01,0.29,9.27,0.00,0.00,0.00,0.00
2026-06-26 17:58:31.122,994.16,994.17,0.85,1.22,0.00,1.01,0.29,9.27,-0.00,0.00,0.00,0.00
2026-06-26 17:58:31.123,994.16,994.17,0.85,1.22,0.00,1.02,0.27,9.32,-0.00,0.00,0.00,0.00
2026-06-26 17:58:31.125,994.16,994.17,0.85,1.22,0.00,1.02,0.27,9.32,-0.00,0.00,0.00,0.00
2026-06-26 17:58:31.126,994.16,994.17,0.85,1.22,0.00,1.02,0.27,9.32,-0.00,0.00,0.00,0.00
2026-06-26 17:58:31.128,994.16,994.17,0.85,1.22,0.00,1.02,0.27,9.32,-0.00,0.00,0.00,0.00
2026-06-26 17:58:31.133,994.16,994.17,0.85,1.22,0.00,1.02,0.27,9.32,-0.00,-0.00,0.00,0.00
2026-06-26 17:58:31.135,994.16,994.17,0.85,1.22,0.00,1.02,0.28,9.27,-0.00,-0.00,0.00,0.00
2026-06-26 17:58:31.141,994.16,994.17,0.85,1.22,0.00,1.02,0.28,9.27,-0.00,-0.00,0.00,0.00
2026-06-26 17:58:31.143,994.16,994.17,0.85,1.22,0.00,1.01,0.30,9.30,0.00,-0.00,0.00,0.00
2026-06-26 17:58:31.148,994.16,994.17,0.85,1.22,0.00,1.01,0.30,9.30,0.00,-0.00,0.00,0.00
2026-06-26 17:58:31.232,994.16,994.17,1.03,1.35,0.00,1.01,0.30,9.27,-0.00,-0.00,0.00,0.00
2026-06-26 17:58:31.234,994.16,994.17,1.03,1.35,0.00,0.99,0.28,9.28,-0.00,-0.00,0.00,0.00
2026-06-26 17:58:31.239,994.16,994.17,1.03,1.35,0.00,0.99,0.28,9.28,-0.00,-0.00,0.00,0.00
2026-06-26 17:58:31.242,994.16,994.17,1.03,1.35,0.00,0.99,0.28,9.28,-0.00,-0.00,-0.00,0.00
2026-06-26 17:58:31.244,994.16,994.17,1.03,1.35,0.00,1.01,0.29,9.29,-0.00,-0.00,-0.00,0.00
2026-06-26 17:58:31.245,994.16,994.17,1.03,1.35,0.00,1.01,0.29,9.29,-0.00,-0.00,-0.00,0.00
2026-06-26 17:58:31.246,994.16,994.17,1.03,1.35,0.00,1.01,0.29,9.29,-0.00,-0.00,-0.00,0.00
2026-06-26 17:58:31.251,994.16,994.17,1.03,1.35,0.00,1.01,0.29,9.29,-0.00,-0.00,-0.00,0.00
2026-06-26 17:58:31.252,994.16,994.17,1.03,1.35,0.00,1.02,0.30,9.25,-0.00,0.00,-0.00,0.00
2026-06-26 17:58:31.254,994.16,994.17,1.03,1.35,0.00,1.02,0.30,9.25,-0.00,0.00,-0.00,0.00
2026-06-26 17:58:31.255,994.16,994.17,1.03,1.35,0.00,1.02,0.30,9.25,-0.00,0.00,-0.00,0.00
2026-06-26 17:58:31.257,994.16,994.17,1.03,1.35,0.00,1.02,0.30,9.25,-0.00,0.00,-0.00,0.00
2026-06-26 17:58:31.262,994.16,994.17,1.03,1.35,0.00,1.02,0.30,9.25,0.00,0.00,-0.00,0.00
2026-06-26 17:58:31.264,994.16,994.17,1.03,1.35,0.00,1.02,0.30,9.28,0.00,0.00,-0.00,0.00
2026-06-26 17:58:31.266,994.16,994.17,1.03,1.35,0.00,1.02,0.30,9.28,0.00,0.00,-0.00,0.00
2026-06-26 17:58:31.272,994.16,994.17,1.03,1.35,0.00,1.02,0.30,9.28,0.00,0.00,-0.00,0.00
2026-06-26 17:58:31.273,994.16,994.17,1.03,1.35,0.00,1.01,0.30,9.27,0.00,0.00,0.00,0.00
2026-06-26 17:58:31.275,994.16,994.17,1.03,1.35,0.00,1.01,0.30,9.27,0.00,0.00,0.00,0.00
2026-06-26 17:58:31.277,994.16,994.17,1.03,1.35,0.00,1.01,0.30,9.27,0.00,0.00,0.00,0.00
2026-06-26 17:58:31.278,994.16,994.17,1.03,1.35,0.00,1.01,0.30,9.27,0.00,0.00,0.00,0.00
2026-06-26 17:58:31.281,994.16,994.17,1.03,1.35,0.00,1.01,0.30,9.27,0.00,0.00,0.00,0.00
2026-06-26 17:58:31.283,994.16,994.17,1.03,1.35,0.00,1.01,0.30,9.29,-0.00,-0.00,-0.00,0.00
2026-06-26 17:58:31.284,994.16,994.17,1.03,1.35,0.00,1.01,0.30,9.29,-0.00,-0.00,-0.00,0.00
2026-06-26 17:58:31.285,994.16,994.17,1.03,1.35,0.00,1.01,0.30,9.29,-0.00,-0.00,-0.00,0.00
2026-06-26 17:58:31.330,994.16,994.17,0.92,1.27,0.00,0.99,0.32,9.27,0.00,0.00,-0.00,0.00
2026-06-26 17:58:31.373,994.16,994.17,1.18,1.44,0.00,1.02,0.29,9.27,0.00,-0.00,-0.00,0.00
2026-06-26 17:58:31.374,994.16,994.17,1.18,1.44,0.00,1.02,0.29,9.27,0.00,-0.00,-0.00,0.00
2026-06-26 17:58:31.375,994.16,994.17,1.18,1.44,0.00,1.02,0.29,9.27,0.00,-0.00,-0.00,0.00
2026-06-26 17:58:31.377,994.16,994.17,1.18,1.44,0.00,1.02,0.29,9.27,0.00,-0.00,-0.00,0.00
2026-06-26 17:58:31.378,994.16,994.17,1.18,1.44,0.00,1.02,0.29,9.27,0.00,-0.00,-0.00,0.00
2026-06-26 17:58:31.379,994.16,994.17,1.18,1.44,0.00,1.02,0.29,9.27,0.00,-0.00,-0.00,0.00
2026-06-26 17:58:31.382,994.16,994.17,1.18,1.44,0.00,1.02,0.29,9.27,-0.00,0.00,-0.00,0.00
2026-06-26 17:58:31.384,994.16,994.17,1.18,1.44,0.00,1.02,0.30,9.28,-0.00,0.00,-0.00,0.00
2026-06-26 17:58:31.387,994.16,994.17,1.18,1.44,0.00,1.02,0.30,9.28,-0.00,0.00,-0.00,0.00
2026-06-26 17:58:31.392,994.16,994.17,1.18,1.44,0.00,1.02,0.30,9.28,-0.00,0.00,-0.00,0.00
2026-06-26 17:58:31.393,994.16,994.17,1.18,1.44,0.00,1.01,0.27,9.26,-0.00,0.00,0.00,0.00
2026-06-26 17:58:31.394,994.16,994.17,1.18,1.44,0.00,1.01,0.27,9.26,-0.00,0.00,0.00,0.00
2026-06-26 17:58:31.396,994.16,994.17,1.18,1.44,0.00,1.01,0.27,9.26,-0.00,0.00,0.00,0.00
2026-06-26 17:58:31.397,994.16,994.17,1.18,1.44,0.00,1.01,0.27,9.26,-0.00,0.00,0.00,0.00
2026-06-26 17:58:31.402,994.16,994.17,1.18,1.44,0.00,1.01,0.27,9.26,-0.00,0.00,0.00,0.00
2026-06-26 17:58:31.404,994.16,994.17,1.18,1.44,0.00,1.01,0.28,9.28,-0.00,0.00,0.00,0.00
2026-06-26 17:58:31.406,994.16,994.17,1.18,1.44,0.00,1.01,0.28,9.28,-0.00,0.00,0.00,0.00
2026-06-26 17:58:31.412,994.16,994.17,1.18,1.44,0.00,1.01,0.28,9.28,-0.00,0.00,0.00,0.00
2026-06-26 17:58:31.413,994.16,994.17,1.18,1.44,0.00,1.00,0.29,9.29,-0.00,0.00,0.00,0.00
2026-06-26 17:58:31.414,994.16,994.17,1.18,1.44,0.00,1.00,0.29,9.29,-0.00,0.00,0.00,0.00
2026-06-26 17:58:31.416,994.16,994.17,1.18,1.44,0.00,1.00,0.29,9.29,-0.00,0.00,0.00,0.00
2026-06-26 17:58:31.422,994.16,994.17,1.18,1.44,0.00,1.00,0.29,9.29,-0.00,0.00,0.00,0.00
2026-06-26 17:58:31.424,994.16,994.17,1.18,1.44,0.00,1.01,0.30,9.27,-0.00,0.00,0.00,0.00
2026-06-26 17:58:31.425,994.16,994.17,1.18,1.44,0.00,1.01,0.30,9.27,-0.00,0.00,0.00,0.00
2026-06-26 17:58:31.426,994.16,994.17,1.18,1.44,0.00,1.01,0.30,9.27,-0.00,0.00,0.00,0.00
2026-06-26 17:58:31.472,994.16,994.16,0.75,1.15,0.00,1.03,0.28,9.28,-0.00,-0.00,0.00,0.00
2026-06-26 17:58:31.516,994.16,994.16,0.77,1.16,0.00,1.02,0.30,9.27,0.00,0.00,0.00,0.00
2026-06-26 17:58:31.520,994.16,994.16,0.77,1.16,0.00,1.02,0.30,9.27,0.00,0.00,0.00,0.00
2026-06-26 17:58:31.523,994.16,994.16,0.77,1.16,0.00,1.02,0.30,9.27,0.00,0.00,0.00,0.00
2026-06-26 17:58:31.524,994.16,994.16,0.77,1.16,0.00,1.01,0.27,9.29,0.00,0.00,0.00,0.00
2026-06-26 17:58:31.525,994.16,994.16,0.77,1.16,0.00,1.01,0.27,9.29,0.00,0.00,0.00,0.00
2026-06-26 17:58:31.527,994.16,994.16,0.77,1.16,0.00,1.01,0.27,9.29,0.00,0.00,0.00,0.00
2026-06-26 17:58:31.528,994.16,994.16,0.77,1.16,0.00,1.01,0.27,9.29,0.00,0.00,0.00,0.00
2026-06-26 17:58:31.529,994.16,994.16,0.77,1.16,0.00,1.01,0.27,9.29,0.00,0.00,0.00,0.00
2026-06-26 17:58:31.530,994.16,994.16,0.77,1.16,0.00,1.01,0.27,9.29,0.00,0.00,0.00,0.00
2026-06-26 17:58:31.532,994.16,994.16,0.77,1.16,0.00,1.01,0.27,9.29,-0.00,0.00,0.00,0.00
2026-06-26 17:58:31.534,994.16,994.16,0.77,1.16,0.00,1.04,0.31,9.30,-0.00,0.00,0.00,0.00
2026-06-26 17:58:31.535,994.16,994.16,0.77,1.16,0.00,1.04,0.31,9.30,-0.00,0.00,0.00,0.00
2026-06-26 17:58:31.539,994.16,994.16,0.77,1.16,0.00,1.04,0.31,9.30,-0.00,0.00,0.00,0.00
2026-06-26 17:58:31.544,994.16,994.16,0.77,1.16,0.00,1.04,0.31,9.30,-0.00,0.00,-0.00,0.00
2026-06-26 17:58:31.546,994.16,994.16,0.77,1.16,0.00,1.02,0.29,9.29,-0.00,0.00,-0.00,0.00
2026-06-26 17:58:31.553,994.16,994.16,0.77,1.16,0.00,1.02,0.29,9.29,-0.00,0.00,-0.00,0.00
2026-06-26 17:58:31.559,994.16,994.16,0.77,1.16,0.00,1.01,0.30,9.27,-0.00,0.00,-0.00,0.00
2026-06-26 17:58:31.563,994.16,994.16,0.77,1.16,0.00,1.01,0.30,9.27,-0.00,0.00,-0.00,0.00
2026-06-26 17:58:31.565,994.16,994.16,0.77,1.16,0.00,1.00,0.31,9.28,-0.00,0.00,-0.00,0.00
2026-06-26 17:58:31.567,994.16,994.16,0.77,1.16,0.00,1.00,0.31,9.28,-0.00,0.00,-0.00,0.00
2026-06-26 17:58:31.572,994.16,994.16,0.77,1.16,0.00,1.00,0.31,9.28,-0.00,0.00,-0.00,0.00
2026-06-26 17:58:31.613,994.16,994.16,0.02,0.18,0.00,1.00,0.30,9.27,0.00,0.00,0.00,0.00
2026-06-26 17:58:31.614,994.16,994.16,0.02,0.18,0.00,1.01,0.29,9.25,0.00,0.00,0.00,0.00
2026-06-26 17:58:31.615,994.16,994.16,0.02,0.18,0.00,1.01,0.29,9.25,0.00,0.00,0.00,0.00
2026-06-26 17:58:31.663,994.15,994.16,0.24,0.65,0.00,1.01,0.29,9.27,-0.00,0.00,0.00,0.00
2026-06-26 17:58:31.665,994.15,994.16,0.24,0.65,0.00,1.03,0.28,9.26,-0.00,0.00,0.00,0.00
2026-06-26 17:58:31.668,994.15,994.16,0.24,0.65,0.00,1.03,0.28,9.26,-0.00,0.00,0.00,0.00
2026-06-26 17:58:31.673,994.15,994.16,0.24,0.65,0.00,1.03,0.28,9.26,-0.00,-0.00,-0.00,0.00
2026-06-26 17:58:31.674,994.15,994.16,0.24,0.65,0.00,1.01,0.28,9.27,-0.00,-0.00,-0.00,0.00
2026-06-26 17:58:31.676,994.15,994.16,0.24,0.65,0.00,1.01,0.28,9.27,-0.00,-0.00,-0.00,0.00
2026-06-26 17:58:31.678,994.15,994.16,0.24,0.65,0.00,1.01,0.28,9.27,-0.00,-0.00,-0.00,0.00
2026-06-26 17:58:31.679,994.15,994.16,0.24,0.65,0.00,1.01,0.28,9.27,-0.00,-0.00,-0.00,0.00
2026-06-26 17:58:31.682,994.15,994.16,0.24,0.65,0.00,1.01,0.28,9.27,-0.00,-0.00,-0.00,0.00
2026-06-26 17:58:31.685,994.15,994.16,0.24,0.65,0.00,1.00,0.29,9.28,0.00,0.00,0.00,0.00
2026-06-26 17:58:31.689,994.15,994.16,0.24,0.65,0.00,1.00,0.29,9.28,0.00,0.00,0.00,0.00
2026-06-26 17:58:31.693,994.15,994.16,0.24,0.65,0.00,1.00,0.29,9.28,0.00,0.00,0.00,0.00
2026-06-26 17:58:31.696,994.15,994.16,0.24,0.65,0.00,1.01,0.27,9.28,0.00,0.00,0.00,0.00
2026-06-26 17:58:31.701,994.15,994.16,0.24,0.65,0.00,1.01,0.27,9.28,0.00,0.00,0.00,0.00
2026-06-26 17:58:31.704,994.15,994.16,0.24,0.65,0.00,1.02,0.30,9.27,-0.00,0.00,0.00,0.00
2026-06-26 17:58:31.706,994.15,994.16,0.24,0.65,0.00,1.02,0.30,9.27,-0.00,0.00,0.00,0.00
2026-06-26 17:58:31.710,994.15,994.16,0.24,0.65,0.00,1.02,0.30,9.27,-0.00,0.00,0.00,0.00
2026-06-26 17:58:31.753,994.15,994.15,-0.25,-0.66,0.00,1.00,0.30,9.29,-0.00,0.00,0.00,0.00
2026-06-26 17:58:31.754,994.15,994.15,-0.25,-0.66,0.00,1.00,0.31,9.27,0.00,-0.00,-0.00,0.00
2026-06-26 17:58:31.756,994.15,994.15,-0.25,-0.66,0.00,1.00,0.31,9.27,0.00,-0.00,-0.00,0.00
2026-06-26 17:58:31.757,994.15,994.15,-0.25,-0.66,0.00,1.00,0.31,9.27,0.00,-0.00,-0.00,0.00
2026-06-26 17:58:31.760,994.15,994.15,-0.25,-0.66,0.00,1.00,0.31,9.27,0.00,-0.00,-0.00,0.00
2026-06-26 17:58:31.803,994.15,994.15,0.28,0.71,0.00,1.01,0.29,9.28,-0.00,-0.00,-0.00,0.00
2026-06-26 17:58:31.805,994.15,994.15,0.28,0.71,0.00,1.01,0.29,9.25,-0.00,-0.00,-0.00,0.00
2026-06-26 17:58:31.806,994.15,994.15,0.28,0.71,0.00,1.01,0.29,9.25,-0.00,-0.00,-0.00,0.00
2026-06-26 17:58:31.809,994.15,994.15,0.28,0.71,0.00,1.01,0.29,9.25,-0.00,-0.00,-0.00,0.00
2026-06-26 17:58:31.814,994.15,994.15,0.28,0.71,0.00,1.01,0.29,9.25,0.00,-0.00,0.00,0.00
2026-06-26 17:58:31.815,994.15,994.15,0.28,0.71,0.00,1.01,0.29,9.24,0.00,-0.00,0.00,0.00
2026-06-26 17:58:31.817,994.15,994.15,0.28,0.71,0.00,1.01,0.29,9.24,0.00,-0.00,0.00,0.00
2026-06-26 17:58:31.823,994.15,994.15,0.28,0.71,0.00,1.01,0.29,9.24,0.00,-0.00,0.00,0.00
2026-06-26 17:58:31.826,994.15,994.15,0.28,0.71,0.00,1.01,0.30,9.26,0.00,-0.00,0.00,0.00
2026-06-26 17:58:31.828,994.15,994.15,0.28,0.71,0.00,1.01,0.30,9.26,0.00,-0.00,0.00,0.00
2026-06-26 17:58:31.830,994.15,994.15,0.28,0.71,0.00,1.01,0.30,9.26,0.00,-0.00,0.00,0.00
2026-06-26 17:58:31.834,994.15,994.15,0.28,0.71,0.00,1.02,0.29,9.29,0.00,0.00,0.00,0.00
2026-06-26 17:58:31.836,994.15,994.15,0.28,0.71,0.00,1.02,0.29,9.29,0.00,0.00,0.00,0.00
2026-06-26 17:58:31.837,994.15,994.15,0.28,0.71,0.00,1.02,0.29,9.29,0.00,0.00,0.00,0.00
2026-06-26 17:58:31.843,994.15,994.15,0.28,0.71,0.00,1.02,0.29,9.29,0.00,0.00,0.00,0.00
2026-06-26 17:58:31.844,994.15,994.15,0.28,0.71,0.00,1.03,0.29,9.27,0.00,-0.00,0.00,0.00
2026-06-26 17:58:31.846,994.15,994.15,0.28,0.71,0.00,1.03,0.29,9.27,0.00,-0.00,0.00,0.00
2026-06-26 17:58:31.893,994.15,994.15,0.32,0.75,0.00,1.00,0.28,9.27,0.00,-0.00,-0.00,0.00
2026-06-26 17:58:31.895,994.15,994.15,0.32,0.75,0.00,1.01,0.30,9.27,0.00,-0.00,0.00,0.00
2026-06-26 17:58:31.897,994.15,994.15,0.32,0.75,0.00,1.01,0.30,9.27,0.00,-0.00,0.00,0.00
2026-06-26 17:58:31.903,994.15,994.15,0.32,0.75,0.00,1.01,0.30,9.27,0.00,-0.00,0.00,0.00
2026-06-26 17:58:31.943,994.15,994.15,0.51,0.95,0.00,1.00,0.29,9.27,0.00,-0.00,-0.00,0.00
2026-06-26 17:58:31.945,994.15,994.15,0.51,0.95,0.00,1.03,0.30,9.27,0.00,-0.00,-0.00,0.00
2026-06-26 17:58:31.946,994.15,994.15,0.51,0.95,0.00,1.03,0.30,9.27,0.00,-0.00,-0.00,0.00
2026-06-26 17:58:31.950,994.15,994.15,0.51,0.95,0.00,1.03,0.30,9.27,0.00,-0.00,-0.00,0.00
2026-06-26 17:58:31.954,994.15,994.15,0.51,0.95,0.00,1.03,0.30,9.27,0.00,-0.00,0.00,0.00
2026-06-26 17:58:31.957,994.15,994.15,0.51,0.95,0.00,1.02,0.30,9.27,0.00,-0.00,0.00,0.00
2026-06-26 17:58:31.959,994.15,994.15,0.51,0.95,0.00,1.02,0.30,9.27,0.00,-0.00,0.00,0.00
2026-06-26 17:58:31.963,994.15,994.15,0.51,0.95,0.00,1.02,0.30,9.27,0.00,-0.00,0.00,0.00
2026-06-26 17:58:31.967,994.15,994.15,0.51,0.95,0.00,1.01,0.29,9.28,0.00,-0.00,0.00,0.00
2026-06-26 17:58:31.973,994.15,994.15,0.51,0.95,0.00,1.01,0.29,9.28,0.00,-0.00,0.00,0.00
2026-06-26 17:58:31.975,994.15,994.15,0.51,0.95,0.00,1.03,0.29,9.28,0.00,-0.00,-0.00,0.00
2026-06-26 17:58:31.976,994.15,994.15,0.51,0.95,0.00,1.03,0.29,9.28,0.00,-0.00,-0.00,0.00
2026-06-26 17:58:31.978,994.15,994.15,0.51,0.95,0.00,1.03,0.29,9.28,0.00,-0.00,-0.00,0.00
2026-06-26 17:58:31.979,994.15,994.15,0.51,0.95,0.00,1.03,0.29,9.28,0.00,-0.00,-0.00,0.00
2026-06-26 17:58:31.981,994.15,994.15,0.51,0.95,0.00,1.03,0.29,9.28,0.00,-0.00,-0.00,0.00
2026-06-26 17:58:31.984,994.15,994.15,0.51,0.95,0.00,1.03,0.29,9.28,0.00,-0.00,0.00,0.00
2026-06-26 17:58:31.986,994.15,994.15,0.51,0.95,0.00,1.01,0.30,9.29,0.00,-0.00,0.00,0.00
2026-06-26 17:58:32.033,994.15,994.15,0.32,0.75,0.00,1.01,0.28,9.30,0.00,0.00,0.00,0.00
2026-06-26 17:58:32.035,994.15,994.15,0.32,0.75,0.00,1.02,0.28,9.28,0.00,0.00,0.00,0.00
2026-06-26 17:58:32.037,994.15,994.15,0.32,0.75,0.00,1.02,0.28,9.28,0.00,0.00,0.00,0.00
2026-06-26 17:58:32.039,994.15,994.15,0.32,0.75,0.00,1.02,0.28,9.28,0.00,0.00,0.00,0.00
2026-06-26 17:58:32.043,994.15,994.15,0.32,0.75,0.00,1.02,0.28,9.28,0.00,0.00,0.00,0.00
2026-06-26 17:58:32.086,994.14,994.15,0.89,1.25,0.00,1.03,0.29,9.29,0.00,-0.00,-0.00,0.00
2026-06-26 17:58:32.089,994.14,994.15,0.89,1.25,0.00,1.03,0.29,9.29,0.00,-0.00,-0.00,0.00
2026-06-26 17:58:32.094,994.14,994.15,0.89,1.25,0.00,1.03,0.29,9.29,0.00,-0.00,-0.00,0.00
2026-06-26 17:58:32.096,994.14,994.15,0.89,1.25,0.00,1.02,0.29,9.27,0.00,-0.00,-0.00,0.00
2026-06-26 17:58:32.097,994.14,994.15,0.89,1.25,0.00,1.02,0.29,9.27,0.00,-0.00,-0.00,0.00
2026-06-26 17:58:32.103,994.14,994.15,0.89,1.25,0.00,1.02,0.29,9.27,0.00,-0.00,-0.00,0.00
2026-06-26 17:58:32.105,994.14,994.15,0.89,1.25,0.00,1.01,0.28,9.25,0.00,0.00,-0.00,0.00
2026-06-26 17:58:32.107,994.14,994.15,0.89,1.25,0.00,1.01,0.28,9.25,0.00,0.00,-0.00,0.00
2026-06-26 17:58:32.115,994.14,994.15,0.89,1.25,0.00,1.01,0.28,9.25,0.00,0.00,-0.00,0.00
2026-06-26 17:58:32.123,994.14,994.15,0.89,1.25,0.00,1.01,0.31,9.28,0.00,0.00,-0.00,0.00
2026-06-26 17:58:32.125,994.14,994.15,0.89,1.25,0.00,1.01,0.30,9.29,-0.00,0.00,0.00,0.00
2026-06-26 17:58:32.127,994.14,994.15,0.89,1.25,0.00,1.01,0.30,9.29,-0.00,0.00,0.00,0.00
2026-06-26 17:58:32.129,994.14,994.15,0.89,1.25,0.00,1.01,0.30,9.29,-0.00,0.00,0.00,0.00
2026-06-26 17:58:32.131,994.14,994.15,0.89,1.25,0.00,1.01,0.30,9.29,-0.00,0.00,0.00,0.00
2026-06-26 17:58:32.173,994.14,994.15,0.81,1.19,0.00,1.01,0.31,9.30,-0.00,-0.00,0.00,0.00
2026-06-26 17:58:32.175,994.14,994.15,0.81,1.19,0.00,1.01,0.30,9.27,0.00,0.00,-0.00,0.00
2026-06-26 17:58:32.177,994.14,994.15,0.81,1.19,0.00,1.01,0.30,9.27,0.00,0.00,-0.00,0.00
2026-06-26 17:58:32.178,994.14,994.15,0.81,1.19,0.00,1.01,0.30,9.27,0.00,0.00,-0.00,0.00
2026-06-26 17:58:32.180,994.14,994.15,0.81,1.19,0.00,1.01,0.30,9.27,0.00,0.00,-0.00,0.00
2026-06-26 17:58:32.183,994.14,994.15,0.81,1.19,0.00,1.01,0.30,9.27,0.00,0.00,-0.00,0.00
2026-06-26 17:58:32.185,994.14,994.15,0.81,1.19,0.00,1.02,0.30,9.27,-0.00,0.00,0.00,0.00
2026-06-26 17:58:32.229,994.13,994.15,1.41,1.57,0.00,1.02,0.29,9.27,-0.00,0.00,0.00,0.00
2026-06-26 17:58:32.230,994.13,994.15,1.41,1.57,0.00,1.02,0.29,9.27,-0.00,0.00,0.00,0.00
2026-06-26 17:58:32.234,994.13,994.15,1.41,1.57,0.00,1.02,0.29,9.27,0.00,0.00,0.00,0.00
2026-06-26 17:58:32.236,994.13,994.15,1.41,1.57,0.00,1.01,0.28,9.27,0.00,0.00,0.00,0.00
2026-06-26 17:58:32.237,994.13,994.15,1.41,1.57,0.00,1.01,0.28,9.27,0.00,0.00,0.00,0.00
2026-06-26 17:58:32.242,994.13,994.15,1.41,1.57,0.00,1.01,0.28,9.27,0.00,0.00,0.00,0.00
2026-06-26 17:58:32.244,994.13,994.15,1.41,1.57,0.00,1.01,0.28,9.27,0.00,-0.00,-0.00,0.00
2026-06-26 17:58:32.250,994.13,994.15,1.41,1.57,0.00,1.01,0.28,9.27,0.00,-0.00,-0.00,0.00
2026-06-26 17:58:32.254,994.13,994.15,1.41,1.57,0.00,1.01,0.28,9.27,-0.00,0.00,0.00,0.00
2026-06-26 17:58:32.256,994.13,994.15,1.41,1.57,0.00,1.01,0.29,9.23,-0.00,0.00,0.00,0.00
2026-06-26 17:58:32.257,994.13,994.15,1.41,1.57,0.00,1.01,0.29,9.23,-0.00,0.00,0.00,0.00
2026-06-26 17:58:32.259,994.13,994.15,1.41,1.57,0.00,1.01,0.29,9.23,-0.00,0.00,0.00,0.00
2026-06-26 17:58:32.264,994.13,994.15,1.41,1.57,0.00,1.01,0.29,9.23,-0.00,0.00,-0.00,0.00
2026-06-26 17:58:32.266,994.13,994.15,1.41,1.57,0.00,1.00,0.27,9.27,-0.00,0.00,-0.00,0.00
2026-06-26 17:58:32.267,994.13,994.15,1.41,1.57,0.00,1.00,0.27,9.27,-0.00,0.00,-0.00,0.00
2026-06-26 17:58:32.272,994.13,994.15,1.41,1.57,0.00,1.00,0.27,9.27,-0.00,0.00,-0.00,0.00
2026-06-26 17:58:32.315,994.13,994.14,0.95,1.29,0.00,1.03,0.30,9.29,0.00,-0.00,-0.00,0.00
2026-06-26 17:58:32.316,994.13,994.14,0.95,1.29,0.00,1.03,0.30,9.29,0.00,-0.00,-0.00,0.00
2026-06-26 17:58:32.318,994.13,994.14,0.95,1.29,0.00,1.03,0.30,9.29,0.00,-0.00,-0.00,0.00
2026-06-26 17:58:32.324,994.13,994.14,0.95,1.29,0.00,1.03,0.30,9.29,0.00,-0.00,-0.00,0.00
2026-06-26 17:58:32.326,994.13,994.14,0.95,1.29,0.00,1.02,0.29,9.32,0.00,-0.00,0.00,0.00
2026-06-26 17:58:32.327,994.13,994.14,0.95,1.29,0.00,1.02,0.29,9.32,0.00,-0.00,0.00,0.00
2026-06-26 17:58:32.374,994.14,994.14,0.79,1.18,0.00,1.01,0.31,9.25,0.00,0.00,0.00,0.00
2026-06-26 17:58:32.375,994.14,994.14,0.79,1.18,0.00,1.02,0.30,9.30,0.00,-0.00,-0.00,0.00
2026-06-26 17:58:32.377,994.14,994.14,0.79,1.18,0.00,1.02,0.30,9.30,0.00,-0.00,-0.00,0.00
2026-06-26 17:58:32.378,994.14,994.14,0.79,1.18,0.00,1.02,0.30,9.30,0.00,-0.00,-0.00,0.00
2026-06-26 17:58:32.380,994.14,994.14,0.79,1.18,0.00,1.02,0.30,9.30,0.00,-0.00,-0.00,0.00
2026-06-26 17:58:32.381,994.14,994.14,0.79,1.18,0.00,1.02,0.30,9.30,0.00,-0.00,-0.00,0.00
2026-06-26 17:58:32.384,994.14,994.14,0.79,1.18,0.00,1.02,0.30,9.30,-0.00,-0.00,-0.00,0.00
2026-06-26 17:58:32.386,994.14,994.14,0.79,1.18,0.00,1.04,0.30,9.28,-0.00,-0.00,-0.00,0.00
2026-06-26 17:58:32.387,994.14,994.14,0.79,1.18,0.00,1.04,0.30,9.28,-0.00,-0.00,-0.00,0.00
2026-06-26 17:58:32.394,994.14,994.14,0.79,1.18,0.00,1.04,0.30,9.28,-0.00,-0.00,-0.00,0.00
2026-06-26 17:58:32.397,994.14,994.14,0.79,1.18,0.00,1.02,0.31,9.27,-0.00,-0.00,0.00,0.00
2026-06-26 17:58:32.404,994.14,994.14,0.79,1.18,0.00,1.02,0.31,9.27,-0.00,-0.00,0.00,0.00
2026-06-26 17:58:32.407,994.14,994.14,0.79,1.18,0.00,1.02,0.30,9.27,-0.00,-0.00,-0.00,0.00
2026-06-26 17:58:32.414,994.14,994.14,0.79,1.18,0.00,1.02,0.30,9.27,-0.00,-0.00,-0.00,0.00
2026-06-26 17:58:32.454,994.14,994.14,0.33,0.76,0.00,1.01,0.30,9.30,-0.00,-0.00,0.00,0.00
2026-06-26 17:58:32.456,994.14,994.14,0.33,0.76,0.00,1.00,0.32,9.24,-0.00,-0.00,0.00,0.00
2026-06-26 17:58:32.458,994.14,994.14,0.33,0.76,0.00,1.00,0.32,9.24,-0.00,-0.00,0.00,0.00
2026-06-26 17:58:32.459,994.14,994.14,0.33,0.76,0.00,1.00,0.32,9.24,-0.00,-0.00,0.00,0.00
2026-06-26 17:58:32.464,994.14,994.14,0.33,0.76,0.00,1.00,0.32,9.24,-0.00,0.00,0.00,0.00
2026-06-26 17:58:32.466,994.14,994.14,0.33,0.76,0.00,1.01,0.28,9.26,-0.00,0.00,0.00,0.00
2026-06-26 17:58:32.468,994.14,994.14,0.33,0.76,0.00,1.01,0.28,9.26,-0.00,0.00,0.00,0.00
2026-06-26 17:58:32.474,994.14,994.14,0.33,0.76,0.00,1.01,0.28,9.26,-0.00,0.00,0.00,0.00
2026-06-26 17:58:32.517,994.14,994.14,0.35,0.78,0.00,1.01,0.28,9.28,0.00,-0.00,-0.00,0.00
2026-06-26 17:58:32.523,994.14,994.14,0.35,0.78,0.00,1.01,0.28,9.28,0.00,-0.00,-0.00,0.00
2026-06-26 17:58:32.525,994.14,994.14,0.35,0.78,0.00,1.01,0.27,9.28,0.00,-0.00,0.00,0.00
2026-06-26 17:58:32.527,994.14,994.14,0.35,0.78,0.00,1.01,0.27,9.28,0.00,-0.00,0.00,0.00
2026-06-26 17:58:32.528,994.14,994.14,0.35,0.78,0.00,1.01,0.27,9.28,0.00,-0.00,0.00,0.00
2026-06-26 17:58:32.530,994.14,994.14,0.35,0.78,0.00,1.01,0.27,9.28,0.00,-0.00,0.00,0.00
2026-06-26 17:58:32.532,994.14,994.14,0.35,0.78,0.00,1.01,0.27,9.28,0.00,-0.00,0.00,0.00
2026-06-26 17:58:32.535,994.14,994.14,0.35,0.78,0.00,1.01,0.27,9.28,0.00,-0.00,0.00,0.00
2026-06-26 17:58:32.537,994.14,994.14,0.35,0.78,0.00,1.01,0.29,9.28,0.00,-0.00,0.00,0.00
2026-06-26 17:58:32.541,994.14,994.14,0.35,0.78,0.00,1.01,0.29,9.28,0.00,-0.00,0.00,0.00
2026-06-26 17:58:32.545,994.14,994.14,0.35,0.78,0.00,1.01,0.29,9.28,-0.00,-0.00,0.00,0.00
2026-06-26 17:58:32.546,994.14,994.14,0.35,0.78,0.00,1.02,0.29,9.28,-0.00,-0.00,0.00,0.00
2026-06-26 17:58:32.548,994.14,994.14,0.35,0.78,0.00,1.02,0.29,9.28,-0.00,-0.00,0.00,0.00
2026-06-26 17:58:32.555,994.14,994.14,0.35,0.78,0.00,1.02,0.29,9.28,0.00,-0.00,-0.00,0.00
2026-06-26 17:58:32.604,994.14,994.14,0.32,0.75,0.00,1.01,0.30,9.28,0.00,-0.00,0.00,0.00
2026-06-26 17:58:32.606,994.14,994.14,0.32,0.75,0.00,1.02,0.29,9.26,0.00,0.00,0.00,0.00
2026-06-26 17:58:32.608,994.14,994.14,0.32,0.75,0.00,1.02,0.29,9.26,0.00,0.00,0.00,0.00
2026-06-26 17:58:32.614,994.14,994.14,0.32,0.75,0.00,1.02,0.29,9.26,0.00,0.00,0.00,0.00
2026-06-26 17:58:32.622,994.14,994.14,0.32,0.75,0.00,1.00,0.31,9.29,-0.00,0.00,0.00,0.00
2026-06-26 17:58:32.665,994.14,994.14,0.19,0.58,0.00,1.01,0.28,9.28,0.00,0.00,0.00,0.00
2026-06-26 17:58:32.667,994.14,994.14,0.19,0.58,0.00,1.01,0.28,9.28,0.00,0.00,0.00,0.00
2026-06-26 17:58:32.668,994.14,994.14,0.19,0.58,0.00,1.01,0.28,9.28,0.00,0.00,0.00,0.00
2026-06-26 17:58:32.674,994.14,994.14,0.19,0.58,0.00,1.01,0.28,9.28,0.00,0.00,0.00,0.00
2026-06-26 17:58:32.675,994.14,994.14,0.19,0.58,0.00,1.00,0.29,9.27,-0.00,0.00,-0.00,0.00
2026-06-26 17:58:32.677,994.14,994.14,0.19,0.58,0.00,1.00,0.29,9.27,-0.00,0.00,-0.00,0.00
2026-06-26 17:58:32.678,994.14,994.14,0.19,0.58,0.00,1.00,0.29,9.27,-0.00,0.00,-0.00,0.00
2026-06-26 17:58:32.680,994.14,994.14,0.19,0.58,0.00,1.00,0.29,9.27,-0.00,0.00,-0.00,0.00
2026-06-26 17:58:32.682,994.14,994.14,0.19,0.58,0.00,1.00,0.29,9.27,-0.00,0.00,-0.00,0.00
2026-06-26 17:58:32.685,994.14,994.14,0.19,0.58,0.00,1.00,0.29,9.27,0.00,-0.00,0.00,0.00
2026-06-26 17:58:32.687,994.14,994.14,0.19,0.58,0.00,1.02,0.30,9.29,0.00,-0.00,0.00,0.00
2026-06-26 17:58:32.689,994.14,994.14,0.19,0.58,0.00,1.02,0.30,9.29,0.00,-0.00,0.00,0.00
2026-06-26 17:58:32.694,994.14,994.14,0.19,0.58,0.00,1.02,0.30,9.29,0.00,-0.00,0.00,0.00
2026-06-26 17:58:32.696,994.14,994.14,0.19,0.58,0.00,1.03,0.30,9.27,0.00,-0.00,0.00,0.00
2026-06-26 17:58:32.697,994.14,994.14,0.19,0.58,0.00,1.03,0.30,9.27,0.00,-0.00,0.00,0.00
2026-06-26 17:58:32.704,994.14,994.14,0.19,0.58,0.00,1.03,0.30,9.27,0.00,-0.00,0.00,0.00
2026-06-26 17:58:32.745,994.14,994.14,0.45,0.89,0.00,1.00,0.31,9.30,0.00,-0.00,-0.00,0.00
2026-06-26 17:58:32.747,994.14,994.14,0.45,0.89,0.00,1.02,0.29,9.28,0.00,-0.00,-0.00,0.00
2026-06-26 17:58:32.749,994.14,994.14,0.45,0.89,0.00,1.02,0.29,9.28,0.00,-0.00,-0.00,0.00
2026-06-26 17:58:32.755,994.14,994.14,0.45,0.89,0.00,1.02,0.29,9.28,0.00,-0.00,-0.00,0.00
2026-06-26 17:58:32.757,994.14,994.14,0.45,0.89,0.00,1.01,0.31,9.27,0.00,-0.00,-0.00,0.00
2026-06-26 17:58:32.759,994.14,994.14,0.45,0.89,0.00,1.01,0.31,9.27,0.00,-0.00,-0.00,0.00
2026-06-26 17:58:32.765,994.14,994.14,0.45,0.89,0.00,1.01,0.31,9.27,0.00,-0.00,-0.00,0.00
2026-06-26 17:58:32.807,994.14,994.14,0.56,0.99,0.00,1.00,0.28,9.29,0.00,-0.00,-0.00,0.00
2026-06-26 17:58:32.809,994.14,994.14,0.56,0.99,0.00,1.00,0.28,9.29,0.00,-0.00,-0.00,0.00
2026-06-26 17:58:32.815,994.14,994.14,0.56,0.99,0.00,1.00,0.28,9.29,0.00,-0.00,-0.00,0.00
2026-06-26 17:58:32.817,994.14,994.14,0.56,0.99,0.00,1.01,0.30,9.28,0.00,-0.00,-0.00,0.00
2026-06-26 17:58:32.821,994.14,994.14,0.56,0.99,0.00,1.01,0.30,9.28,0.00,-0.00,-0.00,0.00
2026-06-26 17:58:32.827,994.14,994.14,0.56,0.99,0.00,1.01,0.30,9.28,-0.00,0.00,-0.00,0.00
2026-06-26 17:58:32.829,994.14,994.14,0.56,0.99,0.00,1.00,0.29,9.26,-0.00,0.00,-0.00,0.00
2026-06-26 17:58:32.832,994.14,994.14,0.56,0.99,0.00,1.00,0.29,9.26,-0.00,0.00,-0.00,0.00
2026-06-26 17:58:32.835,994.14,994.14,0.56,0.99,0.00,1.00,0.29,9.26,0.00,0.00,-0.00,0.00
2026-06-26 17:58:32.837,994.14,994.14,0.56,0.99,0.00,1.01,0.30,9.27,0.00,0.00,-0.00,0.00
2026-06-26 17:58:32.839,994.14,994.14,0.56,0.99,0.00,1.01,0.30,9.27,0.00,0.00,-0.00,0.00
2026-06-26 17:58:32.844,994.14,994.14,0.56,0.99,0.00,1.01,0.30,9.27,0.00,0.00,-0.00,0.00
2026-06-26 17:58:32.887,994.14,994.14,0.74,1.14,0.00,1.01,0.31,9.29,-0.00,0.01,0.00,0.00
2026-06-26 17:58:32.889,994.14,994.14,0.74,1.14,0.00,1.01,0.31,9.29,-0.00,0.01,0.00,0.00
2026-06-26 17:58:32.895,994.14,994.14,0.74,1.14,0.00,1.01,0.31,9.29,-0.00,0.01,0.00,0.00
2026-06-26 17:58:32.899,994.14,994.14,0.74,1.14,0.00,1.01,0.30,9.31,0.00,0.00,0.00,0.00
2026-06-26 17:58:32.905,994.14,994.14,0.74,1.14,0.00,1.01,0.30,9.31,0.00,0.00,0.00,0.00
2026-06-26 17:58:32.907,994.14,994.14,0.74,1.14,0.00,1.01,0.29,9.27,0.00,-0.00,0.00,0.00
2026-06-26 17:58:32.946,994.13,994.14,1.16,1.43,0.00,1.00,0.28,9.27,-0.00,0.00,0.00,0.00
2026-06-26 17:58:32.947,994.13,994.14,1.16,1.43,0.00,1.00,0.28,9.27,-0.00,0.00,0.00,0.00
2026-06-26 17:58:32.949,994.13,994.14,1.16,1.43,0.00,1.00,0.28,9.27,-0.00,0.00,0.00,0.00
2026-06-26 17:58:32.954,994.13,994.14,1.16,1.43,0.00,1.00,0.28,9.27,-0.00,0.00,0.00,0.00
2026-06-26 17:58:32.956,994.13,994.14,1.16,1.43,0.00,1.02,0.29,9.28,0.00,-0.00,0.00,0.00
2026-06-26 17:58:32.957,994.13,994.14,1.16,1.43,0.00,1.02,0.29,9.28,0.00,-0.00,0.00,0.00
2026-06-26 17:58:32.959,994.13,994.14,1.16,1.43,0.00,1.02,0.29,9.28,0.00,-0.00,0.00,0.00
2026-06-26 17:58:32.962,994.13,994.14,1.16,1.43,0.00,1.02,0.29,9.28,0.00,-0.00,0.00,0.00
2026-06-26 17:58:32.966,994.13,994.14,1.16,1.43,0.00,1.02,0.29,9.28,0.00,0.00,0.00,0.00
2026-06-26 17:58:32.968,994.13,994.14,1.16,1.43,0.00,1.01,0.29,9.27,0.00,0.00,0.00,0.00
2026-06-26 17:58:32.972,994.13,994.14,1.16,1.43,0.00,1.01,0.29,9.27,0.00,0.00,0.00,0.00
2026-06-26 17:58:32.976,994.13,994.14,1.16,1.43,0.00,1.01,0.29,9.27,0.00,-0.00,-0.00,0.00
2026-06-26 17:58:32.980,994.13,994.14,1.16,1.43,0.00,1.03,0.30,9.27,0.00,-0.00,-0.00,0.00
2026-06-26 17:58:32.981,994.13,994.14,1.16,1.43,0.00,1.03,0.30,9.27,0.00,-0.00,-0.00,0.00
2026-06-26 17:58:32.985,994.13,994.14,1.16,1.43,0.00,1.03,0.30,9.27,0.00,-0.00,0.00,0.00
2026-06-26 17:58:33.028,994.13,994.14,0.50,0.94,0.00,1.02,0.29,9.27,-0.00,0.00,0.00,0.00
2026-06-26 17:58:33.029,994.13,994.14,0.50,0.94,0.00,1.02,0.29,9.27,-0.00,0.00,0.00,0.00
2026-06-26 17:58:33.031,994.13,994.14,0.50,0.94,0.00,1.02,0.29,9.27,-0.00,0.00,0.00,0.00
2026-06-26 17:58:33.035,994.13,994.14,0.50,0.94,0.00,1.02,0.29,9.27,-0.00,0.00,0.00,0.00
2026-06-26 17:58:33.037,994.13,994.14,0.50,0.94,0.00,1.02,0.30,9.29,-0.00,0.01,-0.00,0.00
2026-06-26 17:58:33.043,994.13,994.14,0.50,0.94,0.00,1.02,0.30,9.29,-0.00,0.01,-0.00,0.00
2026-06-26 17:58:33.084,994.13,994.14,0.76,1.15,0.00,1.01,0.29,9.27,0.00,0.00,-0.00,0.00
2026-06-26 17:58:33.086,994.13,994.14,0.76,1.15,0.00,1.01,0.31,9.29,0.00,0.00,0.00,0.00
2026-06-26 17:58:33.088,994.13,994.14,0.76,1.15,0.00,1.01,0.31,9.29,0.00,0.00,0.00,0.00
2026-06-26 17:58:33.089,994.13,994.14,0.76,1.15,0.00,1.01,0.31,9.29,0.00,0.00,0.00,0.00
2026-06-26 17:58:33.095,994.13,994.14,0.76,1.15,0.00,1.01,0.31,9.29,0.00,0.00,0.00,0.00
2026-06-26 17:58:33.097,994.13,994.14,0.76,1.15,0.00,1.04,0.29,9.28,0.00,-0.00,0.00,0.00
2026-06-26 17:58:33.099,994.13,994.14,0.76,1.15,0.00,1.04,0.29,9.28,0.00,-0.00,0.00,0.00
2026-06-26 17:58:33.104,994.13,994.14,0.76,1.15,0.00,1.04,0.29,9.28,0.00,-0.00,0.00,0.00
2026-06-26 17:58:33.107,994.13,994.14,0.76,1.15,0.00,1.02,0.30,9.24,-0.00,0.00,0.00,0.00
2026-06-26 17:58:33.112,994.13,994.14,0.76,1.15,0.00,1.02,0.30,9.24,-0.00,0.00,0.00,0.00
2026-06-26 17:58:33.117,994.13,994.14,0.76,1.15,0.00,1.03,0.29,9.26,0.00,0.00,0.00,0.00
2026-06-26 17:58:33.118,994.13,994.14,0.76,1.15,0.00,1.03,0.29,9.26,0.00,0.00,0.00,0.00
2026-06-26 17:58:33.122,994.13,994.14,0.76,1.15,0.00,1.03,0.29,9.26,0.00,0.00,0.00,0.00
2026-06-26 17:58:33.126,994.13,994.14,0.76,1.15,0.00,1.03,0.29,9.26,0.00,-0.00,0.00,0.00
2026-06-26 17:58:33.168,994.13,994.14,0.87,1.24,0.00,1.01,0.29,9.28,0.00,-0.00,0.00,0.00
2026-06-26 17:58:33.172,994.13,994.14,0.87,1.24,0.00,1.01,0.29,9.28,0.00,-0.00,0.00,0.00
2026-06-26 17:58:33.176,994.13,994.14,0.87,1.24,0.00,1.01,0.29,9.28,0.00,0.00,0.00,0.00
2026-06-26 17:58:33.178,994.13,994.14,0.87,1.24,0.00,0.98,0.28,9.27,0.00,0.00,0.00,0.00
2026-06-26 17:58:33.179,994.13,994.14,0.87,1.24,0.00,0.98,0.28,9.27,0.00,0.00,0.00,0.00
2026-06-26 17:58:33.181,994.13,994.14,0.87,1.24,0.00,0.98,0.28,9.27,0.00,0.00,0.00,0.00
2026-06-26 17:58:33.226,994.13,994.14,0.95,1.29,0.00,1.00,0.31,9.25,-0.00,0.00,0.00,0.00
2026-06-26 17:58:33.228,994.13,994.14,0.95,1.29,0.00,1.01,0.29,9.26,-0.00,0.00,0.00,0.00
2026-06-26 17:58:33.232,994.13,994.14,0.95,1.29,0.00,1.01,0.29,9.26,-0.00,0.00,0.00,0.00
2026-06-26 17:58:33.236,994.13,994.14,0.95,1.29,0.00,1.01,0.29,9.26,0.00,-0.00,-0.00,0.00
2026-06-26 17:58:33.238,994.13,994.14,0.95,1.29,0.00,1.02,0.29,9.28,0.00,-0.00,-0.00,0.00
2026-06-26 17:58:33.242,994.13,994.14,0.95,1.29,0.00,1.02,0.29,9.28,0.00,-0.00,-0.00,0.00
2026-06-26 17:58:33.246,994.13,994.14,0.95,1.29,0.00,1.02,0.29,9.28,0.00,0.00,0.00,0.00
2026-06-26 17:58:33.248,994.13,994.14,0.95,1.29,0.00,1.01,0.28,9.25,0.00,0.00,0.00,0.00
2026-06-26 17:58:33.256,994.13,994.14,0.95,1.29,0.00,1.01,0.28,9.25,0.00,0.00,0.00,0.00
2026-06-26 17:58:33.266,994.13,994.14,0.95,1.29,0.00,1.00,0.30,9.27,-0.00,0.00,0.00,0.00
2026-06-26 17:58:33.268,994.13,994.14,0.95,1.29,0.00,1.00,0.31,9.29,0.00,0.00,0.00,0.00
2026-06-26 17:58:33.315,994.13,994.14,1.28,1.50,0.00,1.01,0.30,9.25,0.00,0.00,0.00,0.00
2026-06-26 17:58:33.317,994.13,994.14,1.28,1.50,0.00,1.01,0.28,9.27,-0.00,0.00,-0.00,0.00
2026-06-26 17:58:33.319,994.13,994.14,1.28,1.50,0.00,1.01,0.28,9.27,-0.00,0.00,-0.00,0.00
2026-06-26 17:58:33.324,994.13,994.14,1.28,1.50,0.00,1.01,0.28,9.27,-0.00,0.00,-0.00,0.00
2026-06-26 17:58:33.368,994.13,994.14,1.02,1.34,0.00,1.02,0.30,9.26,0.00,-0.00,0.00,0.00
2026-06-26 17:58:33.369,994.13,994.14,1.02,1.34,0.00,1.02,0.30,9.26,0.00,-0.00,0.00,0.00
2026-06-26 17:58:33.375,994.13,994.14,1.02,1.34,0.00,1.02,0.30,9.26,0.00,-0.00,0.00,0.00
2026-06-26 17:58:33.377,994.13,994.14,1.02,1.34,0.00,1.02,0.28,9.28,0.00,-0.00,0.00,0.00
2026-06-26 17:58:33.378,994.13,994.14,1.02,1.34,0.00,1.02,0.28,9.28,0.00,-0.00,0.00,0.00
2026-06-26 17:58:33.380,994.13,994.14,1.02,1.34,0.00,1.02,0.28,9.28,0.00,-0.00,0.00,0.00
2026-06-26 17:58:33.381,994.13,994.14,1.02,1.34,0.00,1.02,0.28,9.28,0.00,-0.00,0.00,0.00
2026-06-26 17:58:33.383,994.13,994.14,1.02,1.34,0.00,1.02,0.28,9.28,0.00,-0.00,0.00,0.00
2026-06-26 17:58:33.386,994.13,994.14,1.02,1.34,0.00,1.02,0.28,9.28,0.00,-0.00,0.00,0.00
2026-06-26 17:58:33.388,994.13,994.14,1.02,1.34,0.00,1.01,0.30,9.27,0.00,-0.00,0.00,0.00
2026-06-26 17:58:33.389,994.13,994.14,1.02,1.34,0.00,1.01,0.30,9.27,0.00,-0.00,0.00,0.00
2026-06-26 17:58:33.394,994.13,994.14,1.02,1.34,0.00,1.01,0.30,9.27,0.00,-0.00,0.00,0.00
2026-06-26 17:58:33.418,994.13,994.14,1.02,1.34,0.00,0.98,0.30,9.25,0.00,-0.00,0.00,0.00
2026-06-26 17:58:33.465,994.13,994.14,1.36,1.54,0.00,1.01,0.33,9.26,0.00,0.00,0.00,0.00
2026-06-26 17:58:33.467,994.13,994.14,1.36,1.54,0.00,1.01,0.31,9.27,0.00,0.00,0.00,0.00
2026-06-26 17:58:33.509,994.13,994.14,1.54,1.65,0.00,1.01,0.31,9.24,0.00,0.00,0.00,0.00
2026-06-26 17:58:33.511,994.13,994.14,1.54,1.65,0.00,1.01,0.31,9.24,0.00,0.00,0.00,0.00
2026-06-26 17:58:33.516,994.13,994.14,1.54,1.65,0.00,1.01,0.31,9.24,0.00,0.00,0.00,0.00
2026-06-26 17:58:33.517,994.13,994.14,1.54,1.65,0.00,1.03,0.30,9.27,0.00,0.00,0.00,0.00
2026-06-26 17:58:33.519,994.13,994.14,1.54,1.65,0.00,1.03,0.30,9.27,0.00,0.00,0.00,0.00
2026-06-26 17:58:33.521,994.13,994.14,1.54,1.65,0.00,1.03,0.30,9.27,0.00,0.00,0.00,0.00
2026-06-26 17:58:33.526,994.13,994.14,1.54,1.65,0.00,1.03,0.30,9.27,0.00,0.00,0.00,0.00
2026-06-26 17:58:33.529,994.13,994.14,1.54,1.65,0.00,1.00,0.30,9.31,0.00,0.00,0.00,0.00
2026-06-26 17:58:33.531,994.13,994.14,1.54,1.65,0.00,1.00,0.30,9.31,0.00,0.00,0.00,0.00
2026-06-26 17:58:33.533,994.13,994.14,1.54,1.65,0.00,1.00,0.30,9.31,0.00,0.00,0.00,0.00
2026-06-26 17:58:33.537,994.13,994.14,1.54,1.65,0.00,1.00,0.30,9.31,0.00,0.00,0.00,0.00
2026-06-26 17:58:33.539,994.13,994.14,1.54,1.65,0.00,1.01,0.28,9.29,0.00,0.00,0.00,0.00
2026-06-26 17:58:33.545,994.13,994.14,1.54,1.65,0.00,1.01,0.28,9.29,0.00,0.00,0.00,0.00
2026-06-26 17:58:33.547,994.13,994.14,1.54,1.65,0.00,1.02,0.30,9.28,0.00,-0.00,-0.00,0.00
2026-06-26 17:58:33.549,994.13,994.14,1.54,1.65,0.00,1.02,0.30,9.28,0.00,-0.00,-0.00,0.00
2026-06-26 17:58:33.556,994.13,994.14,1.54,1.65,0.00,1.02,0.30,9.28,0.00,-0.00,-0.00,0.00
2026-06-26 17:58:33.559,994.13,994.14,1.54,1.65,0.00,1.03,0.30,9.25,0.00,0.00,0.00,0.00
2026-06-26 17:58:33.599,994.13,994.14,1.38,1.56,0.00,1.02,0.29,9.25,0.00,0.00,0.00,0.00
2026-06-26 17:58:33.605,994.13,994.14,1.38,1.56,0.00,1.02,0.29,9.25,0.00,0.00,0.00,0.00
2026-06-26 17:58:33.608,994.13,994.14,1.38,1.56,0.00,1.01,0.28,9.28,0.00,0.00,0.00,0.00
2026-06-26 17:58:33.650,994.13,994.14,1.19,1.44,0.00,1.01,0.31,9.28,0.00,-0.00,0.00,0.00
2026-06-26 17:58:33.656,994.13,994.14,1.19,1.44,0.00,1.01,0.31,9.28,0.00,-0.00,0.00,0.00
2026-06-26 17:58:33.660,994.13,994.14,1.19,1.44,0.00,1.00,0.28,9.27,0.00,0.00,0.00,0.00
2026-06-26 17:58:33.666,994.13,994.14,1.19,1.44,0.00,1.00,0.28,9.27,0.00,0.00,0.00,0.00
2026-06-26 17:58:33.667,994.13,994.14,1.19,1.44,0.00,1.01,0.29,9.27,0.00,0.00,0.00,0.00
2026-06-26 17:58:33.669,994.13,994.14,1.19,1.44,0.00,1.01,0.29,9.27,0.00,0.00,0.00,0.00
2026-06-26 17:58:33.671,994.13,994.14,1.19,1.44,0.00,1.01,0.29,9.27,0.00,0.00,0.00,0.00
2026-06-26 17:58:33.677,994.13,994.14,1.19,1.44,0.00,1.01,0.29,9.27,0.00,0.00,0.00,0.00
2026-06-26 17:58:33.678,994.13,994.14,1.19,1.44,0.00,1.02,0.30,9.29,0.00,-0.00,0.00,0.00
2026-06-26 17:58:33.680,994.13,994.14,1.19,1.44,0.00,1.02,0.30,9.29,0.00,-0.00,0.00,0.00
2026-06-26 17:58:33.681,994.13,994.14,1.19,1.44,0.00,1.02,0.30,9.29,0.00,-0.00,0.00,0.00
2026-06-26 17:58:33.682,994.13,994.14,1.19,1.44,0.00,1.02,0.30,9.29,0.00,-0.00,0.00,0.00
2026-06-26 17:58:33.684,994.13,994.14,1.19,1.44,0.00,1.02,0.30,9.29,0.00,-0.00,0.00,0.00
2026-06-26 17:58:33.687,994.13,994.14,1.19,1.44,0.00,1.02,0.30,9.29,0.00,0.00,-0.00,0.00
2026-06-26 17:58:33.688,994.13,994.14,1.19,1.44,0.00,1.01,0.30,9.27,0.00,0.00,-0.00,0.00
2026-06-26 17:58:33.691,994.13,994.14,1.19,1.44,0.00,1.01,0.30,9.27,0.00,0.00,-0.00,0.00
2026-06-26 17:58:33.697,994.13,994.14,1.19,1.44,0.00,1.01,0.30,9.27,0.00,0.00,0.00,0.00
2026-06-26 17:58:33.738,994.13,994.14,1.41,1.57,0.00,1.01,0.29,9.27,0.00,-0.00,-0.00,0.00
2026-06-26 17:58:33.740,994.13,994.14,1.41,1.57,0.00,1.01,0.29,9.27,0.00,-0.00,-0.00,0.00
2026-06-26 17:58:33.746,994.13,994.14,1.41,1.57,0.00,1.01,0.29,9.27,0.00,-0.00,-0.00,0.00
2026-06-26 17:58:33.747,994.13,994.14,1.41,1.57,0.00,1.01,0.29,9.28,0.00,-0.00,-0.00,0.00
2026-06-26 17:58:33.749,994.13,994.14,1.41,1.57,0.00,1.01,0.29,9.28,0.00,-0.00,-0.00,0.00
2026-06-26 17:58:33.794,994.13,994.14,1.07,1.37,0.00,1.00,0.30,9.29,0.00,0.00,0.00,0.00
2026-06-26 17:58:33.797,994.13,994.14,1.07,1.37,0.00,1.00,0.30,9.29,0.00,0.00,-0.00,0.00
2026-06-26 17:58:33.799,994.13,994.14,1.07,1.37,0.00,1.02,0.28,9.27,0.00,0.00,-0.00,0.00
2026-06-26 17:58:33.800,994.13,994.14,1.07,1.37,0.00,1.02,0.28,9.27,0.00,0.00,-0.00,0.00
2026-06-26 17:58:33.807,994.13,994.14,1.07,1.37,0.00,1.02,0.28,9.27,0.00,0.00,-0.00,0.00
2026-06-26 17:58:33.809,994.13,994.14,1.07,1.37,0.00,1.01,0.29,9.28,-0.00,0.00,0.00,0.00
2026-06-26 17:58:33.814,994.13,994.14,1.07,1.37,0.00,1.01,0.29,9.28,-0.00,0.00,0.00,0.00
2026-06-26 17:58:33.817,994.13,994.14,1.07,1.37,0.00,1.01,0.29,9.28,0.00,-0.00,-0.00,0.00
2026-06-26 17:58:33.819,994.13,994.14,1.07,1.37,0.00,1.01,0.28,9.26,0.00,-0.00,-0.00,0.00
2026-06-26 17:58:33.823,994.13,994.14,1.07,1.37,0.00,1.01,0.28,9.26,0.00,-0.00,-0.00,0.00
2026-06-26 17:58:33.828,994.13,994.14,1.07,1.37,0.00,1.01,0.28,9.26,0.00,0.00,-0.00,0.00
2026-06-26 17:58:33.830,994.13,994.14,1.07,1.37,0.00,1.02,0.27,9.29,0.00,0.00,-0.00,0.00
2026-06-26 17:58:33.832,994.13,994.14,1.07,1.37,0.00,1.02,0.27,9.29,0.00,0.00,-0.00,0.00
2026-06-26 17:58:33.834,994.13,994.14,1.07,1.37,0.00,1.02,0.27,9.29,0.00,0.00,-0.00,0.00
2026-06-26 17:58:33.838,994.13,994.14,1.07,1.37,0.00,1.02,0.27,9.29,0.00,0.00,-0.00,0.00
2026-06-26 17:58:33.946,994.13,994.14,0.46,0.90,0.00,1.05,0.29,9.25,0.00,0.00,-0.00,0.00
2026-06-26 17:58:33.948,994.13,994.14,0.46,0.90,0.00,1.03,0.30,9.27,0.00,0.00,0.00,0.00
2026-06-26 17:58:33.949,994.13,994.14,0.46,0.90,0.00,1.03,0.30,9.27,0.00,0.00,0.00,0.00
2026-06-26 17:58:33.950,994.13,994.14,0.46,0.90,0.00,1.03,0.30,9.27,0.00,0.00,0.00,0.00
2026-06-26 17:58:33.952,994.13,994.14,0.46,0.90,0.00,1.03,0.30,9.27,0.00,0.00,0.00,0.00
2026-06-26 17:58:33.957,994.13,994.14,0.46,0.90,0.00,1.03,0.30,9.27,0.00,0.00,0.00,0.00
2026-06-26 17:58:33.958,994.13,994.14,0.46,0.90,0.00,1.01,0.31,9.27,0.00,0.00,0.00,0.00
2026-06-26 17:58:33.959,994.13,994.14,0.46,0.90,0.00,1.01,0.31,9.27,0.00,0.00,0.00,0.00
2026-06-26 17:58:33.961,994.13,994.14,0.46,0.90,0.00,1.01,0.31,9.27,0.00,0.00,0.00,0.00
2026-06-26 17:58:33.962,994.13,994.14,0.46,0.90,0.00,1.01,0.31,9.27,0.00,0.00,0.00,0.00
2026-06-26 17:58:33.968,994.13,994.14,0.46,0.90,0.00,1.01,0.31,9.27,0.00,0.00,0.00,0.00
2026-06-26 17:58:33.970,994.13,994.14,0.46,0.90,0.00,1.01,0.29,9.28,0.00,0.00,-0.00,0.00
2026-06-26 17:58:33.971,994.13,994.14,0.46,0.90,0.00,1.01,0.29,9.28,0.00,0.00,-0.00,0.00
2026-06-26 17:58:33.976,994.13,994.14,0.46,0.90,0.00,1.01,0.29,9.28,0.00,0.00,-0.00,0.00
2026-06-26 17:58:33.978,994.13,994.14,0.46,0.90,0.00,1.02,0.30,9.29,-0.00,-0.00,0.00,0.00
2026-06-26 17:58:33.980,994.13,994.14,0.46,0.90,0.00,1.02,0.30,9.29,-0.00,-0.00,0.00,0.00
2026-06-26 17:58:33.982,994.13,994.14,0.46,0.90,0.00,1.02,0.30,9.29,-0.00,-0.00,0.00,0.00
2026-06-26 17:58:33.983,994.13,994.14,0.46,0.90,0.00,1.02,0.30,9.29,-0.00,-0.00,0.00,0.00
2026-06-26 17:58:33.986,994.13,994.14,0.46,0.90,0.00,1.02,0.30,9.29,-0.00,-0.00,0.00,0.00
2026-06-26 17:58:33.988,994.13,994.14,0.46,0.90,0.00,1.00,0.28,9.27,0.00,0.00,0.00,0.00
2026-06-26 17:58:33.990,994.13,994.14,0.46,0.90,0.00,1.00,0.28,9.27,0.00,0.00,0.00,0.00
2026-06-26 17:58:33.997,994.13,994.14,0.46,0.90,0.00,1.00,0.28,9.27,0.00,0.00,0.00,0.00
2026-06-26 17:58:34.040,994.13,994.13,0.14,0.50,0.00,1.01,0.29,9.29,0.00,-0.00,0.00,0.00
2026-06-26 17:58:34.082,994.13,994.13,0.21,0.61,0.00,1.00,0.31,9.26,0.00,0.00,-0.00,0.00
2026-06-26 17:58:34.083,994.13,994.13,0.21,0.61,0.00,1.00,0.31,9.26,0.00,0.00,-0.00,0.00
2026-06-26 17:58:34.084,994.13,994.13,0.21,0.61,0.00,1.00,0.31,9.26,0.00,0.00,-0.00,0.00
2026-06-26 17:58:34.088,994.13,994.13,0.21,0.61,0.00,1.00,0.31,9.26,0.00,0.00,-0.00,0.00
2026-06-26 17:58:34.089,994.13,994.13,0.21,0.61,0.00,1.00,0.29,9.27,0.00,0.00,-0.00,0.00
2026-06-26 17:58:34.090,994.13,994.13,0.21,0.61,0.00,1.00,0.29,9.27,0.00,0.00,-0.00,0.00
2026-06-26 17:58:34.092,994.13,994.13,0.21,0.61,0.00,1.00,0.29,9.27,0.00,0.00,-0.00,0.00
2026-06-26 17:58:34.097,994.13,994.13,0.21,0.61,0.00,1.00,0.29,9.27,0.00,0.00,-0.00,0.00
2026-06-26 17:58:34.099,994.13,994.13,0.21,0.61,0.00,1.02,0.29,9.27,0.00,0.00,0.00,0.00
2026-06-26 17:58:34.100,994.13,994.13,0.21,0.61,0.00,1.02,0.29,9.27,0.00,0.00,0.00,0.00
2026-06-26 17:58:34.101,994.13,994.13,0.21,0.61,0.00,1.02,0.29,9.27,0.00,0.00,0.00,0.00
2026-06-26 17:58:34.104,994.13,994.13,0.21,0.61,0.00,1.02,0.29,9.27,0.00,0.00,0.00,0.00
2026-06-26 17:58:34.108,994.13,994.13,0.21,0.61,0.00,1.02,0.29,9.27,0.00,0.00,0.00,0.00
2026-06-26 17:58:34.110,994.13,994.13,0.21,0.61,0.00,1.01,0.30,9.26,0.00,0.00,0.00,0.00
2026-06-26 17:58:34.111,994.13,994.13,0.21,0.61,0.00,1.01,0.30,9.26,0.00,0.00,0.00,0.00
2026-06-26 17:58:34.117,994.13,994.13,0.21,0.61,0.00,1.01,0.30,9.26,0.00,0.00,0.00,0.00
2026-06-26 17:58:34.119,994.13,994.13,0.21,0.61,0.00,1.01,0.29,9.27,0.00,0.00,-0.00,0.00
2026-06-26 17:58:34.120,994.13,994.13,0.21,0.61,0.00,1.01,0.29,9.27,0.00,0.00,-0.00,0.00
2026-06-26 17:58:34.122,994.13,994.13,0.21,0.61,0.00,1.01,0.29,9.27,0.00,0.00,-0.00,0.00
2026-06-26 17:58:34.128,994.13,994.13,0.21,0.61,0.00,1.01,0.29,9.27,0.00,0.00,-0.00,0.00
2026-06-26 17:58:34.129,994.13,994.13,0.21,0.61,0.00,1.01,0.29,9.26,0.00,0.00,0.00,0.00
2026-06-26 17:58:34.132,994.13,994.13,0.21,0.61,0.00,1.01,0.29,9.26,0.00,0.00,0.00,0.00
2026-06-26 17:58:34.133,994.13,994.13,0.21,0.61,0.00,1.01,0.29,9.26,0.00,0.00,0.00,0.00
2026-06-26 17:58:34.134,994.13,994.13,0.21,0.61,0.00,1.01,0.29,9.26,0.00,0.00,0.00,0.00
2026-06-26 17:58:34.138,994.13,994.13,0.21,0.61,0.00,1.01,0.29,9.26,0.00,-0.00,-0.00,0.00
2026-06-26 17:58:34.139,994.13,994.13,0.21,0.61,0.00,1.02,0.28,9.29,0.00,-0.00,-0.00,0.00
2026-06-26 17:58:34.181,994.13,994.14,0.69,1.10,0.00,1.01,0.29,9.27,0.00,-0.00,0.00,0.00
2026-06-26 17:58:34.221,994.14,994.14,0.19,0.57,0.00,1.01,0.29,9.29,-0.00,0.00,0.00,0.00
2026-06-26 17:58:34.228,994.14,994.14,0.19,0.57,0.00,1.01,0.29,9.29,-0.00,0.00,0.00,0.00
2026-06-26 17:58:34.230,994.14,994.14,0.19,0.57,0.00,1.01,0.29,9.27,0.00,0.00,0.00,0.00
2026-06-26 17:58:34.232,994.14,994.14,0.19,0.57,0.00,1.01,0.29,9.27,0.00,0.00,0.00,0.00
2026-06-26 17:58:34.236,994.14,994.14,0.19,0.57,0.00,1.01,0.29,9.27,0.00,0.00,0.00,0.00
2026-06-26 17:58:34.239,994.14,994.14,0.19,0.57,0.00,1.02,0.30,9.30,0.00,0.00,-0.00,0.00
2026-06-26 17:58:34.240,994.14,994.14,0.19,0.57,0.00,1.02,0.30,9.30,0.00,0.00,-0.00,0.00
2026-06-26 17:58:34.244,994.14,994.14,0.19,0.57,0.00,1.02,0.30,9.30,0.00,0.00,-0.00,0.00
2026-06-26 17:58:34.248,994.14,994.14,0.19,0.57,0.00,1.02,0.30,9.30,0.00,-0.00,-0.00,0.00
2026-06-26 17:58:34.250,994.14,994.14,0.19,0.57,0.00,1.01,0.30,9.29,0.00,-0.00,-0.00,0.00
2026-06-26 17:58:34.251,994.14,994.14,0.19,0.57,0.00,1.01,0.30,9.29,0.00,-0.00,-0.00,0.00
2026-06-26 17:58:34.257,994.14,994.14,0.19,0.57,0.00,1.01,0.30,9.29,0.00,-0.00,-0.00,0.00
2026-06-26 17:58:34.258,994.14,994.14,0.19,0.57,0.00,1.02,0.28,9.26,-0.00,0.00,0.00,0.00
2026-06-26 17:58:34.260,994.14,994.14,0.19,0.57,0.00,1.02,0.28,9.26,-0.00,0.00,0.00,0.00
2026-06-26 17:58:34.261,994.14,994.14,0.19,0.57,0.00,1.02,0.28,9.26,-0.00,0.00,0.00,0.00
2026-06-26 17:58:34.262,994.14,994.14,0.19,0.57,0.00,1.02,0.28,9.26,-0.00,0.00,0.00,0.00
2026-06-26 17:58:34.268,994.14,994.14,0.19,0.57,0.00,1.02,0.28,9.26,0.00,0.00,-0.00,0.00
2026-06-26 17:58:34.272,994.14,994.14,0.19,0.57,0.00,1.02,0.32,9.28,0.00,0.00,-0.00,0.00
2026-06-26 17:58:34.278,994.14,994.14,0.19,0.57,0.00,1.02,0.32,9.28,0.00,0.00,-0.00,0.00
2026-06-26 17:58:34.279,994.14,994.14,0.19,0.57,0.00,1.01,0.30,9.28,0.00,0.00,0.00,0.00
2026-06-26 17:58:34.281,994.14,994.14,0.19,0.57,0.00,1.01,0.30,9.28,0.00,0.00,0.00,0.00
2026-06-26 17:58:34.368,994.14,994.14,0.32,0.75,0.00,1.02,0.31,9.26,-0.00,0.00,0.00,0.00
2026-06-26 17:58:34.369,994.14,994.14,0.32,0.75,0.00,1.00,0.29,9.27,-0.00,-0.00,-0.00,0.00
2026-06-26 17:58:34.370,994.14,994.14,0.32,0.75,0.00,1.00,0.29,9.27,-0.00,-0.00,-0.00,0.00
2026-06-26 17:58:34.372,994.14,994.14,0.32,0.75,0.00,1.00,0.29,9.27,-0.00,-0.00,-0.00,0.00
2026-06-26 17:58:34.375,994.14,994.14,0.32,0.75,0.00,1.00,0.29,9.27,-0.00,-0.00,-0.00,0.00
2026-06-26 17:58:34.379,994.14,994.14,0.32,0.75,0.00,1.00,0.29,9.27,-0.00,-0.00,0.00,0.00
2026-06-26 17:58:34.381,994.14,994.14,0.32,0.75,0.00,1.03,0.29,9.27,-0.00,-0.00,0.00,0.00
2026-06-26 17:58:34.383,994.14,994.14,0.32,0.75,0.00,1.03,0.29,9.27,-0.00,-0.00,0.00,0.00
2026-06-26 17:58:34.384,994.14,994.14,0.32,0.75,0.00,1.03,0.29,9.27,-0.00,-0.00,0.00,0.00
2026-06-26 17:58:34.387,994.14,994.14,0.32,0.75,0.00,1.03,0.29,9.27,-0.00,-0.00,0.00,0.00
2026-06-26 17:58:34.389,994.14,994.14,0.32,0.75,0.00,1.02,0.31,9.28,0.00,-0.00,-0.00,0.00
2026-06-26 17:58:34.390,994.14,994.14,0.32,0.75,0.00,1.02,0.31,9.28,0.00,-0.00,-0.00,0.00
2026-06-26 17:58:34.391,994.14,994.14,0.32,0.75,0.00,1.02,0.31,9.28,0.00,-0.00,-0.00,0.00
2026-06-26 17:58:34.393,994.14,994.14,0.32,0.75,0.00,1.02,0.31,9.28,0.00,-0.00,-0.00,0.00
2026-06-26 17:58:34.398,994.14,994.14,0.32,0.75,0.00,1.02,0.31,9.28,0.00,-0.00,-0.00,0.00
2026-06-26 17:58:34.399,994.14,994.14,0.32,0.75,0.00,1.02,0.29,9.28,-0.00,-0.00,0.00,0.00
2026-06-26 17:58:34.401,994.14,994.14,0.32,0.75,0.00,1.02,0.29,9.28,-0.00,-0.00,0.00,0.00
2026-06-26 17:58:34.407,994.14,994.14,0.32,0.75,0.00,1.02,0.29,9.28,-0.00,-0.00,0.00,0.00
2026-06-26 17:58:34.411,994.14,994.14,0.32,0.75,0.00,1.01,0.30,9.27,0.00,0.00,0.00,0.00
2026-06-26 17:58:34.412,994.14,994.14,0.32,0.75,0.00,1.01,0.30,9.27,0.00,0.00,0.00,0.00
2026-06-26 17:58:34.418,994.14,994.14,0.32,0.75,0.00,1.01,0.30,9.27,0.00,0.00,0.00,0.00
2026-06-26 17:58:34.420,994.14,994.14,0.32,0.75,0.00,1.02,0.30,9.28,0.00,-0.00,-0.00,0.00
2026-06-26 17:58:34.421,994.14,994.14,0.32,0.75,0.00,1.02,0.30,9.28,0.00,-0.00,-0.00,0.00
2026-06-26 17:58:34.423,994.14,994.14,0.32,0.75,0.00,1.02,0.30,9.28,0.00,-0.00,-0.00,0.00
2026-06-26 17:58:34.508,994.13,994.13,0.06,0.31,0.00,1.01,0.29,9.29,-0.00,-0.00,0.00,0.00
2026-06-26 17:58:34.510,994.13,994.13,0.06,0.31,0.00,1.02,0.31,9.26,-0.00,-0.00,0.00,0.00
2026-06-26 17:58:34.511,994.13,994.13,0.06,0.31,0.00,1.02,0.31,9.26,-0.00,-0.00,0.00,0.00
2026-06-26 17:58:34.512,994.13,994.13,0.06,0.31,0.00,1.02,0.31,9.26,-0.00,-0.00,0.00,0.00
2026-06-26 17:58:34.518,994.13,994.13,0.06,0.31,0.00,1.02,0.31,9.26,-0.00,-0.00,0.00,0.00
2026-06-26 17:58:34.519,994.13,994.13,0.06,0.31,0.00,1.01,0.28,9.29,-0.00,-0.00,0.00,0.00
2026-06-26 17:58:34.521,994.13,994.13,0.06,0.31,0.00,1.01,0.28,9.29,-0.00,-0.00,0.00,0.00
2026-06-26 17:58:34.522,994.13,994.13,0.06,0.31,0.00,1.01,0.28,9.29,-0.00,-0.00,0.00,0.00
2026-06-26 17:58:34.525,994.13,994.13,0.06,0.31,0.00,1.01,0.28,9.29,-0.00,-0.00,0.00,0.00
2026-06-26 17:58:34.529,994.13,994.13,0.06,0.31,0.00,1.01,0.28,9.29,-0.00,-0.00,0.00,0.00
2026-06-26 17:58:34.531,994.13,994.13,0.06,0.31,0.00,1.01,0.29,9.27,-0.00,-0.00,0.00,0.00
2026-06-26 17:58:34.532,994.13,994.13,0.06,0.31,0.00,1.01,0.29,9.27,-0.00,-0.00,0.00,0.00
2026-06-26 17:58:34.534,994.13,994.13,0.06,0.31,0.00,1.01,0.29,9.27,-0.00,-0.00,0.00,0.00
2026-06-26 17:58:34.535,994.13,994.13,0.06,0.31,0.00,1.01,0.29,9.27,-0.00,-0.00,0.00,0.00
2026-06-26 17:58:34.539,994.13,994.13,0.06,0.31,0.00,1.01,0.29,9.27,0.00,0.00,-0.00,0.00
2026-06-26 17:58:34.540,994.13,994.13,0.06,0.31,0.00,1.00,0.30,9.27,0.00,0.00,-0.00,0.00
2026-06-26 17:58:34.542,994.13,994.13,0.06,0.31,0.00,1.00,0.30,9.27,0.00,0.00,-0.00,0.00
2026-06-26 17:58:34.548,994.13,994.13,0.06,0.31,0.00,1.00,0.30,9.27,0.00,0.00,-0.00,0.00
2026-06-26 17:58:34.550,994.13,994.13,0.06,0.31,0.00,1.01,0.31,9.28,-0.00,0.00,-0.00,0.00
2026-06-26 17:58:34.552,994.13,994.13,0.06,0.31,0.00,1.01,0.31,9.28,-0.00,0.00,-0.00,0.00
2026-06-26 17:58:34.557,994.13,994.13,0.06,0.31,0.00,1.01,0.31,9.28,-0.00,0.00,-0.00,0.00
2026-06-26 17:58:34.559,994.13,994.13,0.06,0.31,0.00,1.01,0.28,9.28,0.00,0.00,-0.00,0.00
2026-06-26 17:58:34.560,994.13,994.13,0.06,0.31,0.00,1.01,0.28,9.28,0.00,0.00,-0.00,0.00
2026-06-26 17:58:34.561,994.13,994.13,0.06,0.31,0.00,1.01,0.28,9.28,0.00,0.00,-0.00,0.00
2026-06-26 17:58:34.563,994.13,994.13,0.06,0.31,0.00,1.01,0.28,9.28,0.00,0.00,-0.00,0.00
2026-06-26 17:58:34.566,994.13,994.13,0.06,0.31,0.00,1.01,0.28,9.28,0.00,0.00,-0.00,0.00
2026-06-26 17:58:34.648,994.14,994.14,0.13,0.48,0.00,1.01,0.30,9.27,0.00,-0.00,-0.00,0.00
2026-06-26 17:58:34.650,994.14,994.14,0.13,0.48,0.00,1.02,0.30,9.31,-0.00,0.00,-0.00,0.00
2026-06-26 17:58:34.651,994.14,994.14,0.13,0.48,0.00,1.02,0.30,9.31,-0.00,0.00,-0.00,0.00
2026-06-26 17:58:34.652,994.14,994.14,0.13,0.48,0.00,1.02,0.30,9.31,-0.00,0.00,-0.00,0.00
2026-06-26 17:58:34.655,994.14,994.14,0.13,0.48,0.00,1.02,0.30,9.31,-0.00,0.00,-0.00,0.00
2026-06-26 17:58:34.659,994.14,994.14,0.13,0.48,0.00,1.02,0.30,9.31,-0.00,-0.00,-0.00,0.00
2026-06-26 17:58:34.660,994.14,994.14,0.13,0.48,0.00,1.01,0.30,9.30,-0.00,-0.00,-0.00,0.00
2026-06-26 17:58:34.661,994.14,994.14,0.13,0.48,0.00,1.01,0.30,9.30,-0.00,-0.00,-0.00,0.00
2026-06-26 17:58:34.663,994.14,994.14,0.13,0.48,0.00,1.01,0.30,9.30,-0.00,-0.00,-0.00,0.00
2026-06-26 17:58:34.667,994.14,994.14,0.13,0.48,0.00,1.01,0.30,9.30,-0.00,-0.00,-0.00,0.00
2026-06-26 17:58:34.669,994.14,994.14,0.13,0.48,0.00,1.01,0.28,9.25,0.00,0.00,0.00,0.00
2026-06-26 17:58:34.670,994.14,994.14,0.13,0.48,0.00,1.01,0.28,9.25,0.00,0.00,0.00,0.00
2026-06-26 17:58:34.672,994.14,994.14,0.13,0.48,0.00,1.01,0.28,9.25,0.00,0.00,0.00,0.00
2026-06-26 17:58:34.674,994.14,994.14,0.13,0.48,0.00,1.01,0.28,9.25,0.00,0.00,0.00,0.00
2026-06-26 17:58:34.679,994.14,994.14,0.13,0.48,0.00,1.01,0.28,9.25,0.00,-0.00,0.00,0.00
2026-06-26 17:58:34.680,994.14,994.14,0.13,0.48,0.00,1.01,0.30,9.29,0.00,-0.00,0.00,0.00
2026-06-26 17:58:34.681,994.14,994.14,0.13,0.48,0.00,1.01,0.30,9.29,0.00,-0.00,0.00,0.00
2026-06-26 17:58:34.682,994.14,994.14,0.13,0.48,0.00,1.01,0.30,9.29,0.00,-0.00,0.00,0.00
2026-06-26 17:58:34.684,994.14,994.14,0.13,0.48,0.00,1.01,0.30,9.29,0.00,-0.00,0.00,0.00
2026-06-26 17:58:34.688,994.14,994.14,0.13,0.48,0.00,1.01,0.30,9.29,0.00,-0.00,0.00,0.00
2026-06-26 17:58:34.691,994.14,994.14,0.13,0.48,0.00,1.02,0.30,9.30,-0.00,0.00,-0.00,0.00
2026-06-26 17:58:34.696,994.14,994.14,0.13,0.48,0.00,1.02,0.30,9.30,-0.00,0.00,-0.00,0.00
2026-06-26 17:58:34.700,994.14,994.14,0.13,0.48,0.00,1.02,0.30,9.30,0.00,-0.00,0.00,0.00
2026-06-26 17:58:34.702,994.14,994.14,0.13,0.48,0.00,1.01,0.29,9.26,0.00,-0.00,0.00,0.00
2026-06-26 17:58:34.705,994.14,994.14,0.13,0.48,0.00,1.01,0.29,9.26,0.00,-0.00,0.00,0.00
2026-06-26 17:58:34.709,994.14,994.14,0.13,0.48,0.00,1.01,0.29,9.26,0.00,-0.00,0.00,0.00
2026-06-26 17:58:34.792,994.14,994.13,-0.31,-0.74,0.00,1.00,0.29,9.31,0.00,-0.00,0.00,0.00
2026-06-26 17:58:34.798,994.14,994.13,-0.31,-0.74,0.00,1.00,0.29,9.31,0.00,-0.00,0.00,0.00
2026-06-26 17:58:34.800,994.14,994.13,-0.31,-0.74,0.00,1.01,0.30,9.28,0.00,-0.00,0.00,0.00
2026-06-26 17:58:34.801,994.14,994.13,-0.31,-0.74,0.00,1.01,0.30,9.28,0.00,-0.00,0.00,0.00
2026-06-26 17:58:34.802,994.14,994.13,-0.31,-0.74,0.00,1.01,0.30,9.28,0.00,-0.00,0.00,0.00
2026-06-26 17:58:34.803,994.14,994.13,-0.31,-0.74,0.00,1.01,0.30,9.28,0.00,-0.00,0.00,0.00
2026-06-26 17:58:34.809,994.14,994.13,-0.31,-0.74,0.00,1.01,0.30,9.28,0.00,-0.00,0.00,0.00
2026-06-26 17:58:34.812,994.14,994.13,-0.31,-0.74,0.00,1.02,0.28,9.25,0.00,0.00,0.00,0.00
2026-06-26 17:58:34.819,994.14,994.13,-0.31,-0.74,0.00,1.02,0.28,9.25,0.00,0.00,0.00,0.00
2026-06-26 17:58:34.820,994.14,994.13,-0.31,-0.74,0.00,1.01,0.30,9.27,-0.00,-0.00,0.00,0.00
2026-06-26 17:58:34.822,994.14,994.13,-0.31,-0.74,0.00,1.01,0.30,9.27,-0.00,-0.00,0.00,0.00
2026-06-26 17:58:34.826,994.14,994.13,-0.31,-0.74,0.00,1.01,0.30,9.27,-0.00,-0.00,0.00,0.00
2026-06-26 17:58:34.830,994.14,994.13,-0.31,-0.74,0.00,1.01,0.30,9.27,0.00,-0.00,0.00,0.00
2026-06-26 17:58:34.831,994.14,994.13,-0.31,-0.74,0.00,1.01,0.28,9.26,0.00,-0.00,0.00,0.00
2026-06-26 17:58:34.833,994.14,994.13,-0.31,-0.74,0.00,1.01,0.28,9.26,0.00,-0.00,0.00,0.00
2026-06-26 17:58:34.834,994.14,994.13,-0.31,-0.74,0.00,1.01,0.28,9.26,0.00,-0.00,0.00,0.00
2026-06-26 17:58:34.836,994.14,994.13,-0.31,-0.74,0.00,1.01,0.28,9.26,0.00,-0.00,0.00,0.00
2026-06-26 17:58:34.839,994.14,994.13,-0.31,-0.74,0.00,1.01,0.28,9.26,-0.00,0.00,0.00,0.00
2026-06-26 17:58:34.840,994.14,994.13,-0.31,-0.74,0.00,1.02,0.32,9.27,-0.00,0.00,0.00,0.00
2026-06-26 17:58:34.842,994.14,994.13,-0.31,-0.74,0.00,1.02,0.32,9.27,-0.00,0.00,0.00,0.00
2026-06-26 17:58:34.843,994.14,994.13,-0.31,-0.74,0.00,1.02,0.32,9.27,-0.00,0.00,0.00,0.00
2026-06-26 17:58:34.849,994.14,994.13,-0.31,-0.74,0.00,1.02,0.32,9.27,-0.00,0.00,0.00,0.00
2026-06-26 17:58:34.852,994.14,994.13,-0.31,-0.74,0.00,1.01,0.28,9.26,-0.00,0.00,0.00,0.00
2026-06-26 17:58:34.939,994.14,994.14,0.13,0.48,0.00,1.00,0.30,9.28,0.00,0.00,-0.00,0.00
2026-06-26 17:58:34.941,994.14,994.14,0.13,0.48,0.00,0.99,0.27,9.28,0.00,0.00,-0.00,0.00
2026-06-26 17:58:34.942,994.14,994.14,0.13,0.48,0.00,0.99,0.27,9.28,0.00,0.00,-0.00,0.00
2026-06-26 17:58:34.943,994.14,994.14,0.13,0.48,0.00,0.99,0.27,9.28,0.00,0.00,-0.00,0.00
2026-06-26 17:58:34.947,994.14,994.14,0.13,0.48,0.00,0.99,0.27,9.28,0.00,0.00,-0.00,0.00
2026-06-26 17:58:34.949,994.14,994.14,0.13,0.48,0.00,0.99,0.27,9.28,-0.00,0.00,-0.00,0.00
2026-06-26 17:58:34.951,994.14,994.14,0.13,0.48,0.00,1.01,0.29,9.25,-0.00,0.00,-0.00,0.00
2026-06-26 17:58:34.952,994.14,994.14,0.13,0.48,0.00,1.01,0.29,9.25,-0.00,0.00,-0.00,0.00
2026-06-26 17:58:34.953,994.14,994.14,0.13,0.48,0.00,1.01,0.29,9.25,-0.00,0.00,-0.00,0.00
2026-06-26 17:58:34.959,994.14,994.14,0.13,0.48,0.00,1.01,0.29,9.25,-0.00,0.00,-0.00,0.00
2026-06-26 17:58:34.960,994.14,994.14,0.13,0.48,0.00,1.02,0.29,9.25,-0.00,0.00,0.00,0.00
2026-06-26 17:58:34.962,994.14,994.14,0.13,0.48,0.00,1.02,0.29,9.25,-0.00,0.00,0.00,0.00
2026-06-26 17:58:34.963,994.14,994.14,0.13,0.48,0.00,1.02,0.29,9.25,-0.00,0.00,0.00,0.00
2026-06-26 17:58:34.964,994.14,994.14,0.13,0.48,0.00,1.02,0.29,9.25,-0.00,0.00,0.00,0.00
2026-06-26 17:58:34.969,994.14,994.14,0.13,0.48,0.00,1.02,0.29,9.25,-0.00,0.00,0.00,0.00
2026-06-26 17:58:34.970,994.14,994.14,0.13,0.48,0.00,1.04,0.30,9.29,0.00,0.00,-0.00,0.00
2026-06-26 17:58:34.972,994.14,994.14,0.13,0.48,0.00,1.04,0.30,9.29,0.00,0.00,-0.00,0.00
2026-06-26 17:58:34.976,994.14,994.14,0.13,0.48,0.00,1.04,0.30,9.29,0.00,0.00,-0.00,0.00
2026-06-26 17:58:34.980,994.14,994.14,0.13,0.48,0.00,1.04,0.30,9.29,0.00,-0.00,0.00,0.00
2026-06-26 17:58:34.981,994.14,994.14,0.13,0.48,0.00,1.03,0.29,9.29,0.00,-0.00,0.00,0.00
2026-06-26 17:58:34.983,994.14,994.14,0.13,0.48,0.00,1.03,0.29,9.29,0.00,-0.00,0.00,0.00
2026-06-26 17:58:34.984,994.14,994.14,0.13,0.48,0.00,1.03,0.29,9.29,0.00,-0.00,0.00,0.00
2026-06-26 17:58:34.985,994.14,994.14,0.13,0.48,0.00,1.03,0.29,9.29,0.00,-0.00,0.00,0.00
2026-06-26 17:58:34.987,994.14,994.14,0.13,0.48,0.00,1.03,0.29,9.29,0.00,-0.00,0.00,0.00
2026-06-26 17:58:34.990,994.14,994.14,0.13,0.48,0.00,1.03,0.29,9.29,0.00,0.00,-0.00,0.00
2026-06-26 17:58:34.991,994.14,994.14,0.13,0.48,0.00,1.01,0.28,9.30,0.00,0.00,-0.00,0.00
2026-06-26 17:58:34.993,994.14,994.14,0.13,0.48,0.00,1.01,0.28,9.30,0.00,0.00,-0.00,0.00
2026-06-26 17:58:34.999,994.14,994.14,0.13,0.48,0.00,1.01,0.28,9.30,0.00,0.00,-0.00,0.00
2026-06-26 17:58:35.082,994.14,994.14,-0.15,-0.51,0.00,0.99,0.29,9.27,0.00,-0.00,0.00,0.00
2026-06-26 17:58:35.083,994.14,994.14,-0.15,-0.51,0.00,0.99,0.29,9.27,0.00,-0.00,0.00,0.00
2026-06-26 17:58:35.085,994.14,994.14,-0.15,-0.51,0.00,0.99,0.29,9.27,0.00,-0.00,0.00,0.00
2026-06-26 17:58:35.086,994.14,994.14,-0.15,-0.51,0.00,0.99,0.29,9.27,0.00,-0.00,0.00,0.00
2026-06-26 17:58:35.088,994.14,994.14,-0.15,-0.51,0.00,0.99,0.29,9.27,0.00,-0.00,0.00,0.00
2026-06-26 17:58:35.090,994.14,994.14,-0.15,-0.51,0.00,1.00,0.31,9.30,0.00,0.00,-0.00,0.00
2026-06-26 17:58:35.091,994.14,994.14,-0.15,-0.51,0.00,1.00,0.31,9.30,0.00,0.00,-0.00,0.00
2026-06-26 17:58:35.092,994.14,994.14,-0.15,-0.51,0.00,1.00,0.31,9.30,0.00,0.00,-0.00,0.00
2026-06-26 17:58:35.094,994.14,994.14,-0.15,-0.51,0.00,1.00,0.31,9.30,0.00,0.00,-0.00,0.00
2026-06-26 17:58:35.099,994.14,994.14,-0.15,-0.51,0.00,1.00,0.31,9.30,0.00,0.00,-0.00,0.00
2026-06-26 17:58:35.100,994.14,994.14,-0.15,-0.51,0.00,1.02,0.28,9.28,0.00,0.00,-0.00,0.00
2026-06-26 17:58:35.102,994.14,994.14,-0.15,-0.51,0.00,1.02,0.28,9.28,0.00,0.00,-0.00,0.00
2026-06-26 17:58:35.103,994.14,994.14,-0.15,-0.51,0.00,1.02,0.28,9.28,0.00,0.00,-0.00,0.00
2026-06-26 17:58:35.109,994.14,994.14,-0.15,-0.51,0.00,1.02,0.28,9.28,0.00,0.00,-0.00,0.00
2026-06-26 17:58:35.110,994.14,994.14,-0.15,-0.51,0.00,1.01,0.29,9.27,0.00,0.00,0.00,0.00
2026-06-26 17:58:35.112,994.14,994.14,-0.15,-0.51,0.00,1.01,0.29,9.27,0.00,0.00,0.00,0.00
2026-06-26 17:58:35.113,994.14,994.14,-0.15,-0.51,0.00,1.01,0.29,9.27,0.00,0.00,0.00,0.00
2026-06-26 17:58:35.116,994.14,994.14,-0.15,-0.51,0.00,1.01,0.29,9.27,0.00,0.00,0.00,0.00
2026-06-26 17:58:35.120,994.14,994.14,-0.15,-0.51,0.00,1.01,0.29,9.27,0.00,0.00,-0.00,0.00
2026-06-26 17:58:35.122,994.14,994.14,-0.15,-0.51,0.00,1.02,0.29,9.26,0.00,0.00,-0.00,0.00
2026-06-26 17:58:35.123,994.14,994.14,-0.15,-0.51,0.00,1.02,0.29,9.26,0.00,0.00,-0.00,0.00
2026-06-26 17:58:35.127,994.14,994.14,-0.15,-0.51,0.00,1.02,0.29,9.26,0.00,0.00,-0.00,0.00
2026-06-26 17:58:35.130,994.14,994.14,-0.15,-0.51,0.00,1.02,0.29,9.26,0.00,0.00,0.00,0.00
2026-06-26 17:58:35.132,994.14,994.14,-0.15,-0.51,0.00,1.01,0.29,9.28,0.00,0.00,0.00,0.00
2026-06-26 17:58:35.135,994.14,994.14,-0.15,-0.51,0.00,1.01,0.29,9.28,0.00,0.00,0.00,0.00
2026-06-26 17:58:35.136,994.14,994.14,-0.15,-0.51,0.00,1.01,0.29,9.28,0.00,0.00,0.00,0.00
2026-06-26 17:58:35.140,994.14,994.14,-0.15,-0.51,0.00,1.01,0.29,9.28,-0.00,0.00,0.00,0.00
2026-06-26 17:58:35.223,994.13,994.14,0.50,0.94,0.00,1.04,0.28,9.29,0.00,-0.00,0.00,0.00
2026-06-26 17:58:35.228,994.13,994.14,0.50,0.94,0.00,1.04,0.28,9.29,0.00,-0.00,0.00,0.00
2026-06-26 17:58:35.230,994.13,994.14,0.50,0.94,0.00,1.03,0.28,9.25,-0.00,0.00,0.00,0.00
2026-06-26 17:58:35.232,994.13,994.14,0.50,0.94,0.00,1.03,0.28,9.25,-0.00,0.00,0.00,0.00
2026-06-26 17:58:35.235,994.13,994.14,0.50,0.94,0.00,1.03,0.28,9.25,-0.00,0.00,0.00,0.00
2026-06-26 17:58:35.236,994.13,994.14,0.50,0.94,0.00,1.03,0.28,9.25,-0.00,0.00,0.00,0.00
2026-06-26 17:58:35.240,994.13,994.14,0.50,0.94,0.00,1.03,0.28,9.25,0.00,0.00,-0.00,0.00
2026-06-26 17:58:35.241,994.13,994.14,0.50,0.94,0.00,1.03,0.29,9.29,0.00,0.00,-0.00,0.00
2026-06-26 17:58:35.242,994.13,994.14,0.50,0.94,0.00,1.03,0.29,9.29,0.00,0.00,-0.00,0.00
2026-06-26 17:58:35.244,994.13,994.14,0.50,0.94,0.00,1.03,0.29,9.29,0.00,0.00,-0.00,0.00
2026-06-26 17:58:35.248,994.13,994.14,0.50,0.94,0.00,1.03,0.29,9.29,0.00,0.00,-0.00,0.00
2026-06-26 17:58:35.251,994.13,994.14,0.50,0.94,0.00,1.03,0.29,9.29,0.00,0.00,-0.00,0.00
2026-06-26 17:58:35.253,994.13,994.14,0.50,0.94,0.00,1.02,0.29,9.27,0.00,0.00,-0.00,0.00
2026-06-26 17:58:35.256,994.13,994.14,0.50,0.94,0.00,1.02,0.29,9.27,0.00,0.00,-0.00,0.00
2026-06-26 17:58:35.262,994.13,994.14,0.50,0.94,0.00,1.02,0.29,9.27,-0.00,0.00,0.00,0.00
2026-06-26 17:58:35.264,994.13,994.14,0.50,0.94,0.00,1.04,0.29,9.26,-0.00,0.00,0.00,0.00
2026-06-26 17:58:35.267,994.13,994.14,0.50,0.94,0.00,1.04,0.29,9.26,-0.00,0.00,0.00,0.00
2026-06-26 17:58:35.270,994.13,994.14,0.50,0.94,0.00,1.04,0.29,9.26,0.00,-0.00,-0.00,0.00
2026-06-26 17:58:35.272,994.13,994.14,0.50,0.94,0.00,1.01,0.30,9.28,0.00,-0.00,-0.00,0.00
2026-06-26 17:58:35.276,994.13,994.14,0.50,0.94,0.00,1.01,0.30,9.28,0.00,-0.00,-0.00,0.00
2026-06-26 17:58:35.280,994.13,994.14,0.50,0.94,0.00,1.01,0.30,9.28,0.00,-0.00,0.00,0.00
2026-06-26 17:58:35.281,994.13,994.14,0.50,0.94,0.00,1.02,0.30,9.29,0.00,-0.00,0.00,0.00
2026-06-26 17:58:35.363,994.13,994.14,0.67,1.08,0.00,1.00,0.31,9.25,0.00,0.00,-0.00,0.00
2026-06-26 17:58:35.365,994.13,994.14,0.67,1.08,0.00,1.00,0.31,9.25,0.00,0.00,-0.00,0.00
2026-06-26 17:58:35.370,994.13,994.14,0.67,1.08,0.00,1.00,0.31,9.25,0.00,0.00,-0.00,0.00
2026-06-26 17:58:35.371,994.13,994.14,0.67,1.08,0.00,1.01,0.30,9.27,0.00,0.00,0.00,0.00
2026-06-26 17:58:35.373,994.13,994.14,0.67,1.08,0.00,1.01,0.30,9.27,0.00,0.00,0.00,0.00
2026-06-26 17:58:35.374,994.13,994.14,0.67,1.08,0.00,1.01,0.30,9.27,0.00,0.00,0.00,0.00
2026-06-26 17:58:35.378,994.13,994.14,0.67,1.08,0.00,1.01,0.30,9.27,0.00,0.00,0.00,0.00
2026-06-26 17:58:35.382,994.13,994.14,0.67,1.08,0.00,1.01,0.30,9.27,0.00,-0.00,-0.00,0.00
2026-06-26 17:58:35.386,994.13,994.14,0.67,1.08,0.00,0.99,0.30,9.27,0.00,-0.00,-0.00,0.00
2026-06-26 17:58:35.389,994.13,994.14,0.67,1.08,0.00,0.99,0.30,9.27,0.00,-0.00,-0.00,0.00
2026-06-26 17:58:35.391,994.13,994.14,0.67,1.08,0.00,1.02,0.29,9.29,0.00,-0.00,0.00,0.00
2026-06-26 17:58:35.392,994.13,994.14,0.67,1.08,0.00,1.02,0.29,9.29,0.00,-0.00,0.00,0.00
2026-06-26 17:58:35.394,994.13,994.14,0.67,1.08,0.00,1.02,0.29,9.29,0.00,-0.00,0.00,0.00
2026-06-26 17:58:35.398,994.13,994.14,0.67,1.08,0.00,1.02,0.29,9.29,0.00,-0.00,0.00,0.00
2026-06-26 17:58:35.401,994.13,994.14,0.67,1.08,0.00,1.02,0.29,9.29,0.00,0.00,-0.00,0.00
2026-06-26 17:58:35.402,994.13,994.14,0.67,1.08,0.00,1.01,0.29,9.28,0.00,0.00,-0.00,0.00
2026-06-26 17:58:35.403,994.13,994.14,0.67,1.08,0.00,1.01,0.29,9.28,0.00,0.00,-0.00,0.00
2026-06-26 17:58:35.405,994.13,994.14,0.67,1.08,0.00,1.01,0.29,9.28,0.00,0.00,-0.00,0.00
2026-06-26 17:58:35.410,994.13,994.14,0.67,1.08,0.00,1.01,0.29,9.28,-0.00,0.00,-0.00,0.00
2026-06-26 17:58:35.412,994.13,994.14,0.67,1.08,0.00,1.00,0.28,9.26,-0.00,0.00,-0.00,0.00
2026-06-26 17:58:35.413,994.13,994.14,0.67,1.08,0.00,1.00,0.28,9.26,-0.00,0.00,-0.00,0.00
2026-06-26 17:58:35.418,994.13,994.14,0.67,1.08,0.00,1.00,0.28,9.26,-0.00,0.00,-0.00,0.00
2026-06-26 17:58:35.421,994.13,994.14,0.67,1.08,0.00,1.00,0.28,9.26,-0.00,-0.00,0.00,0.00
2026-06-26 17:58:35.423,994.13,994.14,0.67,1.08,0.00,1.00,0.29,9.28,-0.00,-0.00,0.00,0.00
2026-06-26 17:58:35.510,994.13,994.14,0.28,0.71,0.00,1.01,0.28,9.26,-0.00,-0.00,-0.00,0.00
2026-06-26 17:58:35.512,994.13,994.14,0.28,0.71,0.00,1.02,0.30,9.25,0.00,0.00,-0.00,0.00
2026-06-26 17:58:35.513,994.13,994.14,0.28,0.71,0.00,1.02,0.30,9.25,0.00,0.00,-0.00,0.00
2026-06-26 17:58:35.514,994.13,994.14,0.28,0.71,0.00,1.02,0.30,9.25,0.00,0.00,-0.00,0.00
2026-06-26 17:58:35.517,994.13,994.14,0.28,0.71,0.00,1.02,0.30,9.25,0.00,0.00,-0.00,0.00
2026-06-26 17:58:35.521,994.13,994.14,0.28,0.71,0.00,1.02,0.30,9.25,0.00,-0.00,-0.00,0.00
2026-06-26 17:58:35.522,994.13,994.14,0.28,0.71,0.00,1.01,0.30,9.28,0.00,-0.00,-0.00,0.00
2026-06-26 17:58:35.523,994.13,994.14,0.28,0.71,0.00,1.01,0.30,9.28,0.00,-0.00,-0.00,0.00
2026-06-26 17:58:35.525,994.13,994.14,0.28,0.71,0.00,1.01,0.30,9.28,0.00,-0.00,-0.00,0.00
2026-06-26 17:58:35.531,994.13,994.14,0.28,0.71,0.00,1.01,0.30,9.28,-0.00,0.00,0.00,0.00
2026-06-26 17:58:35.532,994.13,994.14,0.28,0.71,0.00,1.01,0.29,9.27,-0.00,0.00,0.00,0.00
2026-06-26 17:58:35.533,994.13,994.14,0.28,0.71,0.00,1.01,0.29,9.27,-0.00,0.00,0.00,0.00
2026-06-26 17:58:35.534,994.13,994.14,0.28,0.71,0.00,1.01,0.29,9.27,-0.00,0.00,0.00,0.00
2026-06-26 17:58:35.536,994.13,994.14,0.28,0.71,0.00,1.01,0.29,9.27,-0.00,0.00,0.00,0.00
2026-06-26 17:58:35.538,994.13,994.14,0.28,0.71,0.00,1.01,0.29,9.27,-0.00,0.00,0.00,0.00
2026-06-26 17:58:35.541,994.13,994.14,0.28,0.71,0.00,1.01,0.29,9.27,-0.00,0.00,-0.00,0.00
2026-06-26 17:58:35.543,994.13,994.14,0.28,0.71,0.00,1.00,0.30,9.30,-0.00,0.00,-0.00,0.00
2026-06-26 17:58:35.544,994.13,994.14,0.28,0.71,0.00,1.00,0.30,9.30,-0.00,0.00,-0.00,0.00
2026-06-26 17:58:35.551,994.13,994.14,0.28,0.71,0.00,1.00,0.30,9.30,-0.00,0.00,-0.00,0.00
2026-06-26 17:58:35.559,994.13,994.14,0.28,0.71,0.00,1.02,0.31,9.28,-0.00,0.00,0.00,0.00
2026-06-26 17:58:35.561,994.13,994.14,0.28,0.71,0.00,1.01,0.29,9.27,-0.00,-0.00,0.00,0.00
2026-06-26 17:58:35.563,994.13,994.14,0.28,0.71,0.00,1.01,0.29,9.27,-0.00,-0.00,0.00,0.00
2026-06-26 17:58:35.565,994.13,994.14,0.28,0.71,0.00,1.01,0.29,9.27,-0.00,-0.00,0.00,0.00
2026-06-26 17:58:35.651,994.13,994.14,0.59,1.02,0.00,1.04,0.31,9.27,-0.00,0.00,0.00,0.00
2026-06-26 17:58:35.652,994.13,994.14,0.59,1.02,0.00,1.01,0.30,9.29,-0.00,-0.00,-0.00,0.00
2026-06-26 17:58:35.654,994.13,994.14,0.59,1.02,0.00,1.01,0.30,9.29,-0.00,-0.00,-0.00,0.00
2026-06-26 17:58:35.659,994.13,994.14,0.59,1.02,0.00,1.01,0.30,9.29,-0.00,-0.00,-0.00,0.00
2026-06-26 17:58:35.661,994.13,994.14,0.59,1.02,0.00,1.03,0.29,9.29,0.00,0.00,0.00,0.00
2026-06-26 17:58:35.663,994.13,994.14,0.59,1.02,0.00,1.03,0.29,9.29,0.00,0.00,0.00,0.00
2026-06-26 17:58:35.664,994.13,994.14,0.59,1.02,0.00,1.03,0.29,9.29,0.00,0.00,0.00,0.00
2026-06-26 17:58:35.667,994.13,994.14,0.59,1.02,0.00,1.03,0.29,9.29,0.00,0.00,0.00,0.00
2026-06-26 17:58:35.671,994.13,994.14,0.59,1.02,0.00,1.03,0.29,9.29,-0.00,0.00,0.00,0.00
2026-06-26 17:58:35.672,994.13,994.14,0.59,1.02,0.00,1.01,0.29,9.26,-0.00,0.00,0.00,0.00
2026-06-26 17:58:35.673,994.13,994.14,0.59,1.02,0.00,1.01,0.29,9.26,-0.00,0.00,0.00,0.00
2026-06-26 17:58:35.675,994.13,994.14,0.59,1.02,0.00,1.01,0.29,9.26,-0.00,0.00,0.00,0.00
2026-06-26 17:58:35.682,994.13,994.14,0.59,1.02,0.00,1.01,0.29,9.26,0.00,0.00,-0.00,0.00
2026-06-26 17:58:35.684,994.13,994.14,0.59,1.02,0.00,1.02,0.28,9.27,0.00,0.00,-0.00,0.00
2026-06-26 17:58:35.685,994.13,994.14,0.59,1.02,0.00,1.02,0.28,9.27,0.00,0.00,-0.00,0.00
2026-06-26 17:58:35.687,994.13,994.14,0.59,1.02,0.00,1.02,0.28,9.27,0.00,0.00,-0.00,0.00
2026-06-26 17:58:35.691,994.13,994.14,0.59,1.02,0.00,1.02,0.28,9.27,0.00,-0.00,-0.00,0.00
2026-06-26 17:58:35.692,994.13,994.14,0.59,1.02,0.00,1.02,0.27,9.28,0.00,-0.00,-0.00,0.00
2026-06-26 17:58:35.694,994.13,994.14,0.59,1.02,0.00,1.02,0.27,9.28,0.00,-0.00,-0.00,0.00
2026-06-26 17:58:35.698,994.13,994.14,0.59,1.02,0.00,1.02,0.27,9.28,0.00,-0.00,-0.00,0.00
2026-06-26 17:58:35.701,994.13,994.14,0.59,1.02,0.00,1.02,0.27,9.28,-0.00,0.00,0.00,0.00
2026-06-26 17:58:35.703,994.13,994.14,0.59,1.02,0.00,1.01,0.31,9.25,-0.00,0.00,0.00,0.00
2026-06-26 17:58:35.705,994.13,994.14,0.59,1.02,0.00,1.01,0.31,9.25,-0.00,0.00,0.00,0.00
2026-06-26 17:58:35.711,994.13,994.14,0.59,1.02,0.00,1.01,0.31,9.25,-0.00,0.00,0.00,0.00
2026-06-26 17:58:35.794,994.13,994.14,1.29,1.50,0.00,1.01,0.29,9.27,-0.00,-0.00,0.00,0.00
2026-06-26 17:58:35.800,994.13,994.14,1.29,1.50,0.00,1.01,0.29,9.27,-0.00,-0.00,0.00,0.00
2026-06-26 17:58:35.802,994.13,994.14,1.29,1.50,0.00,1.01,0.27,9.26,-0.00,0.00,-0.00,0.00
2026-06-26 17:58:35.803,994.13,994.14,1.29,1.50,0.00,1.01,0.27,9.26,-0.00,0.00,-0.00,0.00
2026-06-26 17:58:35.804,994.13,994.14,1.29,1.50,0.00,1.01,0.27,9.26,-0.00,0.00,-0.00,0.00
2026-06-26 17:58:35.805,994.13,994.14,1.29,1.50,0.00,1.01,0.27,9.26,-0.00,0.00,-0.00,0.00
2026-06-26 17:58:35.811,994.13,994.14,1.29,1.50,0.00,1.01,0.27,9.26,-0.00,0.00,-0.00,0.00
2026-06-26 17:58:35.813,994.13,994.14,1.29,1.50,0.00,1.01,0.30,9.27,0.00,-0.00,0.00,0.00
2026-06-26 17:58:35.815,994.13,994.14,1.29,1.50,0.00,1.01,0.30,9.27,0.00,-0.00,0.00,0.00
2026-06-26 17:58:35.821,994.13,994.14,1.29,1.50,0.00,1.01,0.30,9.27,0.00,-0.00,0.00,0.00
2026-06-26 17:58:35.822,994.13,994.14,1.29,1.50,0.00,1.02,0.28,9.27,0.00,-0.00,-0.00,0.00
2026-06-26 17:58:35.824,994.13,994.14,1.29,1.50,0.00,1.02,0.28,9.27,0.00,-0.00,-0.00,0.00
2026-06-26 17:58:35.825,994.13,994.14,1.29,1.50,0.00,1.02,0.28,9.27,0.00,-0.00,-0.00,0.00
2026-06-26 17:58:35.831,994.13,994.14,1.29,1.50,0.00,1.02,0.28,9.27,0.00,-0.00,-0.00,0.00
2026-06-26 17:58:35.833,994.13,994.14,1.29,1.50,0.00,1.01,0.30,9.29,0.00,0.00,0.00,0.00
2026-06-26 17:58:35.834,994.13,994.14,1.29,1.50,0.00,1.01,0.30,9.29,0.00,0.00,0.00,0.00
2026-06-26 17:58:35.836,994.13,994.14,1.29,1.50,0.00,1.01,0.30,9.29,0.00,0.00,0.00,0.00
2026-06-26 17:58:35.837,994.13,994.14,1.29,1.50,0.00,1.01,0.30,9.29,0.00,0.00,0.00,0.00
2026-06-26 17:58:35.838,994.13,994.14,1.29,1.50,0.00,1.01,0.30,9.29,0.00,0.00,0.00,0.00
2026-06-26 17:58:35.841,994.13,994.14,1.29,1.50,0.00,1.01,0.30,9.29,0.00,0.00,0.00,0.00
2026-06-26 17:58:35.842,994.13,994.14,1.29,1.50,0.00,1.02,0.30,9.28,-0.00,-0.00,0.00,0.00
2026-06-26 17:58:35.843,994.13,994.14,1.29,1.50,0.00,1.02,0.30,9.28,-0.00,-0.00,0.00,0.00
2026-06-26 17:58:35.845,994.13,994.14,1.29,1.50,0.00,1.02,0.30,9.28,-0.00,-0.00,0.00,0.00
2026-06-26 17:58:35.851,994.13,994.14,1.29,1.50,0.00,1.02,0.30,9.28,-0.00,-0.00,0.00,0.00
2026-06-26 17:58:35.853,994.13,994.14,1.29,1.50,0.00,1.02,0.33,9.27,0.00,-0.00,-0.00,0.00
2026-06-26 17:58:35.937,994.13,994.15,1.79,1.77,0.00,1.01,0.30,9.28,0.00,-0.00,0.00,0.00
2026-06-26 17:58:35.938,994.13,994.15,1.79,1.77,0.00,1.01,0.30,9.28,0.00,-0.00,0.00,0.00
2026-06-26 17:58:35.941,994.13,994.15,1.79,1.77,0.00,1.01,0.30,9.28,0.00,0.00,-0.00,0.00
2026-06-26 17:58:35.943,994.13,994.15,1.79,1.77,0.00,0.99,0.28,9.29,0.00,0.00,-0.00,0.00
2026-06-26 17:58:35.944,994.13,994.15,1.79,1.77,0.00,0.99,0.28,9.29,0.00,0.00,-0.00,0.00
2026-06-26 17:58:35.945,994.13,994.15,1.79,1.77,0.00,0.99,0.28,9.29,0.00,0.00,-0.00,0.00
2026-06-26 17:58:35.951,994.13,994.15,1.79,1.77,0.00,0.99,0.28,9.29,0.00,0.00,-0.00,0.00
2026-06-26 17:58:35.953,994.13,994.15,1.79,1.77,0.00,1.03,0.29,9.27,0.00,0.00,0.00,0.00
2026-06-26 17:58:35.954,994.13,994.15,1.79,1.77,0.00,1.03,0.29,9.27,0.00,0.00,0.00,0.00
2026-06-26 17:58:35.955,994.13,994.15,1.79,1.77,0.00,1.03,0.29,9.27,0.00,0.00,0.00,0.00
2026-06-26 17:58:35.960,994.13,994.15,1.79,1.77,0.00,1.03,0.29,9.27,0.00,0.00,0.00,0.00
2026-06-26 17:58:35.962,994.13,994.15,1.79,1.77,0.00,1.02,0.29,9.26,0.00,0.00,0.00,0.00
2026-06-26 17:58:35.963,994.13,994.15,1.79,1.77,0.00,1.02,0.29,9.26,0.00,0.00,0.00,0.00
2026-06-26 17:58:35.971,994.13,994.15,1.79,1.77,0.00,1.02,0.29,9.26,0.00,0.00,0.00,0.00
2026-06-26 17:58:35.974,994.13,994.15,1.79,1.77,0.00,1.01,0.31,9.26,0.00,-0.00,0.00,0.00
2026-06-26 17:58:35.975,994.13,994.15,1.79,1.77,0.00,1.01,0.31,9.26,0.00,-0.00,0.00,0.00
2026-06-26 17:58:35.981,994.13,994.15,1.79,1.77,0.00,1.01,0.31,9.26,0.00,-0.00,0.00,0.00
2026-06-26 17:58:35.983,994.13,994.15,1.79,1.77,0.00,1.01,0.29,9.27,-0.00,0.00,0.00,0.00
2026-06-26 17:58:35.984,994.13,994.15,1.79,1.77,0.00,1.01,0.29,9.27,-0.00,0.00,0.00,0.00
2026-06-26 17:58:35.985,994.13,994.15,1.79,1.77,0.00,1.01,0.29,9.27,-0.00,0.00,0.00,0.00
2026-06-26 17:58:35.987,994.13,994.15,1.79,1.77,0.00,1.01,0.29,9.27,-0.00,0.00,0.00,0.00
2026-06-26 17:58:35.990,994.13,994.15,1.79,1.77,0.00,1.01,0.29,9.27,-0.00,0.00,0.00,0.00
2026-06-26 17:58:35.992,994.13,994.15,1.79,1.77,0.00,1.02,0.30,9.27,0.00,0.00,-0.00,0.00
2026-06-26 17:58:35.993,994.13,994.15,1.79,1.77,0.00,1.02,0.30,9.27,0.00,0.00,-0.00,0.00
2026-06-26 17:58:35.994,994.13,994.15,1.79,1.77,0.00,1.02,0.30,9.27,0.00,0.00,-0.00,0.00
2026-06-26 17:58:35.996,994.13,994.15,1.79,1.77,0.00,1.02,0.30,9.27,0.00,0.00,-0.00,0.00
