timestamp,pressure_bag,pressure_bme,diff_pressure,v_wind_est,speed,accel_x,accel_y,accel_z,gyro_x,gyro_y,gyro_z,power
2026-06-26 16:20:06.128,994.48,994.48,-0.27,-0.69,0.00,-0.09,0.45,9.35,-0.00,-0.00,0.00,0.00
2026-06-26 16:20:06.376,994.48,994.48,0.48,0.92,0.00,-0.07,0.45,9.34,0.00,-0.00,0.00,0.00
2026-06-26 16:20:06.824,994.48,994.47,-0.69,-1.10,0.00,-0.07,0.46,9.38,-0.00,-0.00,0.00,0.00
2026-06-26 16:20:07.293,994.47,994.46,-1.19,-1.45,0.00,-0.06,0.45,9.37,0.00,0.00,-0.00,0.00
2026-06-26 16:20:07.724,994.48,994.47,-1.30,-1.51,0.00,-0.06,0.45,9.38,-0.00,0.00,0.00,0.00
2026-06-26 16:20:08.124,994.49,994.47,-2.49,-2.09,0.00,-0.09,0.46,9.32,0.00,0.00,0.00,0.00
2026-06-26 16:20:08.539,994.49,994.48,-1.30,-1.51,0.00,-0.08,0.45,9.36,0.00,0.00,0.00,0.00
2026-06-26 16:20:08.949,994.50,994.49,-0.50,-0.94,0.00,-0.07,0.45,9.37,0.00,0.00,0.00,0.00
2026-06-26 16:20:09.361,994.50,994.49,-0.80,-1.18,0.00,-0.08,0.46,9.36,0.00,0.00,0.00,0.00
2026-06-26 16:20:09.761,994.51,994.48,-2.23,-1.98,0.00,-0.08,0.44,9.35,0.00,0.00,0.00,0.00
2026-06-26 16:20:10.357,994.50,994.48,-1.95,-1.85,0.00,-0.06,0.47,9.35,0.00,0.00,-0.00,0.00
2026-06-26 16:20:10.552,994.51,994.48,-2.47,-2.09,0.00,-0.06,0.45,9.37,-0.00,-0.00,0.00,0.00
2026-06-26 16:20:10.953,994.51,994.49,-1.94,-1.85,0.00,-0.07,0.45,9.39,0.00,0.00,-0.00,0.00
2026-06-26 16:20:11.360,994.51,994.50,-1.47,-1.61,0.00,-0.06,0.46,9.32,-0.00,-0.00,0.00,0.00
2026-06-26 16:20:11.755,994.52,994.50,-2.34,-2.03,0.00,-0.09,0.46,9.35,-0.00,0.00,0.00,0.00
2026-06-26 16:20:12.160,994.51,994.51,-0.88,-1.25,0.00,-0.08,0.44,9.36,-0.00,-0.00,0.00,0.00
2026-06-26 16:20:12.555,994.51,994.51,-0.29,-0.72,0.00,-0.09,0.45,9.37,-0.00,0.00,0.00,0.00
2026-06-26 16:20:12.959,994.51,994.51,-0.11,-0.43,0.00,-0.09,0.44,9.37,-0.00,0.00,0.00,0.00
2026-06-26 16:20:13.353,994.50,994.50,-0.06,-0.33,0.00,-0.08,0.45,9.35,0.00,0.00,0.00,0.00
2026-06-26 16:20:13.766,994.51,994.51,-0.14,-0.50,0.00,-0.07,0.46,9.36,0.00,0.00,0.00,0.00
2026-06-26 16:20:14.388,994.51,994.51,-0.62,-1.05,0.00,-0.09,0.45,9.36,0.00,0.00,-0.00,0.00
2026-06-26 16:20:14.597,994.51,994.51,0.17,0.55,0.00,-0.09,0.43,9.38,-0.00,-0.00,0.00,0.00
2026-06-26 16:20:14.996,994.51,994.52,1.15,1.42,0.00,-0.09,0.45,9.35,-0.00,0.00,-0.00,0.00
2026-06-26 16:20:15.392,994.51,994.53,1.56,1.66,0.00,-0.06,0.46,9.37,0.00,0.00,-0.00,0.00
2026-06-26 16:20:15.791,994.52,994.53,0.92,1.28,0.00,-0.09,0.46,9.34,-0.00,-0.00,0.00,0.00
2026-06-26 16:20:16.192,994.52,994.52,0.36,0.80,0.00,-0.08,0.46,9.35,0.00,-0.00,0.00,0.00
2026-06-26 16:20:16.592,994.51,994.50,-0.84,-1.22,0.00,-0.08,0.45,9.35,0.00,0.00,-0.00,0.00
2026-06-26 16:20:16.997,994.52,994.51,-1.06,-1.37,0.00,-0.08,0.46,9.35,0.00,-0.00,0.00,0.00
2026-06-26 16:20:17.396,994.53,994.50,-2.28,-2.01,0.00,-0.06,0.47,9.35,-0.00,-0.00,0.00,0.00
2026-06-26 16:20:17.797,994.52,994.51,-1.73,-1.75,0.00,-0.06,0.47,9.36,0.00,-0.00,0.00,0.00
2026-06-26 16:20:18.381,994.52,994.52,-0.75,-1.15,0.00,-0.08,0.46,9.34,-0.00,0.00,0.00,0.00
2026-06-26 16:20:18.588,994.51,994.52,0.53,0.96,0.00,-0.09,0.45,9.33,0.00,-0.00,-0.00,0.00
2026-06-26 16:20:18.997,994.52,994.52,0.17,0.55,0.00,-0.07,0.45,9.36,0.00,0.00,-0.00,0.00
2026-06-26 16:20:19.407,994.51,994.53,1.33,1.54,0.00,-0.08,0.46,9.36,0.00,-0.00,-0.00,0.00
2026-06-26 16:20:19.814,994.51,994.52,1.26,1.49,0.00,-0.08,0.46,9.36,0.00,0.00,0.00,0.00
2026-06-26 16:20:20.207,994.50,994.53,2.39,2.06,0.00,-0.07,0.45,9.35,-0.00,0.00,0.00,0.00
2026-06-26 16:20:20.615,994.51,994.52,1.48,1.61,0.00,-0.09,0.45,9.38,0.00,0.00,0.00,0.00
2026-06-26 16:20:21.011,994.51,994.53,1.56,1.66,0.00,-0.07,0.43,9.34,0.00,-0.00,0.00,0.00
2026-06-26 16:20:21.425,994.52,994.53,1.09,1.39,0.00,-0.07,0.45,9.34,0.00,0.00,0.00,0.00
2026-06-26 16:20:21.818,994.51,994.52,0.95,1.29,0.00,-0.07,0.44,9.34,-0.00,0.00,0.00,0.00
2026-06-26 16:20:22.396,994.52,994.52,0.02,0.18,0.00,-0.07,0.44,9.34,-0.00,0.00,0.00,0.00
2026-06-26 16:20:22.597,994.51,994.53,1.69,1.73,0.00,-0.06,0.45,9.36,0.00,0.00,0.00,0.00
2026-06-26 16:20:22.987,994.50,994.52,2.15,1.95,0.00,-0.08,0.45,9.36,0.00,0.00,0.00,0.00
2026-06-26 16:20:23.390,994.50,994.53,2.86,2.25,0.00,-0.08,0.46,9.38,0.00,0.00,0.00,0.00
2026-06-26 16:20:23.791,994.50,994.52,2.50,2.10,0.00,-0.07,0.45,9.39,0.00,0.00,0.00,0.00
2026-06-26 16:20:24.201,994.49,994.52,2.16,1.95,0.00,-0.08,0.44,9.34,0.00,0.00,-0.00,0.00
2026-06-26 16:20:24.597,994.49,994.51,1.75,1.76,0.00,-0.07,0.46,9.33,0.00,0.00,-0.00,0.00
2026-06-26 16:20:25.009,994.49,994.51,1.51,1.64,0.00,-0.06,0.47,9.33,0.00,0.00,-0.00,0.00
2026-06-26 16:20:25.418,994.50,994.51,0.54,0.98,0.00,-0.08,0.46,8.07,0.00,0.00,-0.00,0.00
2026-06-26 16:20:25.816,994.49,994.50,0.87,1.24,0.00,-0.07,0.47,9.33,-0.00,-0.00,0.00,0.00
2026-06-26 16:20:26.409,994.49,994.50,0.73,1.14,0.00,-0.09,0.45,9.32,-0.00,-0.00,0.00,0.00
2026-06-26 16:20:26.605,994.49,994.51,2.06,1.91,0.00,-0.08,0.45,9.36,-0.00,-0.00,0.00,0.00
2026-06-26 16:20:26.993,994.49,994.51,2.69,2.18,0.00,-0.08,0.45,9.33,-0.00,0.00,0.00,0.00
2026-06-26 16:20:27.387,994.49,994.51,2.23,1.98,0.00,-0.07,0.46,9.35,0.00,0.00,-0.00,0.00
2026-06-26 16:20:27.785,994.49,994.52,2.41,2.06,0.00,-0.09,0.46,9.36,0.00,0.00,0.00,0.00
2026-06-26 16:20:28.182,994.49,994.51,1.82,1.80,0.00,-0.07,0.47,9.37,-0.00,-0.00,0.00,0.00
2026-06-26 16:20:28.573,994.49,994.51,2.52,2.11,0.00,-0.09,0.45,9.35,0.00,0.00,-0.00,0.00
2026-06-26 16:20:28.962,994.49,994.51,2.41,2.06,0.00,-0.07,0.45,9.37,0.00,-0.00,0.00,0.00
2026-06-26 16:20:29.358,994.48,994.50,1.70,1.73,0.00,-0.07,0.45,9.36,-0.00,0.00,0.00,0.00
2026-06-26 16:20:29.753,994.49,994.50,1.53,1.64,0.00,-0.08,0.43,9.35,0.00,0.00,-0.00,0.00
2026-06-26 16:20:30.355,994.48,994.51,2.37,2.05,0.00,-0.07,0.45,9.35,-0.00,0.00,-0.00,0.00
2026-06-26 16:20:30.553,994.49,994.52,3.02,2.31,0.00,-0.09,0.46,9.37,0.00,-0.00,0.00,0.00
2026-06-26 16:20:30.949,994.49,994.52,3.30,2.42,0.00,-0.08,0.45,9.36,0.00,0.00,0.00,0.00
2026-06-26 16:20:31.354,994.50,994.53,2.74,2.20,0.00,-0.08,0.46,9.37,0.00,0.00,-0.00,0.00
2026-06-26 16:20:31.758,994.50,994.53,3.48,2.48,0.00,-0.09,0.45,9.35,0.00,0.00,0.00,0.00
2026-06-26 16:20:32.153,994.49,994.53,3.26,2.40,0.00,-0.08,0.45,9.35,-0.00,0.00,0.00,0.00
2026-06-26 16:20:32.543,994.49,994.53,3.46,2.47,0.00,-0.07,0.46,9.36,0.00,-0.00,0.00,0.00
2026-06-26 16:20:32.955,994.49,994.53,3.41,2.45,0.00,-0.10,0.45,9.38,-0.00,0.00,0.00,0.00
2026-06-26 16:20:33.356,994.49,994.53,3.44,2.47,0.00,-0.11,0.44,9.37,0.00,0.00,0.00,0.00
2026-06-26 16:20:33.758,994.50,994.52,2.20,1.97,0.00,-0.07,0.46,9.34,0.00,0.00,0.00,0.00
2026-06-26 16:20:34.348,994.50,994.52,2.30,2.02,0.00,-0.09,0.45,9.35,0.00,-0.00,-0.00,0.00
2026-06-26 16:20:34.552,994.50,994.52,1.69,1.73,0.00,-0.07,0.47,9.36,0.00,-0.00,0.00,0.00
2026-06-26 16:20:34.945,994.50,994.52,1.62,1.69,0.00,-0.07,0.45,9.36,0.00,0.00,0.00,0.00
2026-06-26 16:20:35.340,994.50,994.52,1.69,1.73,0.00,-0.07,0.47,9.37,-0.00,-0.00,-0.00,0.00
2026-06-26 16:20:35.731,994.50,994.51,1.13,1.41,0.00,-0.08,0.46,9.37,0.00,-0.00,0.00,0.00
2026-06-26 16:20:36.125,994.50,994.51,0.86,1.23,0.00,-0.09,0.45,9.37,0.00,0.00,0.00,0.00
2026-06-26 16:20:36.519,994.51,994.50,-1.00,-1.33,0.00,-0.07,0.45,9.38,0.00,0.00,-0.00,0.00
2026-06-26 16:20:36.908,994.51,994.51,-0.09,-0.39,0.00,-0.09,0.45,9.34,-0.00,0.00,-0.00,0.00
2026-06-26 16:20:37.301,994.51,994.52,1.16,1.43,0.00,-0.07,0.46,9.36,-0.00,0.00,-0.00,0.00
2026-06-26 16:20:37.695,994.51,994.52,0.77,1.17,0.00,-0.06,0.45,9.35,0.00,0.00,0.00,0.00
2026-06-26 16:20:38.284,994.51,994.52,1.33,1.54,0.00,-0.09,0.45,9.32,0.00,0.00,0.00,0.00
2026-06-26 16:20:38.487,994.51,994.52,0.56,1.00,0.00,-0.09,0.45,9.33,-0.00,0.00,-0.00,0.00
2026-06-26 16:20:38.873,994.51,994.52,1.07,1.37,0.00,-0.07,0.44,9.35,0.00,0.00,-0.00,0.00
2026-06-26 16:20:39.264,994.52,994.52,0.86,1.23,0.00,-0.07,0.46,9.37,0.00,0.00,0.00,0.00
2026-06-26 16:20:39.658,994.52,994.52,0.84,1.22,0.00,-0.09,0.45,9.36,0.00,0.00,0.00,0.00
2026-06-26 16:20:40.047,994.51,994.54,2.05,1.90,0.00,-0.09,0.43,9.34,0.00,0.00,0.00,0.00
2026-06-26 16:20:40.438,994.52,994.54,1.88,1.83,0.00,-0.08,0.47,9.34,-0.00,0.00,0.00,0.00
2026-06-26 16:20:40.837,994.52,994.54,2.44,2.08,0.00,-0.08,0.44,9.34,0.00,-0.00,-0.00,0.00
2026-06-26 16:20:41.237,994.52,994.54,2.23,1.99,0.00,-0.06,0.44,9.36,0.00,-0.00,0.00,0.00
2026-06-26 16:20:41.646,994.53,994.54,1.51,1.63,0.00,-0.08,0.47,8.06,0.00,-0.00,-0.00,0.00
2026-06-26 16:20:42.239,994.53,994.54,1.03,1.35,0.00,-0.06,0.45,9.37,0.00,-0.00,0.00,0.00
2026-06-26 16:20:42.439,994.52,994.53,1.52,1.64,0.00,-0.08,0.45,9.37,0.00,0.00,0.00,0.00
2026-06-26 16:20:42.833,994.52,994.54,2.31,2.02,0.00,-0.09,0.44,9.35,0.00,0.00,0.00,0.00
2026-06-26 16:20:43.224,994.52,994.55,2.91,2.27,0.00,-0.10,0.45,9.34,0.00,0.00,-0.00,0.00
2026-06-26 16:20:43.617,994.51,994.54,3.38,2.44,0.00,-0.08,0.45,9.35,0.00,-0.00,0.00,0.00
2026-06-26 16:20:44.006,994.52,994.53,1.68,1.72,0.00,-0.07,0.46,9.36,0.00,0.00,0.00,0.00
2026-06-26 16:20:44.403,994.52,994.54,2.65,2.16,0.00,-0.07,0.47,9.33,0.00,-0.00,0.00,0.00
2026-06-26 16:20:44.801,994.51,994.54,3.00,2.30,0.00,-0.08,0.46,9.36,-0.00,0.00,0.00,0.00
2026-06-26 16:20:45.196,994.51,994.55,3.18,2.37,0.00,-0.06,0.45,9.34,-0.00,0.00,-0.00,0.00
2026-06-26 16:20:45.587,994.51,994.55,3.60,2.52,0.00,-0.08,0.46,9.37,0.00,0.00,0.00,0.00
2026-06-26 16:20:46.169,994.51,994.55,3.91,2.63,0.00,-0.08,0.45,9.34,0.00,0.00,0.00,0.00
2026-06-26 16:20:46.380,994.51,994.55,3.58,2.51,0.00,-0.07,0.43,9.36,-0.00,0.00,-0.00,0.00
2026-06-26 16:20:46.770,994.51,994.54,3.37,2.44,0.00,-0.09,0.47,9.34,0.00,-0.00,0.00,0.00
2026-06-26 16:20:47.159,994.50,994.54,3.52,2.50,0.00,-0.07,0.46,9.35,-0.00,-0.00,0.00,0.00
2026-06-26 16:20:47.562,994.50,994.54,4.14,2.70,0.00,-0.08,0.45,9.35,0.00,0.00,-0.00,0.00
2026-06-26 16:20:47.964,994.49,994.53,4.34,2.77,0.00,-0.07,0.44,9.38,0.00,0.00,0.00,0.00
2026-06-26 16:20:48.355,994.50,994.53,2.52,2.11,0.00,-0.09,0.45,9.35,-0.00,0.00,0.00,0.00
2026-06-26 16:20:48.748,994.49,994.53,3.91,2.63,0.00,-0.08,0.44,9.37,0.00,0.00,0.00,0.00
2026-06-26 16:20:49.135,994.49,994.53,3.76,2.58,0.00,-0.07,0.45,9.34,0.00,0.00,0.00,0.00
2026-06-26 16:20:49.531,994.48,994.53,4.87,2.94,0.00,-0.06,0.45,9.38,0.00,-0.00,0.00,0.00
2026-06-26 16:20:50.126,994.48,994.53,5.28,3.06,0.00,-0.08,0.47,9.36,0.00,0.00,-0.00,0.00
2026-06-26 16:20:50.328,994.49,994.54,4.61,2.86,0.00,-0.08,0.45,9.35,-0.00,0.00,-0.00,0.00
2026-06-26 16:20:50.730,994.49,994.55,5.32,3.07,0.00,-0.07,0.46,9.32,0.00,0.00,0.00,0.00
2026-06-26 16:20:51.133,994.50,994.54,4.12,2.70,0.00,-0.07,0.44,9.37,0.00,0.00,0.00,0.00
2026-06-26 16:20:51.545,994.49,994.55,5.43,3.10,0.00,-0.07,0.45,9.35,0.00,-0.00,0.00,0.00
2026-06-26 16:20:51.933,994.49,994.55,5.56,3.13,0.00,-0.07,0.44,9.34,-0.00,0.00,0.00,0.00
2026-06-26 16:20:52.331,994.50,994.55,5.22,3.04,0.00,-0.09,0.45,9.33,-0.00,0.00,0.00,0.00
2026-06-26 16:20:52.745,994.50,994.55,5.41,3.09,0.00,-0.08,0.48,9.35,-0.00,0.00,0.00,0.00
2026-06-26 16:20:53.148,994.49,994.55,5.38,3.08,0.00,-0.08,0.46,9.38,0.00,0.00,-0.00,0.00
2026-06-26 16:20:53.545,994.49,994.55,5.14,3.01,0.00,-0.07,0.46,9.36,0.00,-0.00,0.00,0.00
2026-06-26 16:20:54.139,994.50,994.55,5.47,3.11,0.00,-0.08,0.47,9.36,0.00,0.00,0.00,0.00
2026-06-26 16:20:54.340,994.50,994.55,4.90,2.94,0.00,-0.07,0.46,9.37,0.00,0.00,-0.00,0.00
2026-06-26 16:20:54.736,994.50,994.55,4.63,2.86,0.00,-0.07,0.45,9.34,0.00,0.00,0.00,0.00
2026-06-26 16:20:55.136,994.50,994.55,4.76,2.90,0.00,-0.05,0.46,9.35,0.00,0.00,0.00,0.00
2026-06-26 16:20:55.529,994.51,994.54,3.70,2.56,0.00,-0.08,0.46,9.33,0.00,0.00,0.00,0.00
2026-06-26 16:20:55.937,994.51,994.54,2.78,2.22,0.00,-0.07,0.45,9.36,0.00,-0.00,0.00,0.00
2026-06-26 16:20:56.343,994.51,994.53,2.13,1.94,0.00,-0.07,0.47,9.34,-0.00,0.00,0.00,0.00
2026-06-26 16:20:56.745,994.51,994.53,2.53,2.11,0.00,-0.09,0.44,9.36,0.00,0.00,0.00,0.00
2026-06-26 16:20:57.136,994.51,994.54,3.39,2.45,0.00,-0.06,0.45,9.35,0.00,-0.00,0.00,0.00
2026-06-26 16:20:57.533,994.51,994.53,1.80,1.79,0.00,-0.07,0.45,9.36,0.00,-0.00,0.00,0.00
2026-06-26 16:20:58.128,994.51,994.53,2.59,2.14,0.00,-0.08,0.44,9.33,0.00,-0.00,-0.00,0.00
2026-06-26 16:20:58.328,994.51,994.53,2.19,1.97,0.00,-0.05,0.45,9.32,0.00,-0.00,-0.00,0.00
2026-06-26 16:20:58.726,994.50,994.52,2.36,2.04,0.00,-0.07,0.45,9.37,-0.00,0.00,0.00,0.00
2026-06-26 16:20:59.121,994.50,994.53,3.14,2.36,0.00,-0.07,0.45,9.37,0.00,-0.00,0.00,0.00
2026-06-26 16:20:59.517,994.49,994.53,3.55,2.51,0.00,-0.08,0.45,9.36,-0.00,-0.00,0.00,0.00
2026-06-26 16:20:59.910,994.49,994.52,3.18,2.37,0.00,-0.07,0.46,9.35,0.00,0.00,0.00,0.00
2026-06-26 16:21:00.303,994.49,994.52,3.26,2.40,0.00,-0.08,0.45,9.37,-0.00,0.00,0.00,0.00
2026-06-26 16:21:00.704,994.48,994.52,4.01,2.66,0.00,-0.07,0.46,9.35,-0.00,0.00,0.00,0.00
2026-06-26 16:21:01.092,994.48,994.51,3.09,2.34,0.00,-0.08,0.45,9.34,0.00,-0.00,0.00,0.00
2026-06-26 16:21:01.491,994.48,994.51,3.45,2.47,0.00,-0.08,0.48,9.36,0.00,-0.00,-0.00,0.00
2026-06-26 16:21:02.075,994.47,994.51,3.91,2.63,0.00,-0.08,0.46,9.36,-0.00,0.00,0.00,0.00
2026-06-26 16:21:02.274,994.47,994.51,3.57,2.51,0.00,-0.07,0.44,9.36,0.00,0.00,-0.00,0.00
2026-06-26 16:21:02.670,994.47,994.51,3.39,2.45,0.00,-0.08,0.45,9.38,0.00,0.00,0.00,0.00
2026-06-26 16:21:03.061,994.47,994.51,3.63,2.53,0.00,-0.07,0.48,9.31,0.00,0.00,0.00,0.00
2026-06-26 16:21:03.468,994.47,994.50,3.05,2.32,0.00,-0.08,0.44,9.34,0.00,0.00,0.00,0.00
2026-06-26 16:21:03.861,994.47,994.51,4.90,2.95,0.00,-0.08,0.44,9.37,0.00,0.00,0.00,0.00
2026-06-26 16:21:04.260,994.47,994.51,4.59,2.85,0.00,-0.09,0.47,9.35,0.00,-0.00,0.00,0.00
2026-06-26 16:21:04.663,994.46,994.51,4.33,2.77,0.00,-0.09,0.45,9.38,0.00,-0.00,0.00,0.00
2026-06-26 16:21:05.064,994.47,994.50,2.83,2.24,0.00,-0.08,0.45,9.37,-0.00,0.00,0.00,0.00
2026-06-26 16:21:05.463,994.47,994.51,3.94,2.64,0.00,-0.08,0.49,9.35,0.00,0.00,0.00,0.00
2026-06-26 16:21:06.057,994.47,994.52,4.85,2.93,0.00,-0.06,0.45,9.37,-0.00,-0.00,-0.00,0.00
2026-06-26 16:21:06.258,994.47,994.53,5.36,3.08,0.00,-0.06,0.47,9.35,0.00,-0.00,-0.00,0.00
2026-06-26 16:21:06.656,994.47,994.52,4.50,2.82,0.00,-0.07,0.47,9.36,-0.00,0.00,0.00,0.00
2026-06-26 16:21:07.058,994.48,994.52,4.33,2.77,0.00,-0.08,0.46,9.34,0.00,0.00,-0.00,0.00
2026-06-26 16:21:07.453,994.48,994.52,4.72,2.89,0.00,-0.07,0.47,9.34,0.00,0.00,0.00,0.00
2026-06-26 16:21:07.847,994.48,994.52,4.18,2.72,0.00,-0.09,0.46,9.35,0.00,-0.00,0.00,0.00
2026-06-26 16:21:08.250,994.48,994.52,3.56,2.51,0.00,-0.07,0.45,9.36,-0.00,-0.00,0.00,0.00
2026-06-26 16:21:08.643,994.48,994.52,4.35,2.77,0.00,-0.06,0.45,9.38,0.00,-0.00,0.00,0.00
2026-06-26 16:21:09.033,994.47,994.51,4.64,2.86,0.00,-0.07,0.45,9.37,0.00,-0.00,-0.00,0.00
2026-06-26 16:21:09.421,994.47,994.51,4.21,2.73,0.00,-0.07,0.44,9.35,-0.00,0.00,0.00,0.00
2026-06-26 16:21:10.009,994.47,994.51,3.90,2.62,0.00,-0.08,0.46,9.34,0.00,0.01,0.00,0.00
2026-06-26 16:21:10.241,994.47,994.51,3.84,2.60,0.00,-0.06,0.44,9.32,-0.00,0.00,0.00,0.00
2026-06-26 16:21:10.649,994.47,994.51,3.53,2.50,0.00,-0.04,0.44,9.37,0.00,0.00,0.00,0.00
2026-06-26 16:21:11.044,994.47,994.50,3.27,2.40,0.00,-0.09,0.45,9.36,0.00,-0.01,-0.00,0.00
2026-06-26 16:21:11.440,994.46,994.50,3.89,2.62,0.00,-0.09,0.46,9.36,0.00,0.00,0.00,0.00
2026-06-26 16:21:11.835,994.46,994.50,3.31,2.42,0.00,-0.07,0.45,9.36,0.00,0.00,0.00,0.00
2026-06-26 16:21:12.230,994.47,994.50,2.99,2.30,0.00,-0.08,0.42,9.38,-0.00,0.00,0.00,0.00
2026-06-26 16:21:12.619,994.48,994.50,2.51,2.11,0.00,-0.09,0.44,9.36,0.00,-0.00,0.00,0.00
2026-06-26 16:21:13.022,994.47,994.51,3.94,2.64,0.00,-0.04,0.45,9.33,0.00,-0.00,0.00,0.00
2026-06-26 16:21:13.431,994.47,994.51,4.06,2.68,0.00,-0.07,0.45,9.36,0.00,0.00,-0.00,0.00
2026-06-26 16:21:14.021,994.47,994.50,3.11,2.35,0.00,-0.07,0.47,9.34,0.00,0.00,0.00,0.00
2026-06-26 16:21:14.238,994.47,994.51,3.44,2.47,0.00,-0.07,0.46,9.33,-0.00,0.00,0.00,0.00
2026-06-26 16:21:14.644,994.47,994.50,3.57,2.51,0.00,-0.08,0.45,9.36,0.00,0.00,-0.00,0.00
2026-06-26 16:21:15.042,994.47,994.50,3.73,2.57,0.00,-0.09,0.46,9.36,0.00,0.00,0.00,0.00
2026-06-26 16:21:15.462,994.47,994.50,3.67,2.55,0.00,-0.06,0.44,9.36,-0.00,0.00,-0.00,0.00
2026-06-26 16:21:15.858,994.46,994.50,4.21,2.73,0.00,-0.08,0.44,9.37,0.00,0.00,0.00,0.00
2026-06-26 16:21:16.266,994.47,994.50,3.38,2.45,0.00,-0.07,0.45,9.37,0.00,0.00,0.00,0.00
