timestamp,pressure_mpl,pressure_bme,diff_pressure,v_wind_est,speed,accel_x,accel_y,accel_z,gyro_x,gyro_y,gyro_z
2026-06-23 20:02:52.616,0.00,991.53,99152.52,nan,0.00,0.65,0.38,9.29,-0.00,-0.00,0.00
2026-06-23 20:02:52.619,0.00,991.53,99152.52,nan,0.00,0.66,0.39,9.26,-0.00,-0.00,0.00
2026-06-23 20:02:52.625,0.00,991.53,99152.52,nan,0.00,0.66,0.39,9.26,-0.00,-0.00,0.00
2026-06-23 20:02:52.627,0.00,991.53,99152.52,nan,0.00,0.66,0.37,9.30,0.00,-0.00,-0.00
2026-06-23 20:02:52.629,0.00,991.53,99152.52,nan,0.00,0.66,0.37,9.30,0.00,-0.00,-0.00
2026-06-23 20:02:52.632,0.00,991.53,99152.52,nan,0.00,0.66,0.37,9.30,0.00,-0.00,-0.00
2026-06-23 20:02:52.637,0.00,991.53,99152.52,nan,0.00,0.66,0.37,9.30,0.00,-0.01,0.00
2026-06-23 20:02:52.640,0.00,991.53,99152.52,nan,0.00,0.65,0.38,9.28,0.00,-0.01,0.00
2026-06-23 20:02:52.644,0.00,991.53,99152.52,nan,0.00,0.65,0.38,9.28,0.00,-0.01,0.00
2026-06-23 20:02:52.646,0.00,991.53,99152.52,nan,0.00,0.65,0.38,9.28,-0.00,0.00,-0.00
2026-06-23 20:02:52.648,0.00,991.53,99152.52,nan,0.00,0.65,0.38,9.32,-0.00,0.00,-0.00
2026-06-23 20:02:52.650,0.00,991.53,99152.52,nan,0.00,0.65,0.38,9.32,-0.00,0.00,-0.00
2026-06-23 20:02:52.656,0.00,991.53,99152.52,nan,0.00,0.65,0.38,9.32,-0.00,0.00,-0.00
2026-06-23 20:02:52.657,0.00,991.53,99152.52,nan,0.00,0.66,0.38,9.30,0.00,-0.00,0.00
2026-06-23 20:02:52.658,0.00,991.53,99152.52,nan,0.00,0.66,0.38,9.30,0.00,-0.00,0.00
2026-06-23 20:02:52.659,0.00,991.53,99152.52,nan,0.00,0.66,0.38,9.30,0.00,-0.00,0.00
2026-06-23 20:02:52.661,0.00,991.53,99152.52,nan,0.00,0.66,0.38,9.30,0.00,-0.00,0.00
2026-06-23 20:02:52.666,0.00,991.53,99152.52,nan,0.00,0.66,0.38,9.30,0.00,-0.00,0.00
2026-06-23 20:02:52.667,0.00,991.53,99152.52,nan,0.00,0.65,0.38,9.30,-0.00,0.00,0.00
2026-06-23 20:02:52.669,0.00,991.53,99152.52,nan,0.00,0.65,0.38,9.30,-0.00,0.00,0.00
2026-06-23 20:02:52.670,0.00,991.53,99152.52,nan,0.00,0.65,0.38,9.30,-0.00,0.00,0.00
2026-06-23 20:02:52.673,0.00,991.53,99152.52,nan,0.00,0.65,0.38,9.30,-0.00,0.00,0.00
2026-06-23 20:02:52.676,0.00,991.53,99152.52,nan,0.00,0.65,0.38,9.30,0.00,-0.00,0.00
2026-06-23 20:02:52.677,0.00,991.53,99152.52,nan,0.00,0.67,0.37,9.32,0.00,-0.00,0.00
2026-06-23 20:02:52.679,0.00,991.53,99152.52,nan,0.00,0.67,0.37,9.32,0.00,-0.00,0.00
2026-06-23 20:02:52.680,0.00,991.53,99152.52,nan,0.00,0.67,0.37,9.32,0.00,-0.00,0.00
2026-06-23 20:02:52.682,0.00,991.53,99152.52,nan,0.00,0.67,0.37,9.32,0.00,-0.00,0.00
2026-06-23 20:02:52.686,0.00,991.53,99152.52,nan,0.00,0.67,0.37,9.32,0.00,-0.00,0.00
2026-06-23 20:02:52.688,0.00,991.53,99152.52,nan,0.00,0.67,0.37,9.32,0.00,-0.00,0.00
2026-06-23 20:02:52.689,0.00,991.53,99152.52,nan,0.00,0.67,0.37,9.32,0.00,-0.00,0.00
2026-06-23 20:02:52.690,0.00,991.53,99152.52,nan,0.00,0.67,0.37,9.32,0.00,-0.00,0.00
2026-06-23 20:02:52.691,0.00,991.53,99152.52,nan,0.00,0.67,0.37,9.32,0.00,-0.00,0.00
2026-06-23 20:02:52.692,0.00,991.53,99152.52,nan,0.00,0.67,0.37,9.32,0.00,-0.00,0.00
2026-06-23 20:02:52.696,0.00,991.53,99152.52,nan,0.00,0.67,0.37,9.32,0.00,-0.00,0.00
2026-06-23 20:02:52.697,0.00,991.53,99152.52,nan,0.00,0.66,0.39,9.31,0.00,0.00,-0.00
2026-06-23 20:02:52.698,0.00,991.53,99152.52,nan,0.00,0.66,0.39,9.31,0.00,0.00,-0.00
2026-06-23 20:02:52.700,0.00,991.53,99152.52,nan,0.00,0.66,0.39,9.31,0.00,0.00,-0.00
2026-06-23 20:02:52.704,0.00,991.53,99152.52,nan,0.00,0.66,0.39,9.31,0.00,0.00,-0.00
2026-06-23 20:02:52.706,0.00,991.53,99152.52,nan,0.00,0.66,0.39,9.31,0.00,-0.00,0.00
2026-06-23 20:02:52.708,0.00,991.53,99152.52,nan,0.00,0.65,0.39,9.31,0.00,-0.00,0.00
2026-06-23 20:02:52.709,0.00,991.53,99152.52,nan,0.00,0.65,0.39,9.31,0.00,-0.00,0.00
2026-06-23 20:02:52.710,0.00,991.53,99152.52,nan,0.00,0.65,0.39,9.31,0.00,-0.00,0.00
2026-06-23 20:02:52.899,0.00,991.54,99154.35,nan,0.00,0.67,0.36,9.30,0.00,0.00,-0.00
2026-06-23 20:02:52.900,0.00,991.54,99154.35,nan,0.00,0.67,0.36,9.30,0.00,0.00,-0.00
2026-06-23 20:02:52.906,0.00,991.54,99154.35,nan,0.00,0.67,0.36,9.30,0.00,0.00,-0.00
2026-06-23 20:02:52.907,0.00,991.54,99154.35,nan,0.00,0.65,0.40,9.31,0.00,0.00,-0.00
2026-06-23 20:02:52.909,0.00,991.54,99154.35,nan,0.00,0.65,0.40,9.31,0.00,0.00,-0.00
2026-06-23 20:02:52.910,0.00,991.54,99154.35,nan,0.00,0.65,0.40,9.31,0.00,0.00,-0.00
2026-06-23 20:02:52.911,0.00,991.54,99154.35,nan,0.00,0.65,0.40,9.31,0.00,0.00,-0.00
2026-06-23 20:02:52.916,0.00,991.54,99154.35,nan,0.00,0.65,0.40,9.31,0.00,0.00,-0.00
2026-06-23 20:02:52.917,0.00,991.54,99154.35,nan,0.00,0.66,0.38,9.29,-0.00,0.00,0.00
2026-06-23 20:02:52.919,0.00,991.54,99154.35,nan,0.00,0.66,0.38,9.29,-0.00,0.00,0.00
2026-06-23 20:02:52.920,0.00,991.54,99154.35,nan,0.00,0.66,0.38,9.29,-0.00,0.00,0.00
2026-06-23 20:02:52.923,0.00,991.54,99154.35,nan,0.00,0.66,0.38,9.29,-0.00,0.00,0.00
2026-06-23 20:02:52.927,0.00,991.54,99154.35,nan,0.00,0.66,0.38,9.29,0.00,0.00,0.00
2026-06-23 20:02:52.928,0.00,991.54,99154.35,nan,0.00,0.66,0.39,9.31,0.00,0.00,0.00
2026-06-23 20:02:52.929,0.00,991.54,99154.35,nan,0.00,0.66,0.39,9.31,0.00,0.00,0.00
2026-06-23 20:02:52.930,0.00,991.54,99154.35,nan,0.00,0.66,0.39,9.31,0.00,0.00,0.00
2026-06-23 20:02:52.932,0.00,991.54,99154.35,nan,0.00,0.66,0.39,9.31,0.00,0.00,0.00
2026-06-23 20:02:52.937,0.00,991.54,99154.35,nan,0.00,0.66,0.39,9.31,-0.00,0.00,0.00
2026-06-23 20:02:52.938,0.00,991.54,99154.35,nan,0.00,0.65,0.37,9.29,-0.00,0.00,0.00
2026-06-23 20:02:52.940,0.00,991.54,99154.35,nan,0.00,0.65,0.37,9.29,-0.00,0.00,0.00
2026-06-23 20:02:52.941,0.00,991.54,99154.35,nan,0.00,0.65,0.37,9.29,-0.00,0.00,0.00
2026-06-23 20:02:52.942,0.00,991.54,99154.35,nan,0.00,0.65,0.37,9.29,-0.00,0.00,0.00
2026-06-23 20:02:52.943,0.00,991.54,99154.35,nan,0.00,0.65,0.37,9.29,-0.00,0.00,0.00
2026-06-23 20:02:52.944,0.00,991.54,99154.35,nan,0.00,0.65,0.37,9.29,-0.00,0.00,0.00
2026-06-23 20:02:52.946,0.00,991.54,99154.35,nan,0.00,0.65,0.37,9.29,-0.00,0.00,0.00
2026-06-23 20:02:52.948,0.00,991.54,99154.35,nan,0.00,0.66,0.37,9.30,-0.00,0.00,0.00
2026-06-23 20:02:52.949,0.00,991.54,99154.35,nan,0.00,0.66,0.37,9.30,-0.00,0.00,0.00
2026-06-23 20:02:52.951,0.00,991.54,99154.35,nan,0.00,0.66,0.37,9.30,-0.00,0.00,0.00
2026-06-23 20:02:52.956,0.00,991.54,99154.35,nan,0.00,0.66,0.37,9.30,-0.00,0.00,0.00
2026-06-23 20:02:52.957,0.00,991.54,99154.35,nan,0.00,0.67,0.37,9.30,-0.00,-0.00,0.00
2026-06-23 20:02:52.958,0.00,991.54,99154.35,nan,0.00,0.67,0.37,9.30,-0.00,-0.00,0.00
2026-06-23 20:02:52.960,0.00,991.54,99154.35,nan,0.00,0.67,0.37,9.30,-0.00,-0.00,0.00
2026-06-23 20:02:52.961,0.00,991.54,99154.35,nan,0.00,0.67,0.37,9.30,-0.00,-0.00,0.00
2026-06-23 20:02:52.964,0.00,991.54,99154.35,nan,0.00,0.67,0.37,9.30,-0.00,-0.00,0.00
2026-06-23 20:02:52.967,0.00,991.54,99154.35,nan,0.00,0.67,0.37,9.30,-0.00,-0.00,0.00
2026-06-23 20:02:52.969,0.00,991.54,99154.35,nan,0.00,0.66,0.38,9.27,-0.00,-0.00,0.00
2026-06-23 20:02:52.970,0.00,991.54,99154.35,nan,0.00,0.66,0.38,9.27,-0.00,-0.00,0.00
2026-06-23 20:02:52.972,0.00,991.54,99154.35,nan,0.00,0.66,0.38,9.27,-0.00,-0.00,0.00
2026-06-23 20:02:52.975,0.00,991.54,99154.35,nan,0.00,0.66,0.38,9.27,-0.00,-0.00,0.00
2026-06-23 20:02:52.977,0.00,991.54,99154.35,nan,0.00,0.66,0.39,9.29,-0.00,0.00,0.00
2026-06-23 20:02:52.978,0.00,991.54,99154.35,nan,0.00,0.66,0.39,9.29,-0.00,0.00,0.00
2026-06-23 20:02:52.979,0.00,991.54,99154.35,nan,0.00,0.66,0.39,9.29,-0.00,0.00,0.00
2026-06-23 20:02:52.981,0.00,991.54,99154.35,nan,0.00,0.66,0.39,9.29,-0.00,0.00,0.00
2026-06-23 20:02:52.985,0.00,991.54,99154.35,nan,0.00,0.66,0.39,9.29,-0.00,0.00,0.00
2026-06-23 20:02:52.988,0.00,991.54,99154.35,nan,0.00,0.66,0.38,9.31,-0.00,-0.00,0.00
2026-06-23 20:02:52.990,0.00,991.54,99154.35,nan,0.00,0.66,0.38,9.31,-0.00,-0.00,0.00
2026-06-23 20:02:52.991,0.00,991.54,99154.35,nan,0.00,0.66,0.38,9.31,-0.00,-0.00,0.00
2026-06-23 20:02:52.992,0.00,991.54,99154.35,nan,0.00,0.66,0.38,9.31,-0.00,-0.00,0.00
2026-06-23 20:02:52.994,0.00,991.54,99154.35,nan,0.00,0.66,0.38,9.31,-0.00,-0.00,0.00
2026-06-23 20:02:52.995,0.00,991.54,99154.35,nan,0.00,0.66,0.38,9.31,-0.00,-0.00,0.00
2026-06-23 20:02:52.997,0.00,991.54,99154.35,nan,0.00,0.66,0.38,9.31,-0.00,0.00,0.00
2026-06-23 20:02:52.998,0.00,991.54,99154.35,nan,0.00,0.67,0.40,9.31,-0.00,0.00,0.00
2026-06-23 20:02:53.188,0.00,991.48,99148.47,nan,0.00,0.66,0.37,9.31,0.00,0.00,0.00
2026-06-23 20:02:53.189,0.00,991.48,99148.47,nan,0.00,0.66,0.37,9.31,0.00,0.00,0.00
2026-06-23 20:02:53.191,0.00,991.48,99148.47,nan,0.00,0.66,0.37,9.31,0.00,0.00,0.00
2026-06-23 20:02:53.192,0.00,991.48,99148.47,nan,0.00,0.66,0.37,9.31,0.00,0.00,0.00
2026-06-23 20:02:53.193,0.00,991.48,99148.47,nan,0.00,0.66,0.37,9.31,0.00,0.00,0.00
2026-06-23 20:02:53.194,0.00,991.48,99148.47,nan,0.00,0.66,0.37,9.31,0.00,0.00,0.00
2026-06-23 20:02:53.195,0.00,991.48,99148.47,nan,0.00,0.66,0.37,9.31,0.00,0.00,0.00
2026-06-23 20:02:53.198,0.00,991.48,99148.47,nan,0.00,0.66,0.37,9.31,-0.00,0.00,0.00
2026-06-23 20:02:53.199,0.00,991.48,99148.47,nan,0.00,0.65,0.39,9.30,-0.00,0.00,0.00
2026-06-23 20:02:53.201,0.00,991.48,99148.47,nan,0.00,0.65,0.39,9.30,-0.00,0.00,0.00
2026-06-23 20:02:53.202,0.00,991.48,99148.47,nan,0.00,0.65,0.39,9.30,-0.00,0.00,0.00
2026-06-23 20:02:53.207,0.00,991.48,99148.47,nan,0.00,0.65,0.39,9.30,-0.00,0.00,0.00
2026-06-23 20:02:53.208,0.00,991.48,99148.47,nan,0.00,0.67,0.37,9.31,0.00,-0.00,0.00
2026-06-23 20:02:53.210,0.00,991.48,99148.47,nan,0.00,0.67,0.37,9.31,0.00,-0.00,0.00
2026-06-23 20:02:53.211,0.00,991.48,99148.47,nan,0.00,0.67,0.37,9.31,0.00,-0.00,0.00
2026-06-23 20:02:53.212,0.00,991.48,99148.47,nan,0.00,0.67,0.37,9.31,0.00,-0.00,0.00
2026-06-23 20:02:53.217,0.00,991.48,99148.47,nan,0.00,0.67,0.37,9.31,0.00,-0.00,0.00
2026-06-23 20:02:53.219,0.00,991.48,99148.47,nan,0.00,0.66,0.37,9.28,0.00,-0.00,0.00
2026-06-23 20:02:53.220,0.00,991.48,99148.47,nan,0.00,0.66,0.37,9.28,0.00,-0.00,0.00
2026-06-23 20:02:53.221,0.00,991.48,99148.47,nan,0.00,0.66,0.37,9.28,0.00,-0.00,0.00
2026-06-23 20:02:53.225,0.00,991.48,99148.47,nan,0.00,0.66,0.37,9.28,0.00,-0.00,0.00
2026-06-23 20:02:53.228,0.00,991.48,99148.47,nan,0.00,0.66,0.37,9.28,0.00,-0.00,0.00
2026-06-23 20:02:53.229,0.00,991.48,99148.47,nan,0.00,0.66,0.39,9.28,0.00,-0.00,0.00
2026-06-23 20:02:53.230,0.00,991.48,99148.47,nan,0.00,0.66,0.39,9.28,0.00,-0.00,0.00
2026-06-23 20:02:53.231,0.00,991.48,99148.47,nan,0.00,0.66,0.39,9.28,0.00,-0.00,0.00
2026-06-23 20:02:53.234,0.00,991.48,99148.47,nan,0.00,0.66,0.39,9.28,0.00,-0.00,0.00
2026-06-23 20:02:53.238,0.00,991.48,99148.47,nan,0.00,0.66,0.39,9.28,0.00,0.00,-0.00
2026-06-23 20:02:53.239,0.00,991.48,99148.47,nan,0.00,0.65,0.37,9.31,0.00,0.00,-0.00
2026-06-23 20:02:53.240,0.00,991.48,99148.47,nan,0.00,0.65,0.37,9.31,0.00,0.00,-0.00
2026-06-23 20:02:53.242,0.00,991.48,99148.47,nan,0.00,0.65,0.37,9.31,0.00,0.00,-0.00
2026-06-23 20:02:53.243,0.00,991.48,99148.47,nan,0.00,0.65,0.37,9.31,0.00,0.00,-0.00
2026-06-23 20:02:53.244,0.00,991.48,99148.47,nan,0.00,0.65,0.37,9.31,0.00,0.00,-0.00
2026-06-23 20:02:53.245,0.00,991.48,99148.47,nan,0.00,0.65,0.37,9.31,0.00,0.00,-0.00
2026-06-23 20:02:53.247,0.00,991.48,99148.47,nan,0.00,0.65,0.37,9.31,0.00,0.00,-0.00
2026-06-23 20:02:53.249,0.00,991.48,99148.47,nan,0.00,0.65,0.38,9.31,0.00,0.00,0.00
2026-06-23 20:02:53.250,0.00,991.48,99148.47,nan,0.00,0.65,0.38,9.31,0.00,0.00,0.00
2026-06-23 20:02:53.252,0.00,991.48,99148.47,nan,0.00,0.65,0.38,9.31,0.00,0.00,0.00
2026-06-23 20:02:53.257,0.00,991.48,99148.47,nan,0.00,0.65,0.38,9.31,0.00,0.00,0.00
2026-06-23 20:02:53.258,0.00,991.48,99148.47,nan,0.00,0.67,0.37,9.32,0.00,-0.00,0.00
2026-06-23 20:02:53.260,0.00,991.48,99148.47,nan,0.00,0.67,0.37,9.32,0.00,-0.00,0.00
2026-06-23 20:02:53.261,0.00,991.48,99148.47,nan,0.00,0.67,0.37,9.32,0.00,-0.00,0.00
2026-06-23 20:02:53.262,0.00,991.48,99148.47,nan,0.00,0.67,0.37,9.32,0.00,-0.00,0.00
2026-06-23 20:02:53.267,0.00,991.48,99148.47,nan,0.00,0.67,0.37,9.32,0.00,-0.00,0.00
2026-06-23 20:02:53.269,0.00,991.48,99148.47,nan,0.00,0.66,0.39,9.29,0.00,-0.00,-0.00
2026-06-23 20:02:53.270,0.00,991.48,99148.47,nan,0.00,0.66,0.39,9.29,0.00,-0.00,-0.00
2026-06-23 20:02:53.272,0.00,991.48,99148.47,nan,0.00,0.66,0.39,9.29,0.00,-0.00,-0.00
2026-06-23 20:02:53.273,0.00,991.48,99148.47,nan,0.00,0.66,0.39,9.29,0.00,-0.00,-0.00
2026-06-23 20:02:53.277,0.00,991.48,99148.47,nan,0.00,0.66,0.39,9.29,0.00,-0.00,-0.00
2026-06-23 20:02:53.279,0.00,991.48,99148.47,nan,0.00,0.66,0.37,9.29,0.00,-0.00,-0.00
2026-06-23 20:02:53.280,0.00,991.48,99148.47,nan,0.00,0.66,0.37,9.29,0.00,-0.00,-0.00
2026-06-23 20:02:53.281,0.00,991.48,99148.47,nan,0.00,0.66,0.37,9.29,0.00,-0.00,-0.00
2026-06-23 20:02:53.283,0.00,991.48,99148.47,nan,0.00,0.66,0.37,9.29,0.00,-0.00,-0.00
2026-06-23 20:02:53.288,0.00,991.48,99148.47,nan,0.00,0.66,0.37,9.29,0.00,-0.01,0.00
2026-06-23 20:02:53.479,0.00,991.52,99151.63,nan,0.00,0.67,0.38,9.31,0.00,-0.00,0.00
2026-06-23 20:02:53.480,0.00,991.52,99151.63,nan,0.00,0.67,0.38,9.31,0.00,-0.00,0.00
2026-06-23 20:02:53.482,0.00,991.52,99151.63,nan,0.00,0.67,0.38,9.31,0.00,-0.00,0.00
2026-06-23 20:02:53.486,0.00,991.52,99151.63,nan,0.00,0.67,0.38,9.31,0.00,-0.00,0.00
2026-06-23 20:02:53.489,0.00,991.52,99151.63,nan,0.00,0.67,0.38,9.31,0.00,-0.00,-0.00
2026-06-23 20:02:53.490,0.00,991.52,99151.63,nan,0.00,0.66,0.38,9.28,0.00,-0.00,-0.00
2026-06-23 20:02:53.491,0.00,991.52,99151.63,nan,0.00,0.66,0.38,9.28,0.00,-0.00,-0.00
2026-06-23 20:02:53.492,0.00,991.52,99151.63,nan,0.00,0.66,0.38,9.28,0.00,-0.00,-0.00
2026-06-23 20:02:53.493,0.00,991.52,99151.63,nan,0.00,0.66,0.38,9.28,0.00,-0.00,-0.00
2026-06-23 20:02:53.495,0.00,991.52,99151.63,nan,0.00,0.66,0.38,9.28,0.00,-0.00,-0.00
2026-06-23 20:02:53.496,0.00,991.52,99151.63,nan,0.00,0.66,0.38,9.28,0.00,-0.00,-0.00
2026-06-23 20:02:53.498,0.00,991.52,99151.63,nan,0.00,0.66,0.38,9.28,0.00,-0.00,0.00
2026-06-23 20:02:53.500,0.00,991.52,99151.63,nan,0.00,0.66,0.38,9.30,0.00,-0.00,0.00
2026-06-23 20:02:53.501,0.00,991.52,99151.63,nan,0.00,0.66,0.38,9.30,0.00,-0.00,0.00
2026-06-23 20:02:53.505,0.00,991.52,99151.63,nan,0.00,0.66,0.38,9.30,0.00,-0.00,0.00
2026-06-23 20:02:53.508,0.00,991.52,99151.63,nan,0.00,0.66,0.38,9.30,0.00,0.00,-0.00
2026-06-23 20:02:53.509,0.00,991.52,99151.63,nan,0.00,0.65,0.38,9.30,0.00,0.00,-0.00
2026-06-23 20:02:53.511,0.00,991.52,99151.63,nan,0.00,0.65,0.38,9.30,0.00,0.00,-0.00
2026-06-23 20:02:53.512,0.00,991.52,99151.63,nan,0.00,0.65,0.38,9.30,0.00,0.00,-0.00
2026-06-23 20:02:53.515,0.00,991.52,99151.63,nan,0.00,0.65,0.38,9.30,0.00,0.00,-0.00
2026-06-23 20:02:53.519,0.00,991.52,99151.63,nan,0.00,0.65,0.38,9.30,-0.00,-0.00,0.00
2026-06-23 20:02:53.520,0.00,991.52,99151.63,nan,0.00,0.66,0.37,9.27,-0.00,-0.00,0.00
2026-06-23 20:02:53.521,0.00,991.52,99151.63,nan,0.00,0.66,0.37,9.27,-0.00,-0.00,0.00
2026-06-23 20:02:53.524,0.00,991.52,99151.63,nan,0.00,0.66,0.37,9.27,-0.00,-0.00,0.00
2026-06-23 20:02:53.528,0.00,991.52,99151.63,nan,0.00,0.66,0.37,9.27,-0.00,-0.00,0.00
2026-06-23 20:02:53.529,0.00,991.52,99151.63,nan,0.00,0.66,0.37,9.27,-0.00,0.00,0.00
2026-06-23 20:02:53.530,0.00,991.52,99151.63,nan,0.00,0.66,0.37,9.27,-0.00,0.00,0.00
2026-06-23 20:02:53.532,0.00,991.52,99151.63,nan,0.00,0.66,0.37,9.27,-0.00,0.00,0.00
2026-06-23 20:02:53.537,0.00,991.52,99151.63,nan,0.00,0.66,0.37,9.27,-0.00,0.00,0.00
2026-06-23 20:02:53.539,0.00,991.52,99151.63,nan,0.00,0.65,0.38,9.30,-0.00,0.00,0.00
2026-06-23 20:02:53.540,0.00,991.52,99151.63,nan,0.00,0.65,0.38,9.30,-0.00,0.00,0.00
2026-06-23 20:02:53.541,0.00,991.52,99151.63,nan,0.00,0.65,0.38,9.30,-0.00,0.00,0.00
2026-06-23 20:02:53.543,0.00,991.52,99151.63,nan,0.00,0.65,0.38,9.30,-0.00,0.00,0.00
2026-06-23 20:02:53.545,0.00,991.52,99151.63,nan,0.00,0.65,0.38,9.30,-0.00,0.00,0.00
2026-06-23 20:02:53.546,0.00,991.52,99151.63,nan,0.00,0.65,0.38,9.30,-0.00,0.00,0.00
2026-06-23 20:02:53.549,0.00,991.52,99151.63,nan,0.00,0.65,0.38,9.30,0.00,-0.00,0.00
2026-06-23 20:02:53.550,0.00,991.52,99151.63,nan,0.00,0.65,0.39,9.31,0.00,-0.00,0.00
2026-06-23 20:02:53.552,0.00,991.52,99151.63,nan,0.00,0.65,0.39,9.31,0.00,-0.00,0.00
2026-06-23 20:02:53.558,0.00,991.52,99151.63,nan,0.00,0.65,0.39,9.31,0.00,-0.00,0.00
2026-06-23 20:02:53.559,0.00,991.52,99151.63,nan,0.00,0.66,0.37,9.32,0.00,-0.00,-0.00
2026-06-23 20:02:53.561,0.00,991.52,99151.63,nan,0.00,0.66,0.37,9.32,0.00,-0.00,-0.00
2026-06-23 20:02:53.562,0.00,991.52,99151.63,nan,0.00,0.66,0.37,9.32,0.00,-0.00,-0.00
2026-06-23 20:02:53.565,0.00,991.52,99151.63,nan,0.00,0.66,0.37,9.32,0.00,-0.00,-0.00
2026-06-23 20:02:53.569,0.00,991.52,99151.63,nan,0.00,0.66,0.37,9.32,-0.00,0.00,0.00
2026-06-23 20:02:53.570,0.00,991.52,99151.63,nan,0.00,0.66,0.37,9.27,-0.00,0.00,0.00
2026-06-23 20:02:53.572,0.00,991.52,99151.63,nan,0.00,0.66,0.37,9.27,-0.00,0.00,0.00
2026-06-23 20:02:53.574,0.00,991.52,99151.63,nan,0.00,0.66,0.37,9.27,-0.00,0.00,0.00
2026-06-23 20:02:53.578,0.00,991.52,99151.63,nan,0.00,0.66,0.37,9.27,0.00,-0.00,0.00
2026-06-23 20:02:53.769,0.00,991.54,99153.56,nan,0.00,0.65,0.39,9.30,-0.00,0.00,0.00
2026-06-23 20:02:53.771,0.00,991.54,99153.56,nan,0.00,0.67,0.39,9.28,-0.00,0.00,0.00
2026-06-23 20:02:53.772,0.00,991.54,99153.56,nan,0.00,0.67,0.39,9.28,-0.00,0.00,0.00
2026-06-23 20:02:53.773,0.00,991.54,99153.56,nan,0.00,0.67,0.39,9.28,-0.00,0.00,0.00
2026-06-23 20:02:53.776,0.00,991.54,99153.56,nan,0.00,0.67,0.39,9.28,-0.00,0.00,0.00
2026-06-23 20:02:53.779,0.00,991.54,99153.56,nan,0.00,0.67,0.39,9.28,0.00,0.00,-0.00
2026-06-23 20:02:53.780,0.00,991.54,99153.56,nan,0.00,0.67,0.39,9.29,0.00,0.00,-0.00
2026-06-23 20:02:53.783,0.00,991.54,99153.56,nan,0.00,0.67,0.39,9.29,0.00,0.00,-0.00
2026-06-23 20:02:53.789,0.00,991.54,99153.56,nan,0.00,0.67,0.39,9.29,0.00,0.00,-0.00
2026-06-23 20:02:53.790,0.00,991.54,99153.56,nan,0.00,0.67,0.38,9.29,0.00,0.00,0.00
2026-06-23 20:02:53.791,0.00,991.54,99153.56,nan,0.00,0.67,0.38,9.29,0.00,0.00,0.00
2026-06-23 20:02:53.792,0.00,991.54,99153.56,nan,0.00,0.67,0.38,9.29,0.00,0.00,0.00
2026-06-23 20:02:53.794,0.00,991.54,99153.56,nan,0.00,0.67,0.38,9.29,0.00,0.00,0.00
2026-06-23 20:02:53.795,0.00,991.54,99153.56,nan,0.00,0.67,0.38,9.29,0.00,0.00,0.00
2026-06-23 20:02:53.796,0.00,991.54,99153.56,nan,0.00,0.67,0.38,9.29,0.00,0.00,0.00
2026-06-23 20:02:53.798,0.00,991.54,99153.56,nan,0.00,0.67,0.38,9.29,0.00,0.00,0.00
2026-06-23 20:02:53.800,0.00,991.54,99153.56,nan,0.00,0.66,0.38,9.27,0.00,0.00,0.00
2026-06-23 20:02:53.801,0.00,991.54,99153.56,nan,0.00,0.66,0.38,9.27,0.00,0.00,0.00
2026-06-23 20:02:53.803,0.00,991.54,99153.56,nan,0.00,0.66,0.38,9.27,0.00,0.00,0.00
2026-06-23 20:02:53.809,0.00,991.54,99153.56,nan,0.00,0.66,0.38,9.27,0.00,0.00,0.00
2026-06-23 20:02:53.810,0.00,991.54,99153.56,nan,0.00,0.66,0.37,9.32,-0.00,0.00,0.00
2026-06-23 20:02:53.811,0.00,991.54,99153.56,nan,0.00,0.66,0.37,9.32,-0.00,0.00,0.00
2026-06-23 20:02:53.812,0.00,991.54,99153.56,nan,0.00,0.66,0.37,9.32,-0.00,0.00,0.00
2026-06-23 20:02:53.813,0.00,991.54,99153.56,nan,0.00,0.66,0.37,9.32,-0.00,0.00,0.00
2026-06-23 20:02:53.819,0.00,991.54,99153.56,nan,0.00,0.66,0.37,9.32,-0.00,0.00,0.00
2026-06-23 20:02:53.820,0.00,991.54,99153.56,nan,0.00,0.65,0.37,9.28,0.00,-0.00,0.00
2026-06-23 20:02:53.821,0.00,991.54,99153.56,nan,0.00,0.65,0.37,9.28,0.00,-0.00,0.00
2026-06-23 20:02:53.823,0.00,991.54,99153.56,nan,0.00,0.65,0.37,9.28,0.00,-0.00,0.00
2026-06-23 20:02:53.826,0.00,991.54,99153.56,nan,0.00,0.65,0.37,9.28,0.00,-0.00,0.00
2026-06-23 20:02:53.829,0.00,991.54,99153.56,nan,0.00,0.65,0.37,9.28,0.00,0.00,-0.00
2026-06-23 20:02:53.830,0.00,991.54,99153.56,nan,0.00,0.66,0.39,9.28,0.00,0.00,-0.00
2026-06-23 20:02:53.832,0.00,991.54,99153.56,nan,0.00,0.66,0.39,9.28,0.00,0.00,-0.00
2026-06-23 20:02:53.833,0.00,991.54,99153.56,nan,0.00,0.66,0.39,9.28,0.00,0.00,-0.00
2026-06-23 20:02:53.839,0.00,991.54,99153.56,nan,0.00,0.66,0.39,9.28,0.00,0.00,-0.00
2026-06-23 20:02:53.840,0.00,991.54,99153.56,nan,0.00,0.67,0.39,9.29,-0.00,0.00,0.00
2026-06-23 20:02:53.841,0.00,991.54,99153.56,nan,0.00,0.67,0.39,9.29,-0.00,0.00,0.00
2026-06-23 20:02:53.843,0.00,991.54,99153.56,nan,0.00,0.67,0.39,9.29,-0.00,0.00,0.00
2026-06-23 20:02:53.844,0.00,991.54,99153.56,nan,0.00,0.67,0.39,9.29,-0.00,0.00,0.00
2026-06-23 20:02:53.845,0.00,991.54,99153.56,nan,0.00,0.67,0.39,9.29,-0.00,0.00,0.00
2026-06-23 20:02:53.846,0.00,991.54,99153.56,nan,0.00,0.67,0.39,9.29,-0.00,0.00,0.00
2026-06-23 20:02:53.849,0.00,991.54,99153.56,nan,0.00,0.67,0.39,9.29,-0.00,0.00,0.00
2026-06-23 20:02:53.850,0.00,991.54,99153.56,nan,0.00,0.66,0.38,9.32,0.00,0.00,-0.00
2026-06-23 20:02:53.852,0.00,991.54,99153.56,nan,0.00,0.66,0.38,9.32,0.00,0.00,-0.00
2026-06-23 20:02:53.855,0.00,991.54,99153.56,nan,0.00,0.66,0.38,9.32,0.00,0.00,-0.00
2026-06-23 20:02:53.859,0.00,991.54,99153.56,nan,0.00,0.66,0.38,9.32,0.00,0.00,-0.00
2026-06-23 20:02:53.860,0.00,991.54,99153.56,nan,0.00,0.67,0.37,9.29,0.00,0.00,-0.00
2026-06-23 20:02:53.861,0.00,991.54,99153.56,nan,0.00,0.67,0.37,9.29,0.00,0.00,-0.00
2026-06-23 20:02:53.863,0.00,991.54,99153.56,nan,0.00,0.67,0.37,9.29,0.00,0.00,-0.00
2026-06-23 20:02:53.865,0.00,991.54,99153.56,nan,0.00,0.67,0.37,9.29,0.00,0.00,-0.00
2026-06-23 20:02:53.869,0.00,991.54,99153.56,nan,0.00,0.67,0.37,9.29,-0.00,-0.00,0.00
2026-06-23 20:02:54.067,0.00,991.56,99155.86,nan,0.00,0.66,0.37,9.30,0.00,-0.00,0.00
2026-06-23 20:02:54.071,0.00,991.56,99155.86,nan,0.00,0.66,0.37,9.27,0.00,0.00,0.00
2026-06-23 20:02:54.073,0.00,991.56,99155.86,nan,0.00,0.66,0.37,9.27,0.00,0.00,0.00
2026-06-23 20:02:54.079,0.00,991.56,99155.86,nan,0.00,0.66,0.37,9.27,0.00,0.00,0.00
2026-06-23 20:02:54.081,0.00,991.56,99155.86,nan,0.00,0.66,0.37,9.29,0.00,0.00,0.00
2026-06-23 20:02:54.083,0.00,991.56,99155.86,nan,0.00,0.66,0.37,9.29,0.00,0.00,0.00
2026-06-23 20:02:54.089,0.00,991.56,99155.86,nan,0.00,0.66,0.37,9.29,0.00,0.00,0.00
2026-06-23 20:02:54.096,0.00,991.56,99155.86,nan,0.00,0.66,0.39,9.29,0.00,0.00,0.00
2026-06-23 20:02:54.101,0.00,991.56,99155.86,nan,0.00,0.66,0.39,9.29,0.00,0.00,0.00
2026-06-23 20:02:54.103,0.00,991.56,99155.86,nan,0.00,0.66,0.39,9.29,0.00,0.00,0.00
2026-06-23 20:02:54.113,0.00,991.56,99155.86,nan,0.00,0.66,0.39,9.29,0.00,0.00,0.00
2026-06-23 20:02:54.119,0.00,991.56,99155.86,nan,0.00,0.66,0.40,9.28,0.00,0.00,0.00
2026-06-23 20:02:54.121,0.00,991.56,99155.86,nan,0.00,0.66,0.38,9.27,0.00,0.00,-0.00
2026-06-23 20:02:54.123,0.00,991.56,99155.86,nan,0.00,0.66,0.38,9.27,0.00,0.00,-0.00
2026-06-23 20:02:54.129,0.00,991.56,99155.86,nan,0.00,0.66,0.38,9.27,0.00,0.00,-0.00
2026-06-23 20:02:54.130,0.00,991.56,99155.86,nan,0.00,0.66,0.38,9.32,-0.00,0.00,0.00
2026-06-23 20:02:54.132,0.00,991.56,99155.86,nan,0.00,0.66,0.38,9.32,-0.00,0.00,0.00
2026-06-23 20:02:54.134,0.00,991.56,99155.86,nan,0.00,0.66,0.38,9.32,-0.00,0.00,0.00
2026-06-23 20:02:54.140,0.00,991.56,99155.86,nan,0.00,0.66,0.38,9.32,-0.00,0.00,0.00
2026-06-23 20:02:54.141,0.00,991.56,99155.86,nan,0.00,0.66,0.38,9.30,0.00,-0.00,0.00
2026-06-23 20:02:54.143,0.00,991.56,99155.86,nan,0.00,0.66,0.38,9.30,0.00,-0.00,0.00
2026-06-23 20:02:54.144,0.00,991.56,99155.86,nan,0.00,0.66,0.38,9.30,0.00,-0.00,0.00
2026-06-23 20:02:54.146,0.00,991.56,99155.86,nan,0.00,0.66,0.38,9.30,0.00,-0.00,0.00
2026-06-23 20:02:54.148,0.00,991.56,99155.86,nan,0.00,0.66,0.38,9.30,0.00,-0.00,0.00
2026-06-23 20:02:54.150,0.00,991.56,99155.86,nan,0.00,0.66,0.40,9.31,0.00,-0.00,0.00
2026-06-23 20:02:54.152,0.00,991.56,99155.86,nan,0.00,0.66,0.40,9.31,0.00,-0.00,0.00
2026-06-23 20:02:54.155,0.00,991.56,99155.86,nan,0.00,0.66,0.40,9.31,0.00,-0.00,0.00
2026-06-23 20:02:54.160,0.00,991.56,99155.86,nan,0.00,0.66,0.40,9.31,0.00,-0.00,0.00
2026-06-23 20:02:54.351,0.00,991.54,99154.38,nan,0.00,0.66,0.37,9.31,0.00,0.00,-0.00
2026-06-23 20:02:54.352,0.00,991.54,99154.38,nan,0.00,0.66,0.39,9.29,0.00,0.00,-0.00
2026-06-23 20:02:54.354,0.00,991.54,99154.38,nan,0.00,0.66,0.39,9.29,0.00,0.00,-0.00
2026-06-23 20:02:54.357,0.00,991.54,99154.38,nan,0.00,0.66,0.39,9.29,0.00,0.00,-0.00
2026-06-23 20:02:54.360,0.00,991.54,99154.38,nan,0.00,0.66,0.39,9.29,0.00,0.00,-0.00
2026-06-23 20:02:54.362,0.00,991.54,99154.38,nan,0.00,0.66,0.39,9.31,0.00,0.00,-0.00
2026-06-23 20:02:54.363,0.00,991.54,99154.38,nan,0.00,0.66,0.39,9.31,0.00,0.00,-0.00
2026-06-23 20:02:54.364,0.00,991.54,99154.38,nan,0.00,0.66,0.39,9.31,0.00,0.00,-0.00
2026-06-23 20:02:54.368,0.00,991.54,99154.38,nan,0.00,0.66,0.39,9.31,0.00,0.00,-0.00
2026-06-23 20:02:54.371,0.00,991.54,99154.38,nan,0.00,0.66,0.39,9.31,0.00,-0.00,0.00
2026-06-23 20:02:54.372,0.00,991.54,99154.38,nan,0.00,0.66,0.39,9.29,0.00,-0.00,0.00
2026-06-23 20:02:54.373,0.00,991.54,99154.38,nan,0.00,0.66,0.39,9.29,0.00,-0.00,0.00
2026-06-23 20:02:54.374,0.00,991.54,99154.38,nan,0.00,0.66,0.39,9.29,0.00,-0.00,0.00
2026-06-23 20:02:54.376,0.00,991.54,99154.38,nan,0.00,0.66,0.39,9.29,0.00,-0.00,0.00
2026-06-23 20:02:54.380,0.00,991.54,99154.38,nan,0.00,0.66,0.39,9.29,0.00,-0.00,0.00
2026-06-23 20:02:54.382,0.00,991.54,99154.38,nan,0.00,0.67,0.41,9.27,0.00,-0.00,0.00
2026-06-23 20:02:54.383,0.00,991.54,99154.38,nan,0.00,0.67,0.41,9.27,0.00,-0.00,0.00
2026-06-23 20:02:54.385,0.00,991.54,99154.38,nan,0.00,0.67,0.41,9.27,0.00,-0.00,0.00
2026-06-23 20:02:54.390,0.00,991.54,99154.38,nan,0.00,0.67,0.41,9.27,0.00,-0.00,0.00
2026-06-23 20:02:54.392,0.00,991.54,99154.38,nan,0.00,0.67,0.38,9.30,0.00,-0.00,0.00
2026-06-23 20:02:54.393,0.00,991.54,99154.38,nan,0.00,0.67,0.38,9.30,0.00,-0.00,0.00
2026-06-23 20:02:54.394,0.00,991.54,99154.38,nan,0.00,0.67,0.38,9.30,0.00,-0.00,0.00
2026-06-23 20:02:54.396,0.00,991.54,99154.38,nan,0.00,0.67,0.38,9.30,0.00,-0.00,0.00
2026-06-23 20:02:54.397,0.00,991.54,99154.38,nan,0.00,0.67,0.38,9.30,0.00,-0.00,0.00
2026-06-23 20:02:54.399,0.00,991.54,99154.38,nan,0.00,0.67,0.38,9.30,0.00,-0.00,0.00
2026-06-23 20:02:54.401,0.00,991.54,99154.38,nan,0.00,0.67,0.38,9.32,0.00,0.00,0.00
2026-06-23 20:02:54.403,0.00,991.54,99154.38,nan,0.00,0.67,0.38,9.32,0.00,0.00,0.00
2026-06-23 20:02:54.404,0.00,991.54,99154.38,nan,0.00,0.67,0.38,9.32,0.00,0.00,0.00
2026-06-23 20:02:54.409,0.00,991.54,99154.38,nan,0.00,0.67,0.38,9.32,0.00,0.00,0.00
2026-06-23 20:02:54.411,0.00,991.54,99154.38,nan,0.00,0.67,0.38,9.31,0.00,0.00,-0.00
2026-06-23 20:02:54.412,0.00,991.54,99154.38,nan,0.00,0.67,0.38,9.31,0.00,0.00,-0.00
2026-06-23 20:02:54.413,0.00,991.54,99154.38,nan,0.00,0.67,0.38,9.31,0.00,0.00,-0.00
2026-06-23 20:02:54.415,0.00,991.54,99154.38,nan,0.00,0.67,0.38,9.31,0.00,0.00,-0.00
2026-06-23 20:02:54.420,0.00,991.54,99154.38,nan,0.00,0.67,0.38,9.31,0.00,0.00,-0.00
2026-06-23 20:02:54.421,0.00,991.54,99154.38,nan,0.00,0.66,0.38,9.28,0.00,0.00,0.00
2026-06-23 20:02:54.423,0.00,991.54,99154.38,nan,0.00,0.66,0.38,9.28,0.00,0.00,0.00
2026-06-23 20:02:54.424,0.00,991.54,99154.38,nan,0.00,0.66,0.38,9.28,0.00,0.00,0.00
2026-06-23 20:02:54.427,0.00,991.54,99154.38,nan,0.00,0.66,0.38,9.28,0.00,0.00,0.00
2026-06-23 20:02:54.431,0.00,991.54,99154.38,nan,0.00,0.66,0.38,9.28,0.00,0.00,0.00
2026-06-23 20:02:54.432,0.00,991.54,99154.38,nan,0.00,0.65,0.39,9.27,0.00,0.00,0.00
2026-06-23 20:02:54.434,0.00,991.54,99154.38,nan,0.00,0.65,0.39,9.27,0.00,0.00,0.00
2026-06-23 20:02:54.438,0.00,991.54,99154.38,nan,0.00,0.65,0.39,9.27,0.00,0.00,0.00
2026-06-23 20:02:54.441,0.00,991.54,99154.38,nan,0.00,0.65,0.39,9.27,0.00,0.00,0.00
2026-06-23 20:02:54.442,0.00,991.54,99154.38,nan,0.00,0.66,0.39,9.29,0.00,0.00,0.00
2026-06-23 20:02:54.444,0.00,991.54,99154.38,nan,0.00,0.66,0.39,9.29,0.00,0.00,0.00
2026-06-23 20:02:54.446,0.00,991.54,99154.38,nan,0.00,0.66,0.39,9.29,0.00,0.00,0.00
2026-06-23 20:02:54.447,0.00,991.54,99154.38,nan,0.00,0.66,0.39,9.29,0.00,0.00,0.00
2026-06-23 20:02:54.449,0.00,991.54,99154.38,nan,0.00,0.66,0.39,9.29,0.00,0.00,0.00
2026-06-23 20:02:54.642,0.00,991.56,99155.82,nan,0.00,0.66,0.38,9.28,0.00,-0.00,0.00
2026-06-23 20:02:54.643,0.00,991.56,99155.82,nan,0.00,0.65,0.37,9.31,0.00,-0.00,0.00
2026-06-23 20:02:54.645,0.00,991.56,99155.82,nan,0.00,0.65,0.37,9.31,0.00,-0.00,0.00
2026-06-23 20:02:54.646,0.00,991.56,99155.82,nan,0.00,0.65,0.37,9.31,0.00,-0.00,0.00
2026-06-23 20:02:54.648,0.00,991.56,99155.82,nan,0.00,0.65,0.37,9.31,0.00,-0.00,0.00
2026-06-23 20:02:54.651,0.00,991.56,99155.82,nan,0.00,0.65,0.37,9.31,0.00,-0.00,0.00
2026-06-23 20:02:54.653,0.00,991.56,99155.82,nan,0.00,0.66,0.38,9.28,-0.00,-0.00,-0.00
2026-06-23 20:02:54.655,0.00,991.56,99155.82,nan,0.00,0.66,0.38,9.28,-0.00,-0.00,-0.00
2026-06-23 20:02:54.661,0.00,991.56,99155.82,nan,0.00,0.66,0.38,9.28,-0.00,-0.00,-0.00
2026-06-23 20:02:54.662,0.00,991.56,99155.82,nan,0.00,0.66,0.40,9.31,0.00,-0.00,-0.00
2026-06-23 20:02:54.663,0.00,991.56,99155.82,nan,0.00,0.66,0.40,9.31,0.00,-0.00,-0.00
2026-06-23 20:02:54.665,0.00,991.56,99155.82,nan,0.00,0.66,0.40,9.31,0.00,-0.00,-0.00
2026-06-23 20:02:54.670,0.00,991.56,99155.82,nan,0.00,0.66,0.40,9.31,0.00,-0.00,-0.00
2026-06-23 20:02:54.671,0.00,991.56,99155.82,nan,0.00,0.67,0.38,9.28,0.00,-0.00,0.00
2026-06-23 20:02:54.673,0.00,991.56,99155.82,nan,0.00,0.67,0.38,9.28,0.00,-0.00,0.00
2026-06-23 20:02:54.674,0.00,991.56,99155.82,nan,0.00,0.67,0.38,9.28,0.00,-0.00,0.00
2026-06-23 20:02:54.675,0.00,991.56,99155.82,nan,0.00,0.67,0.38,9.28,0.00,-0.00,0.00
2026-06-23 20:02:54.676,0.00,991.56,99155.82,nan,0.00,0.67,0.38,9.28,0.00,-0.00,0.00
2026-06-23 20:02:54.681,0.00,991.56,99155.82,nan,0.00,0.67,0.38,9.28,0.00,-0.00,0.00
2026-06-23 20:02:54.682,0.00,991.56,99155.82,nan,0.00,0.65,0.39,9.30,0.00,-0.00,-0.00
2026-06-23 20:02:54.684,0.00,991.56,99155.82,nan,0.00,0.65,0.39,9.30,0.00,-0.00,-0.00
2026-06-23 20:02:54.686,0.00,991.56,99155.82,nan,0.00,0.65,0.39,9.30,0.00,-0.00,-0.00
2026-06-23 20:02:54.691,0.00,991.56,99155.82,nan,0.00,0.65,0.39,9.30,0.00,-0.00,-0.00
2026-06-23 20:02:54.692,0.00,991.56,99155.82,nan,0.00,0.66,0.36,9.29,0.00,-0.00,0.00
2026-06-23 20:02:54.693,0.00,991.56,99155.82,nan,0.00,0.66,0.36,9.29,0.00,-0.00,0.00
2026-06-23 20:02:54.695,0.00,991.56,99155.82,nan,0.00,0.66,0.36,9.29,0.00,-0.00,0.00
2026-06-23 20:02:54.696,0.00,991.56,99155.82,nan,0.00,0.66,0.36,9.29,0.00,-0.00,0.00
2026-06-23 20:02:54.697,0.00,991.56,99155.82,nan,0.00,0.66,0.36,9.29,0.00,-0.00,0.00
2026-06-23 20:02:54.698,0.00,991.56,99155.82,nan,0.00,0.66,0.36,9.29,0.00,-0.00,0.00
2026-06-23 20:02:54.701,0.00,991.56,99155.82,nan,0.00,0.66,0.36,9.29,0.00,0.00,-0.00
2026-06-23 20:02:54.703,0.00,991.56,99155.82,nan,0.00,0.66,0.36,9.28,0.00,0.00,-0.00
2026-06-23 20:02:54.704,0.00,991.56,99155.82,nan,0.00,0.66,0.36,9.28,0.00,0.00,-0.00
2026-06-23 20:02:54.706,0.00,991.56,99155.82,nan,0.00,0.66,0.36,9.28,0.00,0.00,-0.00
2026-06-23 20:02:54.711,0.00,991.56,99155.82,nan,0.00,0.66,0.36,9.28,0.00,0.00,-0.00
2026-06-23 20:02:54.712,0.00,991.56,99155.82,nan,0.00,0.66,0.38,9.29,0.00,0.00,0.00
2026-06-23 20:02:54.714,0.00,991.56,99155.82,nan,0.00,0.66,0.38,9.29,0.00,0.00,0.00
2026-06-23 20:02:54.715,0.00,991.56,99155.82,nan,0.00,0.66,0.38,9.29,0.00,0.00,0.00
2026-06-23 20:02:54.721,0.00,991.56,99155.82,nan,0.00,0.66,0.38,9.29,0.00,0.00,0.00
2026-06-23 20:02:54.723,0.00,991.56,99155.82,nan,0.00,0.66,0.39,9.30,0.00,0.00,-0.00
2026-06-23 20:02:54.724,0.00,991.56,99155.82,nan,0.00,0.66,0.39,9.30,0.00,0.00,-0.00
2026-06-23 20:02:54.725,0.00,991.56,99155.82,nan,0.00,0.66,0.39,9.30,0.00,0.00,-0.00
2026-06-23 20:02:54.731,0.00,991.56,99155.82,nan,0.00,0.66,0.39,9.30,0.00,0.00,-0.00
2026-06-23 20:02:54.732,0.00,991.56,99155.82,nan,0.00,0.66,0.38,9.31,0.00,0.00,-0.00
2026-06-23 20:02:54.734,0.00,991.56,99155.82,nan,0.00,0.66,0.38,9.31,0.00,0.00,-0.00
2026-06-23 20:02:54.735,0.00,991.56,99155.82,nan,0.00,0.66,0.38,9.31,0.00,0.00,-0.00
2026-06-23 20:02:54.741,0.00,991.56,99155.82,nan,0.00,0.66,0.38,9.31,0.00,0.00,-0.00
2026-06-23 20:02:54.932,0.00,991.51,99151.40,nan,0.00,0.66,0.38,9.30,0.00,0.00,0.00
2026-06-23 20:02:54.934,0.00,991.51,99151.40,nan,0.00,0.67,0.38,9.28,0.00,0.00,0.00
2026-06-23 20:02:54.935,0.00,991.51,99151.40,nan,0.00,0.67,0.38,9.28,0.00,0.00,0.00
2026-06-23 20:02:54.941,0.00,991.51,99151.40,nan,0.00,0.67,0.38,9.28,0.00,0.00,0.00
2026-06-23 20:02:54.942,0.00,991.51,99151.40,nan,0.00,0.67,0.38,9.29,0.00,-0.00,0.00
2026-06-23 20:02:54.944,0.00,991.51,99151.40,nan,0.00,0.67,0.38,9.29,0.00,-0.00,0.00
2026-06-23 20:02:54.945,0.00,991.51,99151.40,nan,0.00,0.67,0.38,9.29,0.00,-0.00,0.00
2026-06-23 20:02:54.946,0.00,991.51,99151.40,nan,0.00,0.67,0.38,9.29,0.00,-0.00,0.00
2026-06-23 20:02:54.947,0.00,991.51,99151.40,nan,0.00,0.67,0.38,9.29,0.00,-0.00,0.00
2026-06-23 20:02:54.949,0.00,991.51,99151.40,nan,0.00,0.67,0.38,9.29,0.00,-0.00,0.00
2026-06-23 20:02:54.952,0.00,991.51,99151.40,nan,0.00,0.67,0.38,9.29,0.00,-0.00,0.00
2026-06-23 20:02:54.953,0.00,991.51,99151.40,nan,0.00,0.66,0.38,9.31,0.00,0.00,0.00
2026-06-23 20:02:54.954,0.00,991.51,99151.40,nan,0.00,0.66,0.38,9.31,0.00,0.00,0.00
2026-06-23 20:02:54.956,0.00,991.51,99151.40,nan,0.00,0.66,0.38,9.31,0.00,0.00,0.00
2026-06-23 20:02:54.961,0.00,991.51,99151.40,nan,0.00,0.66,0.38,9.31,0.00,0.00,0.00
2026-06-23 20:02:54.962,0.00,991.51,99151.40,nan,0.00,0.66,0.38,9.30,0.00,-0.00,0.00
2026-06-23 20:02:54.964,0.00,991.51,99151.40,nan,0.00,0.66,0.38,9.30,0.00,-0.00,0.00
2026-06-23 20:02:54.965,0.00,991.51,99151.40,nan,0.00,0.66,0.38,9.30,0.00,-0.00,0.00
2026-06-23 20:02:54.968,0.00,991.51,99151.40,nan,0.00,0.66,0.38,9.30,0.00,-0.00,0.00
2026-06-23 20:02:54.972,0.00,991.51,99151.40,nan,0.00,0.66,0.38,9.30,0.00,0.00,0.00
2026-06-23 20:02:54.973,0.00,991.51,99151.40,nan,0.00,0.67,0.39,9.30,0.00,0.00,0.00
2026-06-23 20:02:54.974,0.00,991.51,99151.40,nan,0.00,0.67,0.39,9.30,0.00,0.00,0.00
2026-06-23 20:02:54.976,0.00,991.51,99151.40,nan,0.00,0.67,0.39,9.30,0.00,0.00,0.00
2026-06-23 20:02:54.977,0.00,991.51,99151.40,nan,0.00,0.67,0.39,9.30,0.00,0.00,0.00
2026-06-23 20:02:54.982,0.00,991.51,99151.40,nan,0.00,0.67,0.39,9.30,0.00,0.00,0.00
2026-06-23 20:02:54.983,0.00,991.51,99151.40,nan,0.00,0.66,0.39,9.29,0.00,0.00,-0.00
2026-06-23 20:02:54.985,0.00,991.51,99151.40,nan,0.00,0.66,0.39,9.29,0.00,0.00,-0.00
2026-06-23 20:02:54.986,0.00,991.51,99151.40,nan,0.00,0.66,0.39,9.29,0.00,0.00,-0.00
2026-06-23 20:02:54.992,0.00,991.51,99151.40,nan,0.00,0.66,0.39,9.29,0.00,0.00,-0.00
2026-06-23 20:02:54.993,0.00,991.51,99151.40,nan,0.00,0.66,0.38,9.31,-0.00,-0.00,0.00
2026-06-23 20:02:54.994,0.00,991.51,99151.40,nan,0.00,0.66,0.38,9.31,-0.00,-0.00,0.00
2026-06-23 20:02:54.995,0.00,991.51,99151.40,nan,0.00,0.66,0.38,9.31,-0.00,-0.00,0.00
2026-06-23 20:02:54.996,0.00,991.51,99151.40,nan,0.00,0.66,0.38,9.31,-0.00,-0.00,0.00
2026-06-23 20:02:54.998,0.00,991.51,99151.40,nan,0.00,0.66,0.38,9.31,-0.00,-0.00,0.00
2026-06-23 20:02:54.999,0.00,991.51,99151.40,nan,0.00,0.66,0.38,9.31,-0.00,-0.00,0.00
2026-06-23 20:02:54.002,0.00,991.51,99151.40,nan,0.00,0.66,0.38,9.31,0.00,-0.00,-0.00
2026-06-23 20:02:54.003,0.00,991.51,99151.40,nan,0.00,0.66,0.39,9.29,0.00,-0.00,-0.00
2026-06-23 20:02:55.005,0.00,991.51,99151.40,nan,0.00,0.66,0.39,9.29,0.00,-0.00,-0.00
2026-06-23 20:02:55.006,0.00,991.51,99151.40,nan,0.00,0.66,0.39,9.29,0.00,-0.00,-0.00
2026-06-23 20:02:55.011,0.00,991.51,99151.40,nan,0.00,0.66,0.39,9.29,0.00,-0.00,-0.00
2026-06-23 20:02:55.012,0.00,991.51,99151.40,nan,0.00,0.66,0.38,9.31,0.00,-0.00,-0.00
2026-06-23 20:02:55.014,0.00,991.51,99151.40,nan,0.00,0.66,0.38,9.31,0.00,-0.00,-0.00
2026-06-23 20:02:55.015,0.00,991.51,99151.40,nan,0.00,0.66,0.38,9.31,0.00,-0.00,-0.00
2026-06-23 20:02:55.018,0.00,991.51,99151.40,nan,0.00,0.66,0.38,9.31,0.00,-0.00,-0.00
2026-06-23 20:02:55.022,0.00,991.51,99151.40,nan,0.00,0.66,0.38,9.31,-0.00,0.00,0.00
2026-06-23 20:02:55.023,0.00,991.51,99151.40,nan,0.00,0.67,0.38,9.28,-0.00,0.00,0.00
2026-06-23 20:02:55.024,0.00,991.51,99151.40,nan,0.00,0.67,0.38,9.28,-0.00,0.00,0.00
2026-06-23 20:02:55.026,0.00,991.51,99151.40,nan,0.00,0.67,0.38,9.28,-0.00,0.00,0.00
2026-06-23 20:02:55.029,0.00,991.51,99151.40,nan,0.00,0.67,0.38,9.28,-0.00,0.00,0.00
2026-06-23 20:02:55.032,0.00,991.51,99151.40,nan,0.00,0.67,0.38,9.28,0.00,0.00,0.00
2026-06-23 20:02:55.223,0.00,991.54,99153.93,nan,0.00,0.66,0.38,9.32,-0.00,0.00,0.00
2026-06-23 20:02:55.224,0.00,991.54,99153.93,nan,0.00,0.66,0.37,9.27,-0.00,0.00,0.00
2026-06-23 20:02:55.225,0.00,991.54,99153.93,nan,0.00,0.66,0.37,9.27,-0.00,0.00,0.00
2026-06-23 20:02:55.227,0.00,991.54,99153.93,nan,0.00,0.66,0.37,9.27,-0.00,0.00,0.00
2026-06-23 20:02:55.231,0.00,991.54,99153.93,nan,0.00,0.66,0.37,9.27,-0.00,0.00,0.00
2026-06-23 20:02:55.233,0.00,991.54,99153.93,nan,0.00,0.65,0.40,9.26,0.00,-0.00,0.00
2026-06-23 20:02:55.235,0.00,991.54,99153.93,nan,0.00,0.65,0.40,9.26,0.00,-0.00,0.00
2026-06-23 20:02:55.236,0.00,991.54,99153.93,nan,0.00,0.65,0.40,9.26,0.00,-0.00,0.00
2026-06-23 20:02:55.241,0.00,991.54,99153.93,nan,0.00,0.65,0.40,9.26,0.00,-0.00,0.00
2026-06-23 20:02:55.243,0.00,991.54,99153.93,nan,0.00,0.67,0.38,9.30,-0.00,0.00,-0.00
2026-06-23 20:02:55.244,0.00,991.54,99153.93,nan,0.00,0.67,0.38,9.30,-0.00,0.00,-0.00
2026-06-23 20:02:55.246,0.00,991.54,99153.93,nan,0.00,0.67,0.38,9.30,-0.00,0.00,-0.00
2026-06-23 20:02:55.247,0.00,991.54,99153.93,nan,0.00,0.67,0.38,9.30,-0.00,0.00,-0.00
2026-06-23 20:02:55.248,0.00,991.54,99153.93,nan,0.00,0.67,0.38,9.30,-0.00,0.00,-0.00
2026-06-23 20:02:55.250,0.00,991.54,99153.93,nan,0.00,0.67,0.38,9.30,-0.00,0.00,-0.00
2026-06-23 20:02:55.253,0.00,991.54,99153.93,nan,0.00,0.67,0.38,9.30,-0.00,-0.00,-0.00
2026-06-23 20:02:55.255,0.00,991.54,99153.93,nan,0.00,0.67,0.39,9.30,-0.00,-0.00,-0.00
2026-06-23 20:02:55.256,0.00,991.54,99153.93,nan,0.00,0.67,0.39,9.30,-0.00,-0.00,-0.00
2026-06-23 20:02:55.262,0.00,991.54,99153.93,nan,0.00,0.67,0.39,9.30,-0.00,-0.00,-0.00
2026-06-23 20:02:55.263,0.00,991.54,99153.93,nan,0.00,0.67,0.39,9.30,-0.00,0.00,0.00
2026-06-23 20:02:55.265,0.00,991.54,99153.93,nan,0.00,0.67,0.39,9.30,-0.00,0.00,0.00
2026-06-23 20:02:55.266,0.00,991.54,99153.93,nan,0.00,0.67,0.39,9.30,-0.00,0.00,0.00
2026-06-23 20:02:55.271,0.00,991.54,99153.93,nan,0.00,0.67,0.39,9.30,-0.00,0.00,0.00
2026-06-23 20:02:55.273,0.00,991.54,99153.93,nan,0.00,0.67,0.39,9.30,0.00,0.00,-0.00
2026-06-23 20:02:55.274,0.00,991.54,99153.93,nan,0.00,0.66,0.38,9.30,0.00,0.00,-0.00
2026-06-23 20:02:55.275,0.00,991.54,99153.93,nan,0.00,0.66,0.38,9.30,0.00,0.00,-0.00
2026-06-23 20:02:55.276,0.00,991.54,99153.93,nan,0.00,0.66,0.38,9.30,0.00,0.00,-0.00
2026-06-23 20:02:55.278,0.00,991.54,99153.93,nan,0.00,0.66,0.38,9.30,0.00,0.00,-0.00
2026-06-23 20:02:55.282,0.00,991.54,99153.93,nan,0.00,0.66,0.38,9.30,0.00,0.00,-0.00
2026-06-23 20:02:55.284,0.00,991.54,99153.93,nan,0.00,0.66,0.40,9.32,-0.00,-0.00,0.00
2026-06-23 20:02:55.285,0.00,991.54,99153.93,nan,0.00,0.66,0.40,9.32,-0.00,-0.00,0.00
2026-06-23 20:02:55.287,0.00,991.54,99153.93,nan,0.00,0.66,0.40,9.32,-0.00,-0.00,0.00
2026-06-23 20:02:55.292,0.00,991.54,99153.93,nan,0.00,0.66,0.40,9.32,-0.00,-0.00,0.00
2026-06-23 20:02:55.294,0.00,991.54,99153.93,nan,0.00,0.66,0.38,9.29,-0.00,0.00,-0.00
2026-06-23 20:02:55.295,0.00,991.54,99153.93,nan,0.00,0.66,0.38,9.29,-0.00,0.00,-0.00
2026-06-23 20:02:55.296,0.00,991.54,99153.93,nan,0.00,0.66,0.38,9.29,-0.00,0.00,-0.00
2026-06-23 20:02:55.297,0.00,991.54,99153.93,nan,0.00,0.66,0.38,9.29,-0.00,0.00,-0.00
2026-06-23 20:02:55.299,0.00,991.54,99153.93,nan,0.00,0.66,0.38,9.29,-0.00,0.00,-0.00
2026-06-23 20:02:55.300,0.00,991.54,99153.93,nan,0.00,0.66,0.38,9.29,-0.00,0.00,-0.00
2026-06-23 20:02:55.303,0.00,991.54,99153.93,nan,0.00,0.66,0.38,9.29,0.00,0.00,-0.00
2026-06-23 20:02:55.304,0.00,991.54,99153.93,nan,0.00,0.66,0.38,9.33,0.00,0.00,-0.00
2026-06-23 20:02:55.306,0.00,991.54,99153.93,nan,0.00,0.66,0.38,9.33,0.00,0.00,-0.00
2026-06-23 20:02:55.307,0.00,991.54,99153.93,nan,0.00,0.66,0.38,9.33,0.00,0.00,-0.00
2026-06-23 20:02:55.312,0.00,991.54,99153.93,nan,0.00,0.66,0.38,9.33,0.00,0.00,-0.00
2026-06-23 20:02:55.313,0.00,991.54,99153.93,nan,0.00,0.67,0.38,9.32,0.00,0.00,0.00
2026-06-23 20:02:55.315,0.00,991.54,99153.93,nan,0.00,0.67,0.38,9.32,0.00,0.00,0.00
2026-06-23 20:02:55.316,0.00,991.54,99153.93,nan,0.00,0.67,0.38,9.32,0.00,0.00,0.00
2026-06-23 20:02:55.321,0.00,991.54,99153.93,nan,0.00,0.67,0.38,9.32,0.00,0.00,0.00
2026-06-23 20:02:55.513,0.00,991.53,99152.64,nan,0.00,0.66,0.38,9.28,-0.00,0.00,0.00
2026-06-23 20:02:55.514,0.00,991.53,99152.64,nan,0.00,0.65,0.36,9.29,-0.00,0.00,0.00
2026-06-23 20:02:55.516,0.00,991.53,99152.64,nan,0.00,0.65,0.36,9.29,-0.00,0.00,0.00
2026-06-23 20:02:55.518,0.00,991.53,99152.64,nan,0.00,0.65,0.36,9.29,-0.00,0.00,0.00
2026-06-23 20:02:55.523,0.00,991.53,99152.64,nan,0.00,0.65,0.36,9.29,-0.00,0.00,0.00
2026-06-23 20:02:55.524,0.00,991.53,99152.64,nan,0.00,0.66,0.37,9.27,-0.00,0.00,-0.00
2026-06-23 20:02:55.525,0.00,991.53,99152.64,nan,0.00,0.66,0.37,9.27,-0.00,0.00,-0.00
2026-06-23 20:02:55.527,0.00,991.53,99152.64,nan,0.00,0.66,0.37,9.27,-0.00,0.00,-0.00
2026-06-23 20:02:55.530,0.00,991.53,99152.64,nan,0.00,0.66,0.37,9.27,-0.00,0.00,-0.00
2026-06-23 20:02:55.534,0.00,991.53,99152.64,nan,0.00,0.66,0.37,9.27,0.00,-0.00,0.00
2026-06-23 20:02:55.535,0.00,991.53,99152.64,nan,0.00,0.66,0.38,9.33,0.00,-0.00,0.00
2026-06-23 20:02:55.537,0.00,991.53,99152.64,nan,0.00,0.66,0.38,9.33,0.00,-0.00,0.00
2026-06-23 20:02:55.541,0.00,991.53,99152.64,nan,0.00,0.66,0.38,9.33,0.00,-0.00,0.00
2026-06-23 20:02:55.544,0.00,991.53,99152.64,nan,0.00,0.66,0.38,9.33,-0.00,-0.00,0.00
2026-06-23 20:02:55.545,0.00,991.53,99152.64,nan,0.00,0.65,0.35,9.32,-0.00,-0.00,0.00
2026-06-23 20:02:55.547,0.00,991.53,99152.64,nan,0.00,0.65,0.35,9.32,-0.00,-0.00,0.00
2026-06-23 20:02:55.548,0.00,991.53,99152.64,nan,0.00,0.65,0.35,9.32,-0.00,-0.00,0.00
2026-06-23 20:02:55.550,0.00,991.53,99152.64,nan,0.00,0.65,0.35,9.32,-0.00,-0.00,0.00
2026-06-23 20:02:55.551,0.00,991.53,99152.64,nan,0.00,0.65,0.35,9.32,-0.00,-0.00,0.00
2026-06-23 20:02:55.554,0.00,991.53,99152.64,nan,0.00,0.66,0.36,9.30,0.00,-0.00,0.00
2026-06-23 20:02:55.556,0.00,991.53,99152.64,nan,0.00,0.66,0.36,9.30,0.00,-0.00,0.00
2026-06-23 20:02:55.558,0.00,991.53,99152.64,nan,0.00,0.66,0.36,9.30,0.00,-0.00,0.00
2026-06-23 20:02:55.563,0.00,991.53,99152.64,nan,0.00,0.66,0.36,9.30,0.00,-0.00,0.00
2026-06-23 20:02:55.564,0.00,991.53,99152.64,nan,0.00,0.65,0.40,9.31,0.00,-0.00,0.00
2026-06-23 20:02:55.566,0.00,991.53,99152.64,nan,0.00,0.65,0.40,9.31,0.00,-0.00,0.00
2026-06-23 20:02:55.567,0.00,991.53,99152.64,nan,0.00,0.65,0.40,9.31,0.00,-0.00,0.00
2026-06-23 20:02:55.573,0.00,991.53,99152.64,nan,0.00,0.65,0.40,9.31,0.00,-0.00,0.00
2026-06-23 20:02:55.574,0.00,991.53,99152.64,nan,0.00,0.66,0.35,9.29,0.00,0.00,-0.00
2026-06-23 20:02:55.576,0.00,991.53,99152.64,nan,0.00,0.66,0.35,9.29,0.00,0.00,-0.00
2026-06-23 20:02:55.577,0.00,991.53,99152.64,nan,0.00,0.66,0.35,9.29,0.00,0.00,-0.00
2026-06-23 20:02:55.578,0.00,991.53,99152.64,nan,0.00,0.66,0.35,9.29,0.00,0.00,-0.00
2026-06-23 20:02:55.582,0.00,991.53,99152.64,nan,0.00,0.66,0.35,9.29,0.00,0.00,-0.00
2026-06-23 20:02:55.584,0.00,991.53,99152.64,nan,0.00,0.66,0.38,9.29,-0.00,-0.00,-0.00
2026-06-23 20:02:55.586,0.00,991.53,99152.64,nan,0.00,0.66,0.38,9.29,-0.00,-0.00,-0.00
2026-06-23 20:02:55.587,0.00,991.53,99152.64,nan,0.00,0.66,0.38,9.29,-0.00,-0.00,-0.00
2026-06-23 20:02:55.593,0.00,991.53,99152.64,nan,0.00,0.66,0.38,9.29,-0.00,-0.00,-0.00
2026-06-23 20:02:55.594,0.00,991.53,99152.64,nan,0.00,0.66,0.36,9.30,0.00,0.00,0.00
2026-06-23 20:02:55.596,0.00,991.53,99152.64,nan,0.00,0.66,0.36,9.30,0.00,0.00,0.00
2026-06-23 20:02:55.597,0.00,991.53,99152.64,nan,0.00,0.66,0.36,9.30,0.00,0.00,0.00
2026-06-23 20:02:55.598,0.00,991.53,99152.64,nan,0.00,0.66,0.36,9.30,0.00,0.00,0.00
2026-06-23 20:02:55.600,0.00,991.53,99152.64,nan,0.00,0.66,0.36,9.30,0.00,0.00,0.00
2026-06-23 20:02:55.605,0.00,991.53,99152.64,nan,0.00,0.66,0.37,9.31,0.00,0.00,0.00
2026-06-23 20:02:55.607,0.00,991.53,99152.64,nan,0.00,0.66,0.37,9.31,0.00,0.00,0.00
2026-06-23 20:02:55.611,0.00,991.53,99152.64,nan,0.00,0.66,0.37,9.31,0.00,0.00,0.00
2026-06-23 20:02:55.799,0.00,991.58,99157.75,nan,0.00,0.66,0.37,9.28,-0.00,0.00,0.00
2026-06-23 20:02:55.803,0.00,991.58,99157.75,nan,0.00,0.66,0.37,9.28,-0.00,0.00,0.00
2026-06-23 20:02:55.806,0.00,991.58,99157.75,nan,0.00,0.66,0.39,9.27,0.00,-0.00,0.00
2026-06-23 20:02:55.811,0.00,991.58,99157.75,nan,0.00,0.66,0.39,9.27,0.00,-0.00,0.00
2026-06-23 20:02:55.815,0.00,991.58,99157.75,nan,0.00,0.66,0.39,9.27,-0.00,-0.00,0.00
2026-06-23 20:02:55.818,0.00,991.58,99157.75,nan,0.00,0.66,0.39,9.34,-0.00,-0.00,0.00
2026-06-23 20:02:55.824,0.00,991.58,99157.75,nan,0.00,0.66,0.39,9.34,-0.00,-0.00,0.00
2026-06-23 20:02:55.825,0.00,991.58,99157.75,nan,0.00,0.65,0.36,9.28,0.00,0.00,-0.00
2026-06-23 20:02:55.827,0.00,991.58,99157.75,nan,0.00,0.65,0.36,9.28,0.00,0.00,-0.00
2026-06-23 20:02:55.832,0.00,991.58,99157.75,nan,0.00,0.65,0.36,9.28,0.00,0.00,-0.00
2026-06-23 20:02:55.835,0.00,991.58,99157.75,nan,0.00,0.65,0.36,9.28,0.00,0.00,0.00
2026-06-23 20:02:55.836,0.00,991.58,99157.75,nan,0.00,0.66,0.40,9.27,0.00,0.00,0.00
2026-06-23 20:02:55.839,0.00,991.58,99157.75,nan,0.00,0.66,0.40,9.27,0.00,0.00,0.00
2026-06-23 20:02:55.844,0.00,991.58,99157.75,nan,0.00,0.66,0.40,9.27,0.00,-0.00,0.00
2026-06-23 20:02:55.847,0.00,991.58,99157.75,nan,0.00,0.67,0.39,9.31,0.00,-0.00,0.00
2026-06-23 20:02:55.850,0.00,991.58,99157.75,nan,0.00,0.67,0.39,9.31,0.00,-0.00,0.00
2026-06-23 20:02:55.854,0.00,991.58,99157.75,nan,0.00,0.67,0.39,9.31,0.00,-0.00,0.00
2026-06-23 20:02:55.856,0.00,991.58,99157.75,nan,0.00,0.67,0.37,9.31,0.00,-0.00,-0.00
2026-06-23 20:02:55.857,0.00,991.58,99157.75,nan,0.00,0.67,0.37,9.31,0.00,-0.00,-0.00
2026-06-23 20:02:55.864,0.00,991.58,99157.75,nan,0.00,0.67,0.37,9.31,0.00,-0.00,-0.00
2026-06-23 20:02:55.866,0.00,991.58,99157.75,nan,0.00,0.66,0.37,9.32,0.00,0.00,0.00
2026-06-23 20:02:55.867,0.00,991.58,99157.75,nan,0.00,0.66,0.37,9.32,0.00,0.00,0.00
2026-06-23 20:02:55.874,0.00,991.58,99157.75,nan,0.00,0.66,0.37,9.32,0.00,0.00,0.00
2026-06-23 20:02:55.875,0.00,991.58,99157.75,nan,0.00,0.67,0.37,9.29,0.00,0.00,0.00
2026-06-23 20:02:55.877,0.00,991.58,99157.75,nan,0.00,0.67,0.37,9.29,0.00,0.00,0.00
2026-06-23 20:02:55.879,0.00,991.58,99157.75,nan,0.00,0.67,0.37,9.29,0.00,0.00,0.00
2026-06-23 20:02:55.884,0.00,991.58,99157.75,nan,0.00,0.67,0.37,9.29,-0.00,0.00,0.00
2026-06-23 20:02:55.886,0.00,991.58,99157.75,nan,0.00,0.67,0.38,9.29,-0.00,0.00,0.00
2026-06-23 20:02:55.887,0.00,991.58,99157.75,nan,0.00,0.67,0.38,9.29,-0.00,0.00,0.00
2026-06-23 20:02:55.891,0.00,991.58,99157.75,nan,0.00,0.67,0.38,9.29,-0.00,0.00,0.00
2026-06-23 20:02:55.895,0.00,991.58,99157.75,nan,0.00,0.67,0.38,9.29,0.00,-0.00,-0.00
2026-06-23 20:02:55.897,0.00,991.58,99157.75,nan,0.00,0.66,0.38,9.30,0.00,-0.00,-0.00
2026-06-23 20:02:55.899,0.00,991.58,99157.75,nan,0.00,0.66,0.38,9.30,0.00,-0.00,-0.00
2026-06-23 20:02:56.095,0.00,991.57,99156.50,nan,0.00,0.66,0.37,9.29,0.00,-0.00,0.00
2026-06-23 20:02:56.096,0.00,991.57,99156.50,nan,0.00,0.65,0.37,9.29,0.00,-0.00,0.00
2026-06-23 20:02:56.097,0.00,991.57,99156.50,nan,0.00,0.65,0.37,9.29,0.00,-0.00,0.00
2026-06-23 20:02:56.099,0.00,991.57,99156.50,nan,0.00,0.65,0.37,9.29,0.00,-0.00,0.00
2026-06-23 20:02:56.100,0.00,991.57,99156.50,nan,0.00,0.65,0.37,9.29,0.00,-0.00,0.00
2026-06-23 20:02:56.101,0.00,991.57,99156.50,nan,0.00,0.65,0.37,9.29,0.00,-0.00,0.00
2026-06-23 20:02:56.105,0.00,991.57,99156.50,nan,0.00,0.65,0.37,9.29,0.00,0.00,0.00
2026-06-23 20:02:56.106,0.00,991.57,99156.50,nan,0.00,0.66,0.37,9.31,0.00,0.00,0.00
2026-06-23 20:02:56.108,0.00,991.57,99156.50,nan,0.00,0.66,0.37,9.31,0.00,0.00,0.00
2026-06-23 20:02:56.109,0.00,991.57,99156.50,nan,0.00,0.66,0.37,9.31,0.00,0.00,0.00
2026-06-23 20:02:56.114,0.00,991.57,99156.50,nan,0.00,0.66,0.37,9.31,0.00,0.00,0.00
2026-06-23 20:02:56.115,0.00,991.57,99156.50,nan,0.00,0.67,0.38,9.28,0.00,0.00,0.00
2026-06-23 20:02:56.117,0.00,991.57,99156.50,nan,0.00,0.67,0.38,9.28,0.00,0.00,0.00
2026-06-23 20:02:56.118,0.00,991.57,99156.50,nan,0.00,0.67,0.38,9.28,0.00,0.00,0.00
2026-06-23 20:02:56.123,0.00,991.57,99156.50,nan,0.00,0.67,0.38,9.28,0.00,0.00,0.00
2026-06-23 20:02:56.125,0.00,991.57,99156.50,nan,0.00,0.66,0.39,9.28,0.00,-0.00,0.00
2026-06-23 20:02:56.126,0.00,991.57,99156.50,nan,0.00,0.66,0.39,9.28,0.00,-0.00,0.00
2026-06-23 20:02:56.128,0.00,991.57,99156.50,nan,0.00,0.66,0.39,9.28,0.00,-0.00,0.00
2026-06-23 20:02:56.129,0.00,991.57,99156.50,nan,0.00,0.66,0.39,9.28,0.00,-0.00,0.00
2026-06-23 20:02:56.133,0.00,991.57,99156.50,nan,0.00,0.66,0.39,9.28,0.00,-0.00,0.00
2026-06-23 20:02:56.135,0.00,991.57,99156.50,nan,0.00,0.67,0.40,9.29,0.00,0.00,0.00
2026-06-23 20:02:56.137,0.00,991.57,99156.50,nan,0.00,0.67,0.40,9.29,0.00,0.00,0.00
2026-06-23 20:02:56.138,0.00,991.57,99156.50,nan,0.00,0.67,0.40,9.29,0.00,0.00,0.00
2026-06-23 20:02:56.141,0.00,991.57,99156.50,nan,0.00,0.67,0.40,9.29,0.00,0.00,0.00
2026-06-23 20:02:56.145,0.00,991.57,99156.50,nan,0.00,0.67,0.40,9.29,0.00,0.00,0.00
2026-06-23 20:02:56.146,0.00,991.57,99156.50,nan,0.00,0.66,0.39,9.32,0.00,0.00,0.00
2026-06-23 20:02:56.147,0.00,991.57,99156.50,nan,0.00,0.66,0.39,9.32,0.00,0.00,0.00
2026-06-23 20:02:56.149,0.00,991.57,99156.50,nan,0.00,0.66,0.39,9.32,0.00,0.00,0.00
2026-06-23 20:02:56.150,0.00,991.57,99156.50,nan,0.00,0.66,0.39,9.32,0.00,0.00,0.00
2026-06-23 20:02:56.152,0.00,991.57,99156.50,nan,0.00,0.66,0.39,9.32,0.00,0.00,0.00
2026-06-23 20:02:56.154,0.00,991.57,99156.50,nan,0.00,0.66,0.39,9.32,0.00,0.00,0.00
2026-06-23 20:02:56.156,0.00,991.57,99156.50,nan,0.00,0.66,0.39,9.31,0.00,-0.00,0.00
2026-06-23 20:02:56.157,0.00,991.57,99156.50,nan,0.00,0.66,0.39,9.31,0.00,-0.00,0.00
2026-06-23 20:02:56.158,0.00,991.57,99156.50,nan,0.00,0.66,0.39,9.31,0.00,-0.00,0.00
2026-06-23 20:02:56.161,0.00,991.57,99156.50,nan,0.00,0.66,0.39,9.31,0.00,-0.00,0.00
2026-06-23 20:02:56.165,0.00,991.57,99156.50,nan,0.00,0.66,0.39,9.31,0.00,0.00,-0.00
2026-06-23 20:02:56.166,0.00,991.57,99156.50,nan,0.00,0.67,0.38,9.33,0.00,0.00,-0.00
2026-06-23 20:02:56.168,0.00,991.57,99156.50,nan,0.00,0.67,0.38,9.33,0.00,0.00,-0.00
2026-06-23 20:02:56.171,0.00,991.57,99156.50,nan,0.00,0.67,0.38,9.33,0.00,0.00,-0.00
2026-06-23 20:02:56.175,0.00,991.57,99156.50,nan,0.00,0.67,0.38,9.33,0.00,0.00,-0.00
2026-06-23 20:02:56.176,0.00,991.57,99156.50,nan,0.00,0.66,0.37,9.30,0.00,0.00,-0.00
2026-06-23 20:02:56.177,0.00,991.57,99156.50,nan,0.00,0.66,0.37,9.30,0.00,0.00,-0.00
2026-06-23 20:02:56.178,0.00,991.57,99156.50,nan,0.00,0.66,0.37,9.30,0.00,0.00,-0.00
2026-06-23 20:02:56.179,0.00,991.57,99156.50,nan,0.00,0.66,0.37,9.30,0.00,0.00,-0.00
2026-06-23 20:02:56.183,0.00,991.57,99156.50,nan,0.00,0.66,0.37,9.30,0.00,0.00,-0.00
2026-06-23 20:02:56.185,0.00,991.57,99156.50,nan,0.00,0.66,0.38,9.30,0.00,-0.00,-0.00
2026-06-23 20:02:56.187,0.00,991.57,99156.50,nan,0.00,0.66,0.38,9.30,0.00,-0.00,-0.00
2026-06-23 20:02:56.188,0.00,991.57,99156.50,nan,0.00,0.66,0.38,9.30,0.00,-0.00,-0.00
2026-06-23 20:02:56.190,0.00,991.57,99156.50,nan,0.00,0.66,0.38,9.30,0.00,-0.00,-0.00
2026-06-23 20:02:56.379,0.00,991.58,99157.72,nan,0.00,0.67,0.38,9.30,0.00,-0.00,0.00
2026-06-23 20:02:56.385,0.00,991.58,99157.72,nan,0.00,0.67,0.38,9.30,0.00,-0.00,0.00
2026-06-23 20:02:56.386,0.00,991.58,99157.72,nan,0.00,0.66,0.37,9.28,0.00,-0.00,0.00
2026-06-23 20:02:56.388,0.00,991.58,99157.72,nan,0.00,0.66,0.37,9.28,0.00,-0.00,0.00
2026-06-23 20:02:56.389,0.00,991.58,99157.72,nan,0.00,0.66,0.37,9.28,0.00,-0.00,0.00
2026-06-23 20:02:56.391,0.00,991.58,99157.72,nan,0.00,0.66,0.37,9.28,0.00,-0.00,0.00
2026-06-23 20:02:56.396,0.00,991.58,99157.72,nan,0.00,0.66,0.37,9.28,0.00,-0.00,0.00
2026-06-23 20:02:56.397,0.00,991.58,99157.72,nan,0.00,0.65,0.39,9.29,0.00,-0.00,0.00
2026-06-23 20:02:56.398,0.00,991.58,99157.72,nan,0.00,0.65,0.39,9.29,0.00,-0.00,0.00
2026-06-23 20:02:56.400,0.00,991.58,99157.72,nan,0.00,0.65,0.39,9.29,0.00,-0.00,0.00
2026-06-23 20:02:56.401,0.00,991.58,99157.72,nan,0.00,0.65,0.39,9.29,0.00,-0.00,0.00
2026-06-23 20:02:56.403,0.00,991.58,99157.72,nan,0.00,0.65,0.39,9.29,0.00,-0.00,0.00
2026-06-23 20:02:56.406,0.00,991.58,99157.72,nan,0.00,0.65,0.39,9.29,-0.00,-0.00,0.00
2026-06-23 20:02:56.407,0.00,991.58,99157.72,nan,0.00,0.67,0.38,9.31,-0.00,-0.00,0.00
2026-06-23 20:02:56.408,0.00,991.58,99157.72,nan,0.00,0.67,0.38,9.31,-0.00,-0.00,0.00
2026-06-23 20:02:56.409,0.00,991.58,99157.72,nan,0.00,0.67,0.38,9.31,-0.00,-0.00,0.00
2026-06-23 20:02:56.413,0.00,991.58,99157.72,nan,0.00,0.67,0.38,9.31,-0.00,-0.00,0.00
2026-06-23 20:02:56.416,0.00,991.58,99157.72,nan,0.00,0.67,0.38,9.31,-0.00,-0.00,0.00
2026-06-23 20:02:56.417,0.00,991.58,99157.72,nan,0.00,0.66,0.37,9.31,-0.00,-0.00,0.00
2026-06-23 20:02:56.419,0.00,991.58,99157.72,nan,0.00,0.66,0.37,9.31,-0.00,-0.00,0.00
2026-06-23 20:02:56.424,0.00,991.58,99157.72,nan,0.00,0.66,0.37,9.31,-0.00,-0.00,0.00
2026-06-23 20:02:56.426,0.00,991.58,99157.72,nan,0.00,0.66,0.37,9.31,-0.00,0.00,-0.00
2026-06-23 20:02:56.427,0.00,991.58,99157.72,nan,0.00,0.66,0.38,9.28,-0.00,0.00,-0.00
2026-06-23 20:02:56.428,0.00,991.58,99157.72,nan,0.00,0.66,0.38,9.28,-0.00,0.00,-0.00
2026-06-23 20:02:56.429,0.00,991.58,99157.72,nan,0.00,0.66,0.38,9.28,-0.00,0.00,-0.00
2026-06-23 20:02:56.433,0.00,991.58,99157.72,nan,0.00,0.66,0.38,9.28,-0.00,0.00,-0.00
2026-06-23 20:02:56.436,0.00,991.58,99157.72,nan,0.00,0.66,0.38,9.28,0.00,0.00,0.00
2026-06-23 20:02:56.437,0.00,991.58,99157.72,nan,0.00,0.66,0.39,9.31,0.00,0.00,0.00
2026-06-23 20:02:56.438,0.00,991.58,99157.72,nan,0.00,0.66,0.39,9.31,0.00,0.00,0.00
2026-06-23 20:02:56.440,0.00,991.58,99157.72,nan,0.00,0.66,0.39,9.31,0.00,0.00,0.00
2026-06-23 20:02:56.445,0.00,991.58,99157.72,nan,0.00,0.66,0.39,9.31,0.00,0.00,0.00
2026-06-23 20:02:56.446,0.00,991.58,99157.72,nan,0.00,0.66,0.37,9.30,0.00,-0.00,-0.00
2026-06-23 20:02:56.448,0.00,991.58,99157.72,nan,0.00,0.66,0.37,9.30,0.00,-0.00,-0.00
2026-06-23 20:02:56.449,0.00,991.58,99157.72,nan,0.00,0.66,0.37,9.30,0.00,-0.00,-0.00
2026-06-23 20:02:56.451,0.00,991.58,99157.72,nan,0.00,0.66,0.37,9.30,0.00,-0.00,-0.00
2026-06-23 20:02:56.452,0.00,991.58,99157.72,nan,0.00,0.66,0.37,9.30,0.00,-0.00,-0.00
2026-06-23 20:02:56.455,0.00,991.58,99157.72,nan,0.00,0.66,0.37,9.30,0.00,-0.00,-0.00
2026-06-23 20:02:56.456,0.00,991.58,99157.72,nan,0.00,0.66,0.40,9.32,0.00,0.00,0.00
2026-06-23 20:02:56.458,0.00,991.58,99157.72,nan,0.00,0.66,0.40,9.32,0.00,0.00,0.00
2026-06-23 20:02:56.459,0.00,991.58,99157.72,nan,0.00,0.66,0.40,9.32,0.00,0.00,0.00
2026-06-23 20:02:56.460,0.00,991.58,99157.72,nan,0.00,0.66,0.40,9.32,0.00,0.00,0.00
2026-06-23 20:02:56.465,0.00,991.58,99157.72,nan,0.00,0.66,0.40,9.32,0.00,0.00,0.00
2026-06-23 20:02:56.467,0.00,991.58,99157.72,nan,0.00,0.65,0.37,9.30,-0.00,0.00,0.00
2026-06-23 20:02:56.468,0.00,991.58,99157.72,nan,0.00,0.65,0.37,9.30,-0.00,0.00,0.00
2026-06-23 20:02:56.471,0.00,991.58,99157.72,nan,0.00,0.65,0.37,9.30,-0.00,0.00,0.00
2026-06-23 20:02:56.475,0.00,991.58,99157.72,nan,0.00,0.65,0.37,9.30,0.00,0.00,-0.00
2026-06-23 20:02:56.477,0.00,991.58,99157.72,nan,0.00,0.66,0.37,9.31,0.00,0.00,-0.00
2026-06-23 20:02:56.478,0.00,991.58,99157.72,nan,0.00,0.66,0.37,9.31,0.00,0.00,-0.00
2026-06-23 20:02:56.479,0.00,991.58,99157.72,nan,0.00,0.66,0.37,9.31,0.00,0.00,-0.00
2026-06-23 20:02:56.670,0.00,991.55,99154.97,nan,0.00,0.66,0.37,9.30,-0.00,0.00,-0.00
2026-06-23 20:02:56.676,0.00,991.55,99154.97,nan,0.00,0.66,0.37,9.30,-0.00,0.00,-0.00
2026-06-23 20:02:56.677,0.00,991.55,99154.97,nan,0.00,0.65,0.39,9.28,-0.00,0.00,0.00
2026-06-23 20:02:56.678,0.00,991.55,99154.97,nan,0.00,0.65,0.39,9.28,-0.00,0.00,0.00
2026-06-23 20:02:56.679,0.00,991.55,99154.97,nan,0.00,0.65,0.39,9.28,-0.00,0.00,0.00
2026-06-23 20:02:56.680,0.00,991.55,99154.97,nan,0.00,0.65,0.39,9.28,-0.00,0.00,0.00
2026-06-23 20:02:56.684,0.00,991.55,99154.97,nan,0.00,0.65,0.39,9.28,-0.00,0.00,0.00
2026-06-23 20:02:56.687,0.00,991.55,99154.97,nan,0.00,0.66,0.40,9.32,0.00,-0.00,0.00
2026-06-23 20:02:56.688,0.00,991.55,99154.97,nan,0.00,0.66,0.40,9.32,0.00,-0.00,0.00
2026-06-23 20:02:56.689,0.00,991.55,99154.97,nan,0.00,0.66,0.40,9.32,0.00,-0.00,0.00
2026-06-23 20:02:56.690,0.00,991.55,99154.97,nan,0.00,0.66,0.40,9.32,0.00,-0.00,0.00
2026-06-23 20:02:56.696,0.00,991.55,99154.97,nan,0.00,0.66,0.40,9.32,0.00,-0.00,0.00
2026-06-23 20:02:56.697,0.00,991.55,99154.97,nan,0.00,0.67,0.41,9.31,0.00,-0.00,0.00
2026-06-23 20:02:56.699,0.00,991.55,99154.97,nan,0.00,0.67,0.41,9.31,0.00,-0.00,0.00
2026-06-23 20:02:56.700,0.00,991.55,99154.97,nan,0.00,0.67,0.41,9.31,0.00,-0.00,0.00
2026-06-23 20:02:56.702,0.00,991.55,99154.97,nan,0.00,0.67,0.41,9.31,0.00,-0.00,0.00
2026-06-23 20:02:56.703,0.00,991.55,99154.97,nan,0.00,0.67,0.41,9.31,0.00,-0.00,0.00
2026-06-23 20:02:56.706,0.00,991.55,99154.97,nan,0.00,0.67,0.41,9.31,0.00,0.00,-0.00
2026-06-23 20:02:56.707,0.00,991.55,99154.97,nan,0.00,0.65,0.38,9.32,0.00,0.00,-0.00
2026-06-23 20:02:56.709,0.00,991.55,99154.97,nan,0.00,0.65,0.38,9.32,0.00,0.00,-0.00
2026-06-23 20:02:56.710,0.00,991.55,99154.97,nan,0.00,0.65,0.38,9.32,0.00,0.00,-0.00
2026-06-23 20:02:56.713,0.00,991.55,99154.97,nan,0.00,0.65,0.38,9.32,0.00,0.00,-0.00
2026-06-23 20:02:56.716,0.00,991.55,99154.97,nan,0.00,0.65,0.38,9.32,0.00,0.00,0.00
2026-06-23 20:02:56.719,0.00,991.55,99154.97,nan,0.00,0.66,0.39,9.29,0.00,0.00,0.00
2026-06-23 20:02:56.725,0.00,991.55,99154.97,nan,0.00,0.66,0.39,9.29,0.00,0.00,0.00
2026-06-23 20:02:56.727,0.00,991.55,99154.97,nan,0.00,0.66,0.39,9.27,0.00,-0.00,0.00
2026-06-23 20:02:56.728,0.00,991.55,99154.97,nan,0.00,0.66,0.39,9.27,0.00,-0.00,0.00
2026-06-23 20:02:56.729,0.00,991.55,99154.97,nan,0.00,0.66,0.39,9.27,0.00,-0.00,0.00
2026-06-23 20:02:56.730,0.00,991.55,99154.97,nan,0.00,0.66,0.39,9.27,0.00,-0.00,0.00
2026-06-23 20:02:56.736,0.00,991.55,99154.97,nan,0.00,0.66,0.39,9.27,0.00,-0.00,0.00
2026-06-23 20:02:56.737,0.00,991.55,99154.97,nan,0.00,0.66,0.37,9.28,-0.00,-0.00,0.00
2026-06-23 20:02:56.739,0.00,991.55,99154.97,nan,0.00,0.66,0.37,9.28,-0.00,-0.00,0.00
2026-06-23 20:02:56.740,0.00,991.55,99154.97,nan,0.00,0.66,0.37,9.28,-0.00,-0.00,0.00
2026-06-23 20:02:56.743,0.00,991.55,99154.97,nan,0.00,0.66,0.37,9.28,-0.00,-0.00,0.00
2026-06-23 20:02:56.746,0.00,991.55,99154.97,nan,0.00,0.66,0.37,9.28,-0.00,0.00,0.00
2026-06-23 20:02:56.748,0.00,991.55,99154.97,nan,0.00,0.66,0.36,9.30,-0.00,0.00,0.00
2026-06-23 20:02:56.749,0.00,991.55,99154.97,nan,0.00,0.66,0.36,9.30,-0.00,0.00,0.00
2026-06-23 20:02:56.751,0.00,991.55,99154.97,nan,0.00,0.66,0.36,9.30,-0.00,0.00,0.00
2026-06-23 20:02:56.752,0.00,991.55,99154.97,nan,0.00,0.66,0.36,9.30,-0.00,0.00,0.00
2026-06-23 20:02:56.754,0.00,991.55,99154.97,nan,0.00,0.66,0.36,9.30,-0.00,0.00,0.00
2026-06-23 20:02:56.756,0.00,991.55,99154.97,nan,0.00,0.66,0.36,9.30,0.00,0.00,0.00
2026-06-23 20:02:56.758,0.00,991.55,99154.97,nan,0.00,0.66,0.39,9.28,0.00,0.00,0.00
2026-06-23 20:02:56.759,0.00,991.55,99154.97,nan,0.00,0.66,0.39,9.28,0.00,0.00,0.00
2026-06-23 20:02:56.760,0.00,991.55,99154.97,nan,0.00,0.66,0.39,9.28,0.00,0.00,0.00
2026-06-23 20:02:56.765,0.00,991.55,99154.97,nan,0.00,0.66,0.39,9.28,0.00,0.00,0.00
2026-06-23 20:02:56.767,0.00,991.55,99154.97,nan,0.00,0.66,0.37,9.28,0.00,0.00,0.00
2026-06-23 20:02:56.769,0.00,991.55,99154.97,nan,0.00,0.66,0.37,9.28,0.00,0.00,0.00
2026-06-23 20:02:56.958,0.00,991.56,99156.40,nan,0.00,0.67,0.39,9.29,0.00,0.00,0.00
2026-06-23 20:02:56.959,0.00,991.56,99156.40,nan,0.00,0.67,0.39,9.29,0.00,0.00,0.00
2026-06-23 20:02:56.960,0.00,991.56,99156.40,nan,0.00,0.67,0.39,9.29,0.00,0.00,0.00
2026-06-23 20:02:56.964,0.00,991.56,99156.40,nan,0.00,0.67,0.39,9.29,0.00,0.00,0.00
2026-06-23 20:02:56.967,0.00,991.56,99156.40,nan,0.00,0.67,0.39,9.29,0.00,-0.00,-0.00
2026-06-23 20:02:56.969,0.00,991.56,99156.40,nan,0.00,0.66,0.39,9.32,0.00,-0.00,-0.00
2026-06-23 20:02:56.970,0.00,991.56,99156.40,nan,0.00,0.66,0.39,9.32,0.00,-0.00,-0.00
2026-06-23 20:02:56.974,0.00,991.56,99156.40,nan,0.00,0.66,0.39,9.32,0.00,-0.00,-0.00
2026-06-23 20:02:56.977,0.00,991.56,99156.40,nan,0.00,0.66,0.39,9.32,0.00,0.00,0.00
2026-06-23 20:02:56.978,0.00,991.56,99156.40,nan,0.00,0.66,0.38,9.27,0.00,0.00,0.00
2026-06-23 20:02:56.979,0.00,991.56,99156.40,nan,0.00,0.66,0.38,9.27,0.00,0.00,0.00
2026-06-23 20:02:56.981,0.00,991.56,99156.40,nan,0.00,0.66,0.38,9.27,0.00,0.00,0.00
2026-06-23 20:02:56.982,0.00,991.56,99156.40,nan,0.00,0.66,0.38,9.27,0.00,0.00,0.00
2026-06-23 20:02:56.987,0.00,991.56,99156.40,nan,0.00,0.66,0.38,9.27,0.00,0.00,0.00
2026-06-23 20:02:56.988,0.00,991.56,99156.40,nan,0.00,0.66,0.37,9.30,0.00,0.00,0.00
2026-06-23 20:02:56.989,0.00,991.56,99156.40,nan,0.00,0.66,0.37,9.30,0.00,0.00,0.00
2026-06-23 20:02:56.990,0.00,991.56,99156.40,nan,0.00,0.66,0.37,9.30,0.00,0.00,0.00
2026-06-23 20:02:56.993,0.00,991.56,99156.40,nan,0.00,0.66,0.37,9.30,0.00,0.00,0.00
2026-06-23 20:02:56.997,0.00,991.56,99156.40,nan,0.00,0.66,0.37,9.30,0.00,0.00,0.00
2026-06-23 20:02:56.999,0.00,991.56,99156.40,nan,0.00,0.66,0.38,9.30,0.00,0.00,0.00
2026-06-23 20:02:56.000,0.00,991.56,99156.40,nan,0.00,0.66,0.38,9.30,0.00,0.00,0.00
2026-06-23 20:02:56.001,0.00,991.56,99156.40,nan,0.00,0.66,0.38,9.30,0.00,0.00,0.00
2026-06-23 20:02:56.003,0.00,991.56,99156.40,nan,0.00,0.66,0.38,9.30,0.00,0.00,0.00
2026-06-23 20:02:57.004,0.00,991.56,99156.40,nan,0.00,0.66,0.38,9.30,0.00,0.00,0.00
2026-06-23 20:02:57.007,0.00,991.56,99156.40,nan,0.00,0.66,0.38,9.30,0.00,0.00,0.00
2026-06-23 20:02:57.008,0.00,991.56,99156.40,nan,0.00,0.67,0.37,9.31,0.00,0.00,0.00
2026-06-23 20:02:57.009,0.00,991.56,99156.40,nan,0.00,0.67,0.37,9.31,0.00,0.00,0.00
2026-06-23 20:02:57.011,0.00,991.56,99156.40,nan,0.00,0.67,0.37,9.31,0.00,0.00,0.00
2026-06-23 20:02:57.014,0.00,991.56,99156.40,nan,0.00,0.67,0.37,9.31,0.00,0.00,0.00
2026-06-23 20:02:57.017,0.00,991.56,99156.40,nan,0.00,0.67,0.37,9.31,0.00,0.00,0.00
2026-06-23 20:02:57.019,0.00,991.56,99156.40,nan,0.00,0.65,0.37,9.33,0.00,0.00,0.00
2026-06-23 20:02:57.020,0.00,991.56,99156.40,nan,0.00,0.65,0.37,9.33,0.00,0.00,0.00
2026-06-23 20:02:57.024,0.00,991.56,99156.40,nan,0.00,0.65,0.37,9.33,0.00,0.00,0.00
2026-06-23 20:02:57.027,0.00,991.56,99156.40,nan,0.00,0.65,0.37,9.33,-0.00,0.00,0.00
2026-06-23 20:02:57.028,0.00,991.56,99156.40,nan,0.00,0.66,0.39,9.28,-0.00,0.00,0.00
2026-06-23 20:02:57.029,0.00,991.56,99156.40,nan,0.00,0.66,0.39,9.28,-0.00,0.00,0.00
2026-06-23 20:02:57.031,0.00,991.56,99156.40,nan,0.00,0.66,0.39,9.28,-0.00,0.00,0.00
2026-06-23 20:02:57.036,0.00,991.56,99156.40,nan,0.00,0.66,0.39,9.28,-0.00,0.00,0.00
2026-06-23 20:02:57.038,0.00,991.56,99156.40,nan,0.00,0.65,0.41,9.30,-0.00,-0.00,0.00
2026-06-23 20:02:57.039,0.00,991.56,99156.40,nan,0.00,0.65,0.41,9.30,-0.00,-0.00,0.00
2026-06-23 20:02:57.040,0.00,991.56,99156.40,nan,0.00,0.65,0.41,9.30,-0.00,-0.00,0.00
2026-06-23 20:02:57.041,0.00,991.56,99156.40,nan,0.00,0.65,0.41,9.30,-0.00,-0.00,0.00
2026-06-23 20:02:57.047,0.00,991.56,99156.40,nan,0.00,0.65,0.41,9.30,-0.00,-0.00,0.00
2026-06-23 20:02:57.048,0.00,991.56,99156.40,nan,0.00,0.66,0.37,9.30,0.00,0.00,0.00
2026-06-23 20:02:57.050,0.00,991.56,99156.40,nan,0.00,0.66,0.37,9.30,0.00,0.00,0.00
2026-06-23 20:02:57.051,0.00,991.56,99156.40,nan,0.00,0.66,0.37,9.30,0.00,0.00,0.00
2026-06-23 20:02:57.053,0.00,991.56,99156.40,nan,0.00,0.66,0.37,9.30,0.00,0.00,0.00
2026-06-23 20:02:57.054,0.00,991.56,99156.40,nan,0.00,0.66,0.37,9.30,0.00,0.00,0.00
2026-06-23 20:02:57.057,0.00,991.56,99156.40,nan,0.00,0.66,0.37,9.30,0.00,0.00,0.00
2026-06-23 20:02:57.248,0.00,991.57,99157.38,nan,0.00,0.66,0.41,9.30,0.00,0.00,-0.00
2026-06-23 20:02:57.249,0.00,991.57,99157.38,nan,0.00,0.67,0.38,9.33,0.00,0.00,-0.00
2026-06-23 20:02:57.251,0.00,991.57,99157.38,nan,0.00,0.67,0.38,9.33,0.00,0.00,-0.00
2026-06-23 20:02:57.252,0.00,991.57,99157.38,nan,0.00,0.67,0.38,9.33,0.00,0.00,-0.00
2026-06-23 20:02:57.254,0.00,991.57,99157.38,nan,0.00,0.67,0.38,9.33,0.00,0.00,-0.00
2026-06-23 20:02:57.255,0.00,991.57,99157.38,nan,0.00,0.67,0.38,9.33,0.00,0.00,-0.00
2026-06-23 20:02:57.258,0.00,991.57,99157.38,nan,0.00,0.67,0.38,9.33,0.00,-0.00,0.00
2026-06-23 20:02:57.259,0.00,991.57,99157.38,nan,0.00,0.67,0.36,9.31,0.00,-0.00,0.00
2026-06-23 20:02:57.260,0.00,991.57,99157.38,nan,0.00,0.67,0.36,9.31,0.00,-0.00,0.00
2026-06-23 20:02:57.261,0.00,991.57,99157.38,nan,0.00,0.67,0.36,9.31,0.00,-0.00,0.00
2026-06-23 20:02:57.265,0.00,991.57,99157.38,nan,0.00,0.67,0.36,9.31,0.00,-0.00,0.00
2026-06-23 20:02:57.268,0.00,991.57,99157.38,nan,0.00,0.67,0.36,9.31,0.00,0.00,0.00
2026-06-23 20:02:57.270,0.00,991.57,99157.38,nan,0.00,0.65,0.39,9.29,0.00,0.00,0.00
2026-06-23 20:02:57.271,0.00,991.57,99157.38,nan,0.00,0.65,0.39,9.29,0.00,0.00,0.00
2026-06-23 20:02:57.275,0.00,991.57,99157.38,nan,0.00,0.65,0.39,9.29,0.00,0.00,0.00
2026-06-23 20:02:57.278,0.00,991.57,99157.38,nan,0.00,0.65,0.39,9.29,0.00,0.00,-0.00
2026-06-23 20:02:57.279,0.00,991.57,99157.38,nan,0.00,0.66,0.38,9.27,0.00,0.00,-0.00
2026-06-23 20:02:57.280,0.00,991.57,99157.38,nan,0.00,0.66,0.38,9.27,0.00,0.00,-0.00
2026-06-23 20:02:57.281,0.00,991.57,99157.38,nan,0.00,0.66,0.38,9.27,0.00,0.00,-0.00
2026-06-23 20:02:57.284,0.00,991.57,99157.38,nan,0.00,0.66,0.38,9.27,0.00,0.00,-0.00
2026-06-23 20:02:57.288,0.00,991.57,99157.38,nan,0.00,0.66,0.38,9.27,0.00,-0.00,0.00
2026-06-23 20:02:57.289,0.00,991.57,99157.38,nan,0.00,0.67,0.37,9.29,0.00,-0.00,0.00
2026-06-23 20:02:57.290,0.00,991.57,99157.38,nan,0.00,0.67,0.37,9.29,0.00,-0.00,0.00
2026-06-23 20:02:57.291,0.00,991.57,99157.38,nan,0.00,0.67,0.37,9.29,0.00,-0.00,0.00
2026-06-23 20:02:57.295,0.00,991.57,99157.38,nan,0.00,0.67,0.37,9.29,0.00,-0.00,0.00
2026-06-23 20:02:57.298,0.00,991.57,99157.38,nan,0.00,0.67,0.37,9.29,0.00,0.00,0.00
2026-06-23 20:02:57.300,0.00,991.57,99157.38,nan,0.00,0.66,0.37,9.30,0.00,0.00,0.00
2026-06-23 20:02:57.301,0.00,991.57,99157.38,nan,0.00,0.66,0.37,9.30,0.00,0.00,0.00
2026-06-23 20:02:57.303,0.00,991.57,99157.38,nan,0.00,0.66,0.37,9.30,0.00,0.00,0.00
2026-06-23 20:02:57.304,0.00,991.57,99157.38,nan,0.00,0.66,0.37,9.30,0.00,0.00,0.00
2026-06-23 20:02:57.307,0.00,991.57,99157.38,nan,0.00,0.66,0.37,9.30,0.00,0.00,0.00
2026-06-23 20:02:57.308,0.00,991.57,99157.38,nan,0.00,0.66,0.41,9.30,0.00,0.00,-0.00
2026-06-23 20:02:57.309,0.00,991.57,99157.38,nan,0.00,0.66,0.41,9.30,0.00,0.00,-0.00
2026-06-23 20:02:57.310,0.00,991.57,99157.38,nan,0.00,0.66,0.41,9.30,0.00,0.00,-0.00
2026-06-23 20:02:57.312,0.00,991.57,99157.38,nan,0.00,0.66,0.41,9.30,0.00,0.00,-0.00
2026-06-23 20:02:57.316,0.00,991.57,99157.38,nan,0.00,0.66,0.41,9.30,0.00,0.00,-0.00
2026-06-23 20:02:57.318,0.00,991.57,99157.38,nan,0.00,0.67,0.38,9.29,0.00,0.00,0.00
2026-06-23 20:02:57.320,0.00,991.57,99157.38,nan,0.00,0.67,0.38,9.29,0.00,0.00,0.00
2026-06-23 20:02:57.321,0.00,991.57,99157.38,nan,0.00,0.67,0.38,9.29,0.00,0.00,0.00
2026-06-23 20:02:57.324,0.00,991.57,99157.38,nan,0.00,0.67,0.38,9.29,0.00,0.00,0.00
2026-06-23 20:02:57.328,0.00,991.57,99157.38,nan,0.00,0.67,0.38,9.29,0.00,0.00,0.00
2026-06-23 20:02:57.329,0.00,991.57,99157.38,nan,0.00,0.67,0.37,9.30,0.00,0.00,0.00
2026-06-23 20:02:57.331,0.00,991.57,99157.38,nan,0.00,0.67,0.37,9.30,0.00,0.00,0.00
2026-06-23 20:02:57.337,0.00,991.57,99157.38,nan,0.00,0.67,0.37,9.30,0.00,0.00,0.00
2026-06-23 20:02:57.339,0.00,991.57,99157.38,nan,0.00,0.66,0.38,9.29,0.00,0.00,0.00
2026-06-23 20:02:57.340,0.00,991.57,99157.38,nan,0.00,0.66,0.38,9.29,0.00,0.00,0.00
2026-06-23 20:02:57.341,0.00,991.57,99157.38,nan,0.00,0.66,0.38,9.29,0.00,0.00,0.00
2026-06-23 20:02:57.344,0.00,991.57,99157.38,nan,0.00,0.66,0.38,9.29,0.00,0.00,0.00
2026-06-23 20:02:57.348,0.00,991.57,99157.38,nan,0.00,0.66,0.38,9.29,0.00,-0.00,0.00
2026-06-23 20:02:57.538,0.00,991.56,99155.55,nan,0.00,0.67,0.38,9.31,0.00,0.00,0.00
2026-06-23 20:02:57.540,0.00,991.56,99155.55,nan,0.00,0.65,0.39,9.30,0.00,0.00,0.00
2026-06-23 20:02:57.541,0.00,991.56,99155.55,nan,0.00,0.65,0.39,9.30,0.00,0.00,0.00
2026-06-23 20:02:57.542,0.00,991.56,99155.55,nan,0.00,0.65,0.39,9.30,0.00,0.00,0.00
2026-06-23 20:02:57.548,0.00,991.56,99155.55,nan,0.00,0.65,0.39,9.30,0.00,0.00,0.00
2026-06-23 20:02:57.550,0.00,991.56,99155.55,nan,0.00,0.67,0.39,9.31,0.00,-0.00,0.00
2026-06-23 20:02:57.551,0.00,991.56,99155.55,nan,0.00,0.67,0.39,9.31,0.00,-0.00,0.00
2026-06-23 20:02:57.553,0.00,991.56,99155.55,nan,0.00,0.67,0.39,9.31,0.00,-0.00,0.00
2026-06-23 20:02:57.554,0.00,991.56,99155.55,nan,0.00,0.67,0.39,9.31,0.00,-0.00,0.00
2026-06-23 20:02:57.558,0.00,991.56,99155.55,nan,0.00,0.67,0.39,9.31,0.00,-0.00,0.00
2026-06-23 20:02:57.559,0.00,991.56,99155.55,nan,0.00,0.66,0.39,9.31,0.00,-0.00,-0.00
2026-06-23 20:02:57.560,0.00,991.56,99155.55,nan,0.00,0.66,0.39,9.31,0.00,-0.00,-0.00
2026-06-23 20:02:57.562,0.00,991.56,99155.55,nan,0.00,0.66,0.39,9.31,0.00,-0.00,-0.00
2026-06-23 20:02:57.563,0.00,991.56,99155.55,nan,0.00,0.66,0.39,9.31,0.00,-0.00,-0.00
2026-06-23 20:02:57.568,0.00,991.56,99155.55,nan,0.00,0.66,0.39,9.31,0.00,-0.00,-0.00
2026-06-23 20:02:57.570,0.00,991.56,99155.55,nan,0.00,0.66,0.38,9.26,0.00,0.00,0.00
2026-06-23 20:02:57.571,0.00,991.56,99155.55,nan,0.00,0.66,0.38,9.26,0.00,0.00,0.00
2026-06-23 20:02:57.572,0.00,991.56,99155.55,nan,0.00,0.66,0.38,9.26,0.00,0.00,0.00
2026-06-23 20:02:57.577,0.00,991.56,99155.55,nan,0.00,0.66,0.38,9.26,0.00,0.00,0.00
2026-06-23 20:02:57.579,0.00,991.56,99155.55,nan,0.00,0.66,0.38,9.27,-0.00,0.00,0.00
2026-06-23 20:02:57.580,0.00,991.56,99155.55,nan,0.00,0.66,0.38,9.27,-0.00,0.00,0.00
2026-06-23 20:02:57.581,0.00,991.56,99155.55,nan,0.00,0.66,0.38,9.27,-0.00,0.00,0.00
2026-06-23 20:02:57.583,0.00,991.56,99155.55,nan,0.00,0.66,0.38,9.27,-0.00,0.00,0.00
2026-06-23 20:02:57.588,0.00,991.56,99155.55,nan,0.00,0.66,0.38,9.27,-0.00,0.00,0.00
2026-06-23 20:02:57.589,0.00,991.56,99155.55,nan,0.00,0.65,0.38,9.30,0.00,0.00,0.00
2026-06-23 20:02:57.590,0.00,991.56,99155.55,nan,0.00,0.65,0.38,9.30,0.00,0.00,0.00
2026-06-23 20:02:57.592,0.00,991.56,99155.55,nan,0.00,0.65,0.38,9.30,0.00,0.00,0.00
2026-06-23 20:02:57.593,0.00,991.56,99155.55,nan,0.00,0.65,0.38,9.30,0.00,0.00,0.00
2026-06-23 20:02:57.598,0.00,991.56,99155.55,nan,0.00,0.65,0.38,9.30,0.00,0.00,0.00
2026-06-23 20:02:57.600,0.00,991.56,99155.55,nan,0.00,0.65,0.37,9.29,0.00,-0.00,0.00
2026-06-23 20:02:57.601,0.00,991.56,99155.55,nan,0.00,0.65,0.37,9.29,0.00,-0.00,0.00
2026-06-23 20:02:57.603,0.00,991.56,99155.55,nan,0.00,0.65,0.37,9.29,0.00,-0.00,0.00
2026-06-23 20:02:57.604,0.00,991.56,99155.55,nan,0.00,0.65,0.37,9.29,0.00,-0.00,0.00
2026-06-23 20:02:57.605,0.00,991.56,99155.55,nan,0.00,0.65,0.37,9.29,0.00,-0.00,0.00
2026-06-23 20:02:57.608,0.00,991.56,99155.55,nan,0.00,0.65,0.37,9.29,0.00,-0.00,0.00
2026-06-23 20:02:57.609,0.00,991.56,99155.55,nan,0.00,0.66,0.38,9.30,0.00,-0.00,0.00
2026-06-23 20:02:57.610,0.00,991.56,99155.55,nan,0.00,0.66,0.38,9.30,0.00,-0.00,0.00
2026-06-23 20:02:57.612,0.00,991.56,99155.55,nan,0.00,0.66,0.38,9.30,0.00,-0.00,0.00
2026-06-23 20:02:57.613,0.00,991.56,99155.55,nan,0.00,0.66,0.38,9.30,0.00,-0.00,0.00
2026-06-23 20:02:57.618,0.00,991.56,99155.55,nan,0.00,0.66,0.38,9.30,0.00,-0.00,0.00
2026-06-23 20:02:57.620,0.00,991.56,99155.55,nan,0.00,0.67,0.37,9.28,0.00,0.00,0.00
2026-06-23 20:02:57.621,0.00,991.56,99155.55,nan,0.00,0.67,0.37,9.28,0.00,0.00,0.00
2026-06-23 20:02:57.622,0.00,991.56,99155.55,nan,0.00,0.67,0.37,9.28,0.00,0.00,0.00
2026-06-23 20:02:57.627,0.00,991.56,99155.55,nan,0.00,0.67,0.37,9.28,0.00,0.00,0.00
2026-06-23 20:02:57.629,0.00,991.56,99155.55,nan,0.00,0.66,0.39,9.29,0.00,0.00,-0.00
2026-06-23 20:02:57.630,0.00,991.56,99155.55,nan,0.00,0.66,0.39,9.29,0.00,0.00,-0.00
2026-06-23 20:02:57.632,0.00,991.56,99155.55,nan,0.00,0.66,0.39,9.29,0.00,0.00,-0.00
2026-06-23 20:02:57.635,0.00,991.56,99155.55,nan,0.00,0.66,0.39,9.29,0.00,0.00,-0.00
2026-06-23 20:02:57.639,0.00,991.56,99155.55,nan,0.00,0.66,0.39,9.29,0.00,-0.00,0.00
2026-06-23 20:02:57.829,0.00,991.55,99154.85,nan,0.00,0.66,0.37,9.32,0.00,0.00,-0.00
2026-06-23 20:02:57.831,0.00,991.55,99154.85,nan,0.00,0.66,0.38,9.29,0.00,0.00,-0.00
2026-06-23 20:02:57.832,0.00,991.55,99154.85,nan,0.00,0.66,0.38,9.29,0.00,0.00,-0.00
2026-06-23 20:02:57.835,0.00,991.55,99154.85,nan,0.00,0.66,0.38,9.29,0.00,0.00,-0.00
2026-06-23 20:02:57.839,0.00,991.55,99154.85,nan,0.00,0.66,0.38,9.29,0.00,0.00,0.00
2026-06-23 20:02:57.840,0.00,991.55,99154.85,nan,0.00,0.67,0.39,9.32,0.00,0.00,0.00
2026-06-23 20:02:57.841,0.00,991.55,99154.85,nan,0.00,0.67,0.39,9.32,0.00,0.00,0.00
2026-06-23 20:02:57.843,0.00,991.55,99154.85,nan,0.00,0.67,0.39,9.32,0.00,0.00,0.00
2026-06-23 20:02:57.846,0.00,991.55,99154.85,nan,0.00,0.67,0.39,9.32,0.00,0.00,0.00
2026-06-23 20:02:57.849,0.00,991.55,99154.85,nan,0.00,0.67,0.39,9.32,-0.00,0.00,0.00
2026-06-23 20:02:57.851,0.00,991.55,99154.85,nan,0.00,0.66,0.40,9.30,-0.00,0.00,0.00
2026-06-23 20:02:57.853,0.00,991.55,99154.85,nan,0.00,0.66,0.40,9.30,-0.00,0.00,0.00
2026-06-23 20:02:57.854,0.00,991.55,99154.85,nan,0.00,0.66,0.40,9.30,-0.00,0.00,0.00
2026-06-23 20:02:57.855,0.00,991.55,99154.85,nan,0.00,0.66,0.40,9.30,-0.00,0.00,0.00
2026-06-23 20:02:57.856,0.00,991.55,99154.85,nan,0.00,0.66,0.40,9.30,-0.00,0.00,0.00
2026-06-23 20:02:57.859,0.00,991.55,99154.85,nan,0.00,0.66,0.40,9.30,0.00,-0.00,-0.00
2026-06-23 20:02:57.860,0.00,991.55,99154.85,nan,0.00,0.66,0.39,9.32,0.00,-0.00,-0.00
2026-06-23 20:02:57.862,0.00,991.55,99154.85,nan,0.00,0.66,0.39,9.32,0.00,-0.00,-0.00
2026-06-23 20:02:57.863,0.00,991.55,99154.85,nan,0.00,0.66,0.39,9.32,0.00,-0.00,-0.00
2026-06-23 20:02:57.867,0.00,991.55,99154.85,nan,0.00,0.66,0.39,9.32,0.00,-0.00,-0.00
2026-06-23 20:02:57.870,0.00,991.55,99154.85,nan,0.00,0.66,0.39,9.32,-0.00,-0.00,0.00
2026-06-23 20:02:57.871,0.00,991.55,99154.85,nan,0.00,0.65,0.38,9.30,-0.00,-0.00,0.00
2026-06-23 20:02:57.872,0.00,991.55,99154.85,nan,0.00,0.65,0.38,9.30,-0.00,-0.00,0.00
2026-06-23 20:02:57.873,0.00,991.55,99154.85,nan,0.00,0.65,0.38,9.30,-0.00,-0.00,0.00
2026-06-23 20:02:57.879,0.00,991.55,99154.85,nan,0.00,0.65,0.38,9.30,-0.00,-0.00,0.00
2026-06-23 20:02:57.880,0.00,991.55,99154.85,nan,0.00,0.67,0.40,9.27,-0.00,0.00,0.00
2026-06-23 20:02:57.881,0.00,991.55,99154.85,nan,0.00,0.67,0.40,9.27,-0.00,0.00,0.00
2026-06-23 20:02:57.883,0.00,991.55,99154.85,nan,0.00,0.67,0.40,9.27,-0.00,0.00,0.00
2026-06-23 20:02:57.887,0.00,991.55,99154.85,nan,0.00,0.67,0.40,9.27,-0.00,0.00,0.00
2026-06-23 20:02:57.889,0.00,991.55,99154.85,nan,0.00,0.67,0.40,9.27,0.00,-0.00,0.00
2026-06-23 20:02:57.890,0.00,991.55,99154.85,nan,0.00,0.66,0.37,9.29,0.00,-0.00,0.00
2026-06-23 20:02:57.892,0.00,991.55,99154.85,nan,0.00,0.66,0.37,9.29,0.00,-0.00,0.00
2026-06-23 20:02:57.893,0.00,991.55,99154.85,nan,0.00,0.66,0.37,9.29,0.00,-0.00,0.00
2026-06-23 20:02:57.897,0.00,991.55,99154.85,nan,0.00,0.66,0.37,9.29,0.00,-0.00,0.00
2026-06-23 20:02:57.900,0.00,991.55,99154.85,nan,0.00,0.66,0.37,9.29,0.00,-0.00,0.00
2026-06-23 20:02:57.901,0.00,991.55,99154.85,nan,0.00,0.65,0.38,9.29,0.00,-0.00,0.00
2026-06-23 20:02:57.903,0.00,991.55,99154.85,nan,0.00,0.65,0.38,9.29,0.00,-0.00,0.00
2026-06-23 20:02:57.904,0.00,991.55,99154.85,nan,0.00,0.65,0.38,9.29,0.00,-0.00,0.00
2026-06-23 20:02:57.905,0.00,991.55,99154.85,nan,0.00,0.65,0.38,9.29,0.00,-0.00,0.00
2026-06-23 20:02:57.907,0.00,991.55,99154.85,nan,0.00,0.65,0.38,9.29,0.00,-0.00,0.00
2026-06-23 20:02:57.909,0.00,991.55,99154.85,nan,0.00,0.65,0.38,9.29,0.00,0.00,0.00
2026-06-23 20:02:57.910,0.00,991.55,99154.85,nan,0.00,0.66,0.37,9.33,0.00,0.00,0.00
2026-06-23 20:02:57.912,0.00,991.55,99154.85,nan,0.00,0.66,0.37,9.33,0.00,0.00,0.00
2026-06-23 20:02:57.913,0.00,991.55,99154.85,nan,0.00,0.66,0.37,9.33,0.00,0.00,0.00
2026-06-23 20:02:57.916,0.00,991.55,99154.85,nan,0.00,0.66,0.37,9.33,0.00,0.00,0.00
2026-06-23 20:02:57.919,0.00,991.55,99154.85,nan,0.00,0.66,0.37,9.33,0.00,-0.00,0.00
2026-06-23 20:02:57.921,0.00,991.55,99154.85,nan,0.00,0.67,0.37,9.32,0.00,-0.00,0.00
2026-06-23 20:02:57.922,0.00,991.55,99154.85,nan,0.00,0.67,0.37,9.32,0.00,-0.00,0.00
2026-06-23 20:02:57.923,0.00,991.55,99154.85,nan,0.00,0.67,0.37,9.32,0.00,-0.00,0.00
2026-06-23 20:02:57.929,0.00,991.55,99154.85,nan,0.00,0.67,0.37,9.32,0.00,-0.00,0.00
2026-06-23 20:02:58.120,0.00,991.56,99156.50,nan,0.00,0.67,0.37,9.32,-0.00,-0.00,-0.00
2026-06-23 20:02:58.121,0.00,991.56,99156.50,nan,0.00,0.66,0.39,9.28,-0.00,-0.00,-0.00
2026-06-23 20:02:58.122,0.00,991.56,99156.50,nan,0.00,0.66,0.39,9.28,-0.00,-0.00,-0.00
2026-06-23 20:02:58.124,0.00,991.56,99156.50,nan,0.00,0.66,0.39,9.28,-0.00,-0.00,-0.00
2026-06-23 20:02:58.129,0.00,991.56,99156.50,nan,0.00,0.66,0.39,9.28,-0.00,-0.00,-0.00
2026-06-23 20:02:58.130,0.00,991.56,99156.50,nan,0.00,0.66,0.40,9.27,-0.00,-0.00,0.00
2026-06-23 20:02:58.132,0.00,991.56,99156.50,nan,0.00,0.66,0.40,9.27,-0.00,-0.00,0.00
2026-06-23 20:02:58.133,0.00,991.56,99156.50,nan,0.00,0.66,0.40,9.27,-0.00,-0.00,0.00
2026-06-23 20:02:58.138,0.00,991.56,99156.50,nan,0.00,0.66,0.40,9.27,-0.00,-0.00,0.00
2026-06-23 20:02:58.140,0.00,991.56,99156.50,nan,0.00,0.65,0.38,9.32,0.00,-0.00,-0.00
2026-06-23 20:02:58.142,0.00,991.56,99156.50,nan,0.00,0.65,0.38,9.32,0.00,-0.00,-0.00
2026-06-23 20:02:58.143,0.00,991.56,99156.50,nan,0.00,0.65,0.38,9.32,0.00,-0.00,-0.00
2026-06-23 20:02:58.149,0.00,991.56,99156.50,nan,0.00,0.65,0.38,9.32,0.00,-0.00,-0.00
2026-06-23 20:02:58.151,0.00,991.56,99156.50,nan,0.00,0.66,0.38,9.31,-0.00,0.00,0.00
2026-06-23 20:02:58.153,0.00,991.56,99156.50,nan,0.00,0.66,0.38,9.31,-0.00,0.00,0.00
2026-06-23 20:02:58.154,0.00,991.56,99156.50,nan,0.00,0.66,0.38,9.31,-0.00,0.00,0.00
2026-06-23 20:02:58.155,0.00,991.56,99156.50,nan,0.00,0.66,0.38,9.31,-0.00,0.00,0.00
2026-06-23 20:02:58.156,0.00,991.56,99156.50,nan,0.00,0.66,0.38,9.31,-0.00,0.00,0.00
2026-06-23 20:02:58.157,0.00,991.56,99156.50,nan,0.00,0.66,0.38,9.31,-0.00,0.00,0.00
2026-06-23 20:02:58.159,0.00,991.56,99156.50,nan,0.00,0.66,0.38,9.31,-0.00,0.00,0.00
2026-06-23 20:02:58.161,0.00,991.56,99156.50,nan,0.00,0.65,0.39,9.32,-0.00,0.00,0.00
2026-06-23 20:02:58.162,0.00,991.56,99156.50,nan,0.00,0.65,0.39,9.32,-0.00,0.00,0.00
2026-06-23 20:02:58.163,0.00,991.56,99156.50,nan,0.00,0.65,0.39,9.32,-0.00,0.00,0.00
2026-06-23 20:02:58.165,0.00,991.56,99156.50,nan,0.00,0.65,0.39,9.32,-0.00,0.00,0.00
2026-06-23 20:02:58.170,0.00,991.56,99156.50,nan,0.00,0.65,0.39,9.32,0.00,0.00,0.00
2026-06-23 20:02:58.171,0.00,991.56,99156.50,nan,0.00,0.67,0.39,9.29,0.00,0.00,0.00
2026-06-23 20:02:58.172,0.00,991.56,99156.50,nan,0.00,0.67,0.39,9.29,0.00,0.00,0.00
2026-06-23 20:02:58.173,0.00,991.56,99156.50,nan,0.00,0.67,0.39,9.29,0.00,0.00,0.00
2026-06-23 20:02:58.177,0.00,991.56,99156.50,nan,0.00,0.67,0.39,9.29,0.00,0.00,0.00
2026-06-23 20:02:58.180,0.00,991.56,99156.50,nan,0.00,0.67,0.39,9.29,-0.00,0.00,-0.00
2026-06-23 20:02:58.181,0.00,991.56,99156.50,nan,0.00,0.66,0.38,9.30,-0.00,0.00,-0.00
2026-06-23 20:02:58.183,0.00,991.56,99156.50,nan,0.00,0.66,0.38,9.30,-0.00,0.00,-0.00
2026-06-23 20:02:58.184,0.00,991.56,99156.50,nan,0.00,0.66,0.38,9.30,-0.00,0.00,-0.00
2026-06-23 20:02:58.189,0.00,991.56,99156.50,nan,0.00,0.66,0.38,9.30,-0.00,0.00,-0.00
2026-06-23 20:02:58.191,0.00,991.56,99156.50,nan,0.00,0.66,0.38,9.29,0.00,0.00,0.00
2026-06-23 20:02:58.192,0.00,991.56,99156.50,nan,0.00,0.66,0.38,9.29,0.00,0.00,0.00
2026-06-23 20:02:58.193,0.00,991.56,99156.50,nan,0.00,0.66,0.38,9.29,0.00,0.00,0.00
2026-06-23 20:02:58.194,0.00,991.56,99156.50,nan,0.00,0.66,0.38,9.29,0.00,0.00,0.00
2026-06-23 20:02:58.200,0.00,991.56,99156.50,nan,0.00,0.66,0.38,9.29,0.00,0.00,0.00
2026-06-23 20:02:58.201,0.00,991.56,99156.50,nan,0.00,0.66,0.40,9.29,0.00,0.00,0.00
2026-06-23 20:02:58.203,0.00,991.56,99156.50,nan,0.00,0.66,0.40,9.29,0.00,0.00,0.00
2026-06-23 20:02:58.204,0.00,991.56,99156.50,nan,0.00,0.66,0.40,9.29,0.00,0.00,0.00
2026-06-23 20:02:58.205,0.00,991.56,99156.50,nan,0.00,0.66,0.40,9.29,0.00,0.00,0.00
2026-06-23 20:02:58.206,0.00,991.56,99156.50,nan,0.00,0.66,0.40,9.29,0.00,0.00,0.00
2026-06-23 20:02:58.209,0.00,991.56,99156.50,nan,0.00,0.66,0.40,9.29,0.00,0.00,0.00
2026-06-23 20:02:58.210,0.00,991.56,99156.50,nan,0.00,0.66,0.40,9.29,0.00,0.00,0.00
2026-06-23 20:02:58.211,0.00,991.56,99156.50,nan,0.00,0.66,0.40,9.29,0.00,0.00,0.00
2026-06-23 20:02:58.213,0.00,991.56,99156.50,nan,0.00,0.66,0.40,9.29,0.00,0.00,0.00
2026-06-23 20:02:58.214,0.00,991.56,99156.50,nan,0.00,0.66,0.40,9.29,0.00,0.00,0.00
2026-06-23 20:02:58.220,0.00,991.56,99156.50,nan,0.00,0.66,0.40,9.29,0.00,0.00,0.00
2026-06-23 20:02:58.411,0.00,991.55,99154.58,nan,0.00,0.67,0.38,9.28,-0.00,0.00,0.00
2026-06-23 20:02:58.412,0.00,991.55,99154.58,nan,0.00,0.67,0.36,9.29,-0.00,0.00,0.00
2026-06-23 20:02:58.413,0.00,991.55,99154.58,nan,0.00,0.67,0.36,9.29,-0.00,0.00,0.00
2026-06-23 20:02:58.414,0.00,991.55,99154.58,nan,0.00,0.67,0.36,9.29,-0.00,0.00,0.00
2026-06-23 20:02:58.420,0.00,991.55,99154.58,nan,0.00,0.67,0.36,9.29,-0.00,0.00,0.00
2026-06-23 20:02:58.421,0.00,991.55,99154.58,nan,0.00,0.66,0.37,9.31,0.00,0.01,0.00
2026-06-23 20:02:58.422,0.00,991.55,99154.58,nan,0.00,0.66,0.37,9.31,0.00,0.01,0.00
2026-06-23 20:02:58.424,0.00,991.55,99154.58,nan,0.00,0.66,0.37,9.31,0.00,0.01,0.00
2026-06-23 20:02:58.427,0.00,991.55,99154.58,nan,0.00,0.66,0.37,9.31,0.00,0.01,0.00
2026-06-23 20:02:58.430,0.00,991.55,99154.58,nan,0.00,0.66,0.37,9.31,0.00,0.00,0.00
2026-06-23 20:02:58.432,0.00,991.55,99154.58,nan,0.00,0.66,0.40,9.30,0.00,0.00,0.00
2026-06-23 20:02:58.433,0.00,991.55,99154.58,nan,0.00,0.66,0.40,9.30,0.00,0.00,0.00
2026-06-23 20:02:58.435,0.00,991.55,99154.58,nan,0.00,0.66,0.40,9.30,0.00,0.00,0.00
2026-06-23 20:02:58.440,0.00,991.55,99154.58,nan,0.00,0.66,0.40,9.30,0.00,0.00,0.00
2026-06-23 20:02:58.441,0.00,991.55,99154.58,nan,0.00,0.67,0.38,9.28,0.00,0.00,0.00
2026-06-23 20:02:58.443,0.00,991.55,99154.58,nan,0.00,0.67,0.38,9.28,0.00,0.00,0.00
2026-06-23 20:02:58.444,0.00,991.55,99154.58,nan,0.00,0.67,0.38,9.28,0.00,0.00,0.00
2026-06-23 20:02:58.445,0.00,991.55,99154.58,nan,0.00,0.67,0.38,9.28,0.00,0.00,0.00
2026-06-23 20:02:58.450,0.00,991.55,99154.58,nan,0.00,0.67,0.38,9.28,0.00,0.00,0.00
2026-06-23 20:02:58.452,0.00,991.55,99154.58,nan,0.00,0.66,0.39,9.29,0.00,0.00,0.00
2026-06-23 20:02:58.453,0.00,991.55,99154.58,nan,0.00,0.66,0.39,9.29,0.00,0.00,0.00
2026-06-23 20:02:58.455,0.00,991.55,99154.58,nan,0.00,0.66,0.39,9.29,0.00,0.00,0.00
2026-06-23 20:02:58.456,0.00,991.55,99154.58,nan,0.00,0.66,0.39,9.29,0.00,0.00,0.00
2026-06-23 20:02:58.457,0.00,991.55,99154.58,nan,0.00,0.66,0.39,9.29,0.00,0.00,0.00
2026-06-23 20:02:58.459,0.00,991.55,99154.58,nan,0.00,0.66,0.39,9.29,0.00,0.00,0.00
2026-06-23 20:02:58.461,0.00,991.55,99154.58,nan,0.00,0.66,0.39,9.29,0.00,0.00,0.00
2026-06-23 20:02:58.462,0.00,991.55,99154.58,nan,0.00,0.66,0.39,9.29,0.00,0.00,0.00
2026-06-23 20:02:58.463,0.00,991.55,99154.58,nan,0.00,0.66,0.39,9.29,0.00,0.00,0.00
2026-06-23 20:02:58.464,0.00,991.55,99154.58,nan,0.00,0.66,0.39,9.29,0.00,0.00,0.00
2026-06-23 20:02:58.470,0.00,991.55,99154.58,nan,0.00,0.66,0.39,9.29,0.00,0.00,0.00
2026-06-23 20:02:58.471,0.00,991.55,99154.58,nan,0.00,0.65,0.39,9.31,-0.00,0.00,-0.00
2026-06-23 20:02:58.473,0.00,991.55,99154.58,nan,0.00,0.65,0.39,9.31,-0.00,0.00,-0.00
2026-06-23 20:02:58.474,0.00,991.55,99154.58,nan,0.00,0.65,0.39,9.31,-0.00,0.00,-0.00
2026-06-23 20:02:58.476,0.00,991.55,99154.58,nan,0.00,0.65,0.39,9.31,-0.00,0.00,-0.00
2026-06-23 20:02:58.480,0.00,991.55,99154.58,nan,0.00,0.65,0.39,9.31,0.00,0.00,-0.00
2026-06-23 20:02:58.482,0.00,991.55,99154.58,nan,0.00,0.66,0.37,9.29,0.00,0.00,-0.00
2026-06-23 20:02:58.483,0.00,991.55,99154.58,nan,0.00,0.66,0.37,9.29,0.00,0.00,-0.00
2026-06-23 20:02:58.485,0.00,991.55,99154.58,nan,0.00,0.66,0.37,9.29,0.00,0.00,-0.00
2026-06-23 20:02:58.490,0.00,991.55,99154.58,nan,0.00,0.66,0.37,9.29,0.00,0.00,-0.00
2026-06-23 20:02:58.491,0.00,991.55,99154.58,nan,0.00,0.66,0.39,9.29,0.00,0.00,0.00
2026-06-23 20:02:58.492,0.00,991.55,99154.58,nan,0.00,0.66,0.39,9.29,0.00,0.00,0.00
2026-06-23 20:02:58.494,0.00,991.55,99154.58,nan,0.00,0.66,0.39,9.29,0.00,0.00,0.00
2026-06-23 20:02:58.495,0.00,991.55,99154.58,nan,0.00,0.66,0.39,9.29,0.00,0.00,0.00
2026-06-23 20:02:58.500,0.00,991.55,99154.58,nan,0.00,0.66,0.39,9.29,0.00,0.00,0.00
2026-06-23 20:02:58.502,0.00,991.55,99154.58,nan,0.00,0.65,0.39,9.30,0.00,-0.00,-0.00
2026-06-23 20:02:58.503,0.00,991.55,99154.58,nan,0.00,0.65,0.39,9.30,0.00,-0.00,-0.00
2026-06-23 20:02:58.505,0.00,991.55,99154.58,nan,0.00,0.65,0.39,9.30,0.00,-0.00,-0.00
2026-06-23 20:02:58.506,0.00,991.55,99154.58,nan,0.00,0.65,0.39,9.30,0.00,-0.00,-0.00
2026-06-23 20:02:58.507,0.00,991.55,99154.58,nan,0.00,0.65,0.39,9.30,0.00,-0.00,-0.00
2026-06-23 20:02:58.508,0.00,991.55,99154.58,nan,0.00,0.65,0.39,9.30,0.00,-0.00,-0.00
2026-06-23 20:02:58.701,0.00,991.55,99154.85,nan,0.00,0.65,0.37,9.30,-0.00,-0.00,0.00
2026-06-23 20:02:58.703,0.00,991.55,99154.85,nan,0.00,0.65,0.39,9.30,-0.00,-0.00,0.00
2026-06-23 20:02:58.704,0.00,991.55,99154.85,nan,0.00,0.65,0.39,9.30,-0.00,-0.00,0.00
2026-06-23 20:02:58.705,0.00,991.55,99154.85,nan,0.00,0.65,0.39,9.30,-0.00,-0.00,0.00
2026-06-23 20:02:58.707,0.00,991.55,99154.85,nan,0.00,0.65,0.39,9.30,-0.00,-0.00,0.00
2026-06-23 20:02:58.708,0.00,991.55,99154.85,nan,0.00,0.65,0.39,9.30,-0.00,-0.00,0.00
2026-06-23 20:02:58.709,0.00,991.55,99154.85,nan,0.00,0.65,0.39,9.30,-0.00,-0.00,0.00
2026-06-23 20:02:58.711,0.00,991.55,99154.85,nan,0.00,0.65,0.39,9.30,0.00,-0.00,0.00
2026-06-23 20:02:58.712,0.00,991.55,99154.85,nan,0.00,0.66,0.38,9.30,0.00,-0.00,0.00
2026-06-23 20:02:58.714,0.00,991.55,99154.85,nan,0.00,0.66,0.38,9.30,0.00,-0.00,0.00
2026-06-23 20:02:58.715,0.00,991.55,99154.85,nan,0.00,0.66,0.38,9.30,0.00,-0.00,0.00
2026-06-23 20:02:58.721,0.00,991.55,99154.85,nan,0.00,0.66,0.38,9.30,0.00,-0.00,0.00
2026-06-23 20:02:58.722,0.00,991.55,99154.85,nan,0.00,0.65,0.38,9.29,0.00,-0.00,0.00
2026-06-23 20:02:58.723,0.00,991.55,99154.85,nan,0.00,0.65,0.38,9.29,0.00,-0.00,0.00
2026-06-23 20:02:58.724,0.00,991.55,99154.85,nan,0.00,0.65,0.38,9.29,0.00,-0.00,0.00
2026-06-23 20:02:58.726,0.00,991.55,99154.85,nan,0.00,0.65,0.38,9.29,0.00,-0.00,0.00
2026-06-23 20:02:58.731,0.00,991.55,99154.85,nan,0.00,0.65,0.38,9.29,0.00,-0.00,0.00
2026-06-23 20:02:58.732,0.00,991.55,99154.85,nan,0.00,0.66,0.38,9.30,-0.00,0.00,0.00
2026-06-23 20:02:58.734,0.00,991.55,99154.85,nan,0.00,0.66,0.38,9.30,-0.00,0.00,0.00
2026-06-23 20:02:58.736,0.00,991.55,99154.85,nan,0.00,0.66,0.38,9.30,-0.00,0.00,0.00
2026-06-23 20:02:58.741,0.00,991.55,99154.85,nan,0.00,0.66,0.38,9.30,-0.00,0.00,0.00
2026-06-23 20:02:58.742,0.00,991.55,99154.85,nan,0.00,0.66,0.38,9.27,-0.00,0.00,0.00
2026-06-23 20:02:58.743,0.00,991.55,99154.85,nan,0.00,0.66,0.38,9.27,-0.00,0.00,0.00
2026-06-23 20:02:58.744,0.00,991.55,99154.85,nan,0.00,0.66,0.38,9.27,-0.00,0.00,0.00
2026-06-23 20:02:58.746,0.00,991.55,99154.85,nan,0.00,0.66,0.38,9.27,-0.00,0.00,0.00
2026-06-23 20:02:58.751,0.00,991.55,99154.85,nan,0.00,0.66,0.38,9.27,-0.00,0.00,0.00
2026-06-23 20:02:58.754,0.00,991.55,99154.85,nan,0.00,0.66,0.38,9.31,0.00,0.00,0.00
2026-06-23 20:02:58.755,0.00,991.55,99154.85,nan,0.00,0.66,0.38,9.31,0.00,0.00,0.00
2026-06-23 20:02:58.756,0.00,991.55,99154.85,nan,0.00,0.66,0.38,9.31,0.00,0.00,0.00
2026-06-23 20:02:58.758,0.00,991.55,99154.85,nan,0.00,0.66,0.38,9.31,0.00,0.00,0.00
2026-06-23 20:02:58.759,0.00,991.55,99154.85,nan,0.00,0.66,0.38,9.31,0.00,0.00,0.00
2026-06-23 20:02:58.761,0.00,991.55,99154.85,nan,0.00,0.66,0.38,9.31,-0.00,0.00,0.00
2026-06-23 20:02:58.763,0.00,991.55,99154.85,nan,0.00,0.66,0.39,9.30,-0.00,0.00,0.00
2026-06-23 20:02:58.764,0.00,991.55,99154.85,nan,0.00,0.66,0.39,9.30,-0.00,0.00,0.00
2026-06-23 20:02:58.765,0.00,991.55,99154.85,nan,0.00,0.66,0.39,9.30,-0.00,0.00,0.00
2026-06-23 20:02:58.771,0.00,991.55,99154.85,nan,0.00,0.66,0.39,9.30,-0.00,0.00,0.00
2026-06-23 20:02:58.772,0.00,991.55,99154.85,nan,0.00,0.66,0.38,9.29,0.00,-0.00,0.00
2026-06-23 20:02:58.773,0.00,991.55,99154.85,nan,0.00,0.66,0.38,9.29,0.00,-0.00,0.00
2026-06-23 20:02:58.775,0.00,991.55,99154.85,nan,0.00,0.66,0.38,9.29,0.00,-0.00,0.00
2026-06-23 20:02:58.776,0.00,991.55,99154.85,nan,0.00,0.66,0.38,9.29,0.00,-0.00,0.00
2026-06-23 20:02:58.781,0.00,991.55,99154.85,nan,0.00,0.66,0.38,9.29,0.00,-0.00,0.00
2026-06-23 20:02:58.783,0.00,991.55,99154.85,nan,0.00,0.67,0.37,9.29,-0.00,0.00,-0.00
2026-06-23 20:02:58.784,0.00,991.55,99154.85,nan,0.00,0.67,0.37,9.29,-0.00,0.00,-0.00
2026-06-23 20:02:58.786,0.00,991.55,99154.85,nan,0.00,0.67,0.37,9.29,-0.00,0.00,-0.00
2026-06-23 20:02:58.791,0.00,991.55,99154.85,nan,0.00,0.67,0.37,9.29,-0.00,0.00,-0.00
2026-06-23 20:02:58.792,0.00,991.55,99154.85,nan,0.00,0.65,0.38,9.30,0.00,0.00,-0.00
2026-06-23 20:02:58.793,0.00,991.55,99154.85,nan,0.00,0.65,0.38,9.30,0.00,0.00,-0.00
2026-06-23 20:02:58.794,0.00,991.55,99154.85,nan,0.00,0.65,0.38,9.30,0.00,0.00,-0.00
2026-06-23 20:02:58.796,0.00,991.55,99154.85,nan,0.00,0.65,0.38,9.30,0.00,0.00,-0.00
2026-06-23 20:02:58.801,0.00,991.55,99154.85,nan,0.00,0.65,0.38,9.30,0.00,0.00,-0.00
2026-06-23 20:02:58.992,0.00,991.54,99153.60,nan,0.00,0.65,0.36,9.29,0.00,-0.00,0.00
2026-06-23 20:02:58.993,0.00,991.54,99153.60,nan,0.00,0.66,0.39,9.29,0.00,-0.00,0.00
2026-06-23 20:02:58.994,0.00,991.54,99153.60,nan,0.00,0.66,0.39,9.29,0.00,-0.00,0.00
2026-06-23 20:02:58.996,0.00,991.54,99153.60,nan,0.00,0.66,0.39,9.29,0.00,-0.00,0.00
2026-06-23 20:02:58.999,0.00,991.54,99153.60,nan,0.00,0.66,0.39,9.29,0.00,-0.00,0.00
2026-06-23 20:02:58.002,0.00,991.54,99153.60,nan,0.00,0.66,0.39,9.29,-0.00,0.00,-0.00
2026-06-23 20:02:59.004,0.00,991.54,99153.60,nan,0.00,0.67,0.37,9.26,-0.00,0.00,-0.00
2026-06-23 20:02:59.005,0.00,991.54,99153.60,nan,0.00,0.67,0.37,9.26,-0.00,0.00,-0.00
2026-06-23 20:02:59.006,0.00,991.54,99153.60,nan,0.00,0.67,0.37,9.26,-0.00,0.00,-0.00
2026-06-23 20:02:59.007,0.00,991.54,99153.60,nan,0.00,0.67,0.37,9.26,-0.00,0.00,-0.00
2026-06-23 20:02:59.009,0.00,991.54,99153.60,nan,0.00,0.67,0.37,9.26,-0.00,0.00,-0.00
2026-06-23 20:02:59.010,0.00,991.54,99153.60,nan,0.00,0.67,0.37,9.26,-0.00,0.00,-0.00
2026-06-23 20:02:59.012,0.00,991.54,99153.60,nan,0.00,0.67,0.37,9.26,-0.00,-0.00,0.00
2026-06-23 20:02:59.013,0.00,991.54,99153.60,nan,0.00,0.66,0.37,9.31,-0.00,-0.00,0.00
2026-06-23 20:02:59.015,0.00,991.54,99153.60,nan,0.00,0.66,0.37,9.31,-0.00,-0.00,0.00
2026-06-23 20:02:59.017,0.00,991.54,99153.60,nan,0.00,0.66,0.37,9.31,-0.00,-0.00,0.00
2026-06-23 20:02:59.022,0.00,991.54,99153.60,nan,0.00,0.66,0.37,9.31,0.00,0.00,0.00
2026-06-23 20:02:59.023,0.00,991.54,99153.60,nan,0.00,0.65,0.38,9.31,0.00,0.00,0.00
2026-06-23 20:02:59.024,0.00,991.54,99153.60,nan,0.00,0.65,0.38,9.31,0.00,0.00,0.00
2026-06-23 20:02:59.025,0.00,991.54,99153.60,nan,0.00,0.65,0.38,9.31,0.00,0.00,0.00
2026-06-23 20:02:59.029,0.00,991.54,99153.60,nan,0.00,0.65,0.38,9.31,0.00,0.00,0.00
2026-06-23 20:02:59.032,0.00,991.54,99153.60,nan,0.00,0.65,0.38,9.31,0.00,0.00,0.00
2026-06-23 20:02:59.034,0.00,991.54,99153.60,nan,0.00,0.66,0.38,9.29,0.00,0.00,0.00
2026-06-23 20:02:59.035,0.00,991.54,99153.60,nan,0.00,0.66,0.38,9.29,0.00,0.00,0.00
2026-06-23 20:02:59.040,0.00,991.54,99153.60,nan,0.00,0.66,0.38,9.29,0.00,0.00,0.00
2026-06-23 20:02:59.042,0.00,991.54,99153.60,nan,0.00,0.66,0.38,9.29,-0.00,0.00,0.00
2026-06-23 20:02:59.043,0.00,991.54,99153.60,nan,0.00,0.67,0.39,9.29,-0.00,0.00,0.00
2026-06-23 20:02:59.045,0.00,991.54,99153.60,nan,0.00,0.67,0.39,9.29,-0.00,0.00,0.00
2026-06-23 20:02:59.046,0.00,991.54,99153.60,nan,0.00,0.67,0.39,9.29,-0.00,0.00,0.00
2026-06-23 20:02:59.049,0.00,991.54,99153.60,nan,0.00,0.67,0.39,9.29,-0.00,0.00,0.00
2026-06-23 20:02:59.053,0.00,991.54,99153.60,nan,0.00,0.67,0.39,9.29,0.00,-0.00,0.00
2026-06-23 20:02:59.054,0.00,991.54,99153.60,nan,0.00,0.67,0.41,9.27,0.00,-0.00,0.00
2026-06-23 20:02:59.055,0.00,991.54,99153.60,nan,0.00,0.67,0.41,9.27,0.00,-0.00,0.00
2026-06-23 20:02:59.056,0.00,991.54,99153.60,nan,0.00,0.67,0.41,9.27,0.00,-0.00,0.00
2026-06-23 20:02:59.058,0.00,991.54,99153.60,nan,0.00,0.67,0.41,9.27,0.00,-0.00,0.00
2026-06-23 20:02:59.059,0.00,991.54,99153.60,nan,0.00,0.67,0.41,9.27,0.00,-0.00,0.00
2026-06-23 20:02:59.060,0.00,991.54,99153.60,nan,0.00,0.67,0.41,9.27,0.00,-0.00,0.00
2026-06-23 20:02:59.062,0.00,991.54,99153.60,nan,0.00,0.67,0.37,9.30,0.00,0.00,0.00
2026-06-23 20:02:59.064,0.00,991.54,99153.60,nan,0.00,0.67,0.37,9.30,0.00,0.00,0.00
2026-06-23 20:02:59.065,0.00,991.54,99153.60,nan,0.00,0.67,0.37,9.30,0.00,0.00,0.00
2026-06-23 20:02:59.068,0.00,991.54,99153.60,nan,0.00,0.67,0.37,9.30,0.00,0.00,0.00
2026-06-23 20:02:59.072,0.00,991.54,99153.60,nan,0.00,0.67,0.37,9.30,0.00,0.00,-0.00
2026-06-23 20:02:59.073,0.00,991.54,99153.60,nan,0.00,0.65,0.36,9.30,0.00,0.00,-0.00
2026-06-23 20:02:59.074,0.00,991.54,99153.60,nan,0.00,0.65,0.36,9.30,0.00,0.00,-0.00
2026-06-23 20:02:59.076,0.00,991.54,99153.60,nan,0.00,0.65,0.36,9.30,0.00,0.00,-0.00
2026-06-23 20:02:59.079,0.00,991.54,99153.60,nan,0.00,0.65,0.36,9.30,0.00,0.00,-0.00
2026-06-23 20:02:59.082,0.00,991.54,99153.60,nan,0.00,0.65,0.36,9.30,0.00,0.00,-0.00
2026-06-23 20:02:59.084,0.00,991.54,99153.60,nan,0.00,0.65,0.38,9.32,0.00,0.00,-0.00
2026-06-23 20:02:59.085,0.00,991.54,99153.60,nan,0.00,0.65,0.38,9.32,0.00,0.00,-0.00
2026-06-23 20:02:59.087,0.00,991.54,99153.60,nan,0.00,0.65,0.38,9.32,0.00,0.00,-0.00
2026-06-23 20:02:59.092,0.00,991.54,99153.60,nan,0.00,0.65,0.38,9.32,0.00,0.00,-0.00
2026-06-23 20:02:59.283,0.00,991.58,99158.28,nan,0.00,0.67,0.38,9.31,-0.00,0.00,0.00
2026-06-23 20:02:59.284,0.00,991.58,99158.28,nan,0.00,0.67,0.38,9.30,-0.00,0.00,0.00
2026-06-23 20:02:59.286,0.00,991.58,99158.28,nan,0.00,0.67,0.38,9.30,-0.00,0.00,0.00
2026-06-23 20:02:59.287,0.00,991.58,99158.28,nan,0.00,0.67,0.38,9.30,-0.00,0.00,0.00
2026-06-23 20:02:59.292,0.00,991.58,99158.28,nan,0.00,0.67,0.38,9.30,-0.00,0.00,0.00
2026-06-23 20:02:59.293,0.00,991.58,99158.28,nan,0.00,0.67,0.38,9.27,-0.00,0.00,0.00
2026-06-23 20:02:59.295,0.00,991.58,99158.28,nan,0.00,0.67,0.38,9.27,-0.00,0.00,0.00
2026-06-23 20:02:59.296,0.00,991.58,99158.28,nan,0.00,0.67,0.38,9.27,-0.00,0.00,0.00
2026-06-23 20:02:59.297,0.00,991.58,99158.28,nan,0.00,0.67,0.38,9.27,-0.00,0.00,0.00
2026-06-23 20:02:59.302,0.00,991.58,99158.28,nan,0.00,0.67,0.38,9.27,-0.00,0.00,0.00
2026-06-23 20:02:59.304,0.00,991.58,99158.28,nan,0.00,0.66,0.40,9.29,-0.00,0.00,0.00
2026-06-23 20:02:59.305,0.00,991.58,99158.28,nan,0.00,0.66,0.40,9.29,-0.00,0.00,0.00
2026-06-23 20:02:59.306,0.00,991.58,99158.28,nan,0.00,0.66,0.40,9.29,-0.00,0.00,0.00
2026-06-23 20:02:59.307,0.00,991.58,99158.28,nan,0.00,0.66,0.40,9.29,-0.00,0.00,0.00
2026-06-23 20:02:59.308,0.00,991.58,99158.28,nan,0.00,0.66,0.40,9.29,-0.00,0.00,0.00
2026-06-23 20:02:59.310,0.00,991.58,99158.28,nan,0.00,0.66,0.40,9.29,-0.00,0.00,0.00
2026-06-23 20:02:59.312,0.00,991.58,99158.28,nan,0.00,0.66,0.40,9.29,-0.00,0.00,0.00
2026-06-23 20:02:59.313,0.00,991.58,99158.28,nan,0.00,0.67,0.39,9.33,-0.00,0.00,0.00
2026-06-23 20:02:59.315,0.00,991.58,99158.28,nan,0.00,0.67,0.39,9.33,-0.00,0.00,0.00
2026-06-23 20:02:59.316,0.00,991.58,99158.28,nan,0.00,0.67,0.39,9.33,-0.00,0.00,0.00
2026-06-23 20:02:59.322,0.00,991.58,99158.28,nan,0.00,0.67,0.39,9.33,-0.00,0.00,0.00
2026-06-23 20:02:59.323,0.00,991.58,99158.28,nan,0.00,0.67,0.38,9.33,-0.00,0.00,-0.00
2026-06-23 20:02:59.324,0.00,991.58,99158.28,nan,0.00,0.67,0.38,9.33,-0.00,0.00,-0.00
2026-06-23 20:02:59.325,0.00,991.58,99158.28,nan,0.00,0.67,0.38,9.33,-0.00,0.00,-0.00
2026-06-23 20:02:59.327,0.00,991.58,99158.28,nan,0.00,0.67,0.38,9.33,-0.00,0.00,-0.00
2026-06-23 20:02:59.332,0.00,991.58,99158.28,nan,0.00,0.67,0.38,9.33,-0.00,0.00,-0.00
2026-06-23 20:02:59.333,0.00,991.58,99158.28,nan,0.00,0.66,0.37,9.28,0.00,-0.00,0.00
2026-06-23 20:02:59.335,0.00,991.58,99158.28,nan,0.00,0.66,0.37,9.28,0.00,-0.00,0.00
2026-06-23 20:02:59.336,0.00,991.58,99158.28,nan,0.00,0.66,0.37,9.28,0.00,-0.00,0.00
2026-06-23 20:02:59.341,0.00,991.58,99158.28,nan,0.00,0.66,0.37,9.28,0.00,-0.00,0.00
2026-06-23 20:02:59.343,0.00,991.58,99158.28,nan,0.00,0.66,0.38,9.28,0.00,0.00,0.00
2026-06-23 20:02:59.344,0.00,991.58,99158.28,nan,0.00,0.66,0.38,9.28,0.00,0.00,0.00
2026-06-23 20:02:59.345,0.00,991.58,99158.28,nan,0.00,0.66,0.38,9.28,0.00,0.00,0.00
2026-06-23 20:02:59.347,0.00,991.58,99158.28,nan,0.00,0.66,0.38,9.28,0.00,0.00,0.00
2026-06-23 20:02:59.353,0.00,991.58,99158.28,nan,0.00,0.66,0.38,9.28,0.00,0.00,0.00
2026-06-23 20:02:59.354,0.00,991.58,99158.28,nan,0.00,0.66,0.37,9.34,-0.00,0.00,0.00
2026-06-23 20:02:59.355,0.00,991.58,99158.28,nan,0.00,0.66,0.37,9.34,-0.00,0.00,0.00
2026-06-23 20:02:59.356,0.00,991.58,99158.28,nan,0.00,0.66,0.37,9.34,-0.00,0.00,0.00
2026-06-23 20:02:59.358,0.00,991.58,99158.28,nan,0.00,0.66,0.37,9.34,-0.00,0.00,0.00
2026-06-23 20:02:59.359,0.00,991.58,99158.28,nan,0.00,0.66,0.37,9.34,-0.00,0.00,0.00
2026-06-23 20:02:59.360,0.00,991.58,99158.28,nan,0.00,0.66,0.37,9.34,-0.00,0.00,0.00
2026-06-23 20:02:59.362,0.00,991.58,99158.28,nan,0.00,0.66,0.37,9.34,-0.00,0.00,0.00
2026-06-23 20:02:59.364,0.00,991.58,99158.28,nan,0.00,0.66,0.38,9.30,0.00,0.00,0.00
2026-06-23 20:02:59.365,0.00,991.58,99158.28,nan,0.00,0.66,0.38,9.30,0.00,0.00,0.00
2026-06-23 20:02:59.367,0.00,991.58,99158.28,nan,0.00,0.66,0.38,9.30,0.00,0.00,0.00
2026-06-23 20:02:59.372,0.00,991.58,99158.28,nan,0.00,0.66,0.38,9.30,0.00,0.00,0.00
2026-06-23 20:02:59.374,0.00,991.58,99158.28,nan,0.00,0.66,0.38,9.29,-0.00,-0.00,0.00
2026-06-23 20:02:59.375,0.00,991.58,99158.28,nan,0.00,0.66,0.38,9.29,-0.00,-0.00,0.00
2026-06-23 20:02:59.376,0.00,991.58,99158.28,nan,0.00,0.66,0.38,9.29,-0.00,-0.00,0.00
2026-06-23 20:02:59.378,0.00,991.58,99158.28,nan,0.00,0.66,0.38,9.29,-0.00,-0.00,0.00
2026-06-23 20:02:59.383,0.00,991.58,99158.28,nan,0.00,0.66,0.38,9.29,-0.00,-0.00,0.00
2026-06-23 20:02:59.573,0.00,991.55,99155.16,nan,0.00,0.66,0.38,9.33,-0.00,-0.00,0.00
2026-06-23 20:02:59.575,0.00,991.55,99155.16,nan,0.00,0.67,0.37,9.28,-0.00,-0.00,0.00
2026-06-23 20:02:59.576,0.00,991.55,99155.16,nan,0.00,0.67,0.37,9.28,-0.00,-0.00,0.00
2026-06-23 20:02:59.577,0.00,991.55,99155.16,nan,0.00,0.67,0.37,9.28,-0.00,-0.00,0.00
2026-06-23 20:02:59.583,0.00,991.55,99155.16,nan,0.00,0.67,0.37,9.28,-0.00,-0.00,0.00
2026-06-23 20:02:59.584,0.00,991.55,99155.16,nan,0.00,0.66,0.39,9.29,-0.00,0.00,0.00
2026-06-23 20:02:59.586,0.00,991.55,99155.16,nan,0.00,0.66,0.39,9.29,-0.00,0.00,0.00
2026-06-23 20:02:59.587,0.00,991.55,99155.16,nan,0.00,0.66,0.39,9.29,-0.00,0.00,0.00
2026-06-23 20:02:59.591,0.00,991.55,99155.16,nan,0.00,0.66,0.39,9.29,-0.00,0.00,0.00
2026-06-23 20:02:59.593,0.00,991.55,99155.16,nan,0.00,0.66,0.39,9.29,-0.00,0.00,0.00
2026-06-23 20:02:59.594,0.00,991.55,99155.16,nan,0.00,0.67,0.36,9.30,-0.00,0.00,0.00
2026-06-23 20:02:59.596,0.00,991.55,99155.16,nan,0.00,0.67,0.36,9.30,-0.00,0.00,0.00
2026-06-23 20:02:59.597,0.00,991.55,99155.16,nan,0.00,0.67,0.36,9.30,-0.00,0.00,0.00
2026-06-23 20:02:59.603,0.00,991.55,99155.16,nan,0.00,0.67,0.36,9.30,-0.00,0.00,0.00
2026-06-23 20:02:59.605,0.00,991.55,99155.16,nan,0.00,0.66,0.37,9.27,-0.00,0.00,0.00
2026-06-23 20:02:59.606,0.00,991.55,99155.16,nan,0.00,0.66,0.37,9.27,-0.00,0.00,0.00
2026-06-23 20:02:59.607,0.00,991.55,99155.16,nan,0.00,0.66,0.37,9.27,-0.00,0.00,0.00
2026-06-23 20:02:59.608,0.00,991.55,99155.16,nan,0.00,0.66,0.37,9.27,-0.00,0.00,0.00
2026-06-23 20:02:59.609,0.00,991.55,99155.16,nan,0.00,0.66,0.37,9.27,-0.00,0.00,0.00
2026-06-23 20:02:59.610,0.00,991.55,99155.16,nan,0.00,0.66,0.37,9.27,-0.00,0.00,0.00
2026-06-23 20:02:59.613,0.00,991.55,99155.16,nan,0.00,0.66,0.37,9.27,-0.00,0.00,0.00
2026-06-23 20:02:59.615,0.00,991.55,99155.16,nan,0.00,0.65,0.38,9.31,0.00,-0.00,-0.00
2026-06-23 20:02:59.616,0.00,991.55,99155.16,nan,0.00,0.65,0.38,9.31,0.00,-0.00,-0.00
2026-06-23 20:02:59.618,0.00,991.55,99155.16,nan,0.00,0.65,0.38,9.31,0.00,-0.00,-0.00
2026-06-23 20:02:59.623,0.00,991.55,99155.16,nan,0.00,0.65,0.38,9.31,0.00,-0.00,-0.00
2026-06-23 20:02:59.624,0.00,991.55,99155.16,nan,0.00,0.67,0.38,9.32,0.00,-0.00,0.00
2026-06-23 20:02:59.626,0.00,991.55,99155.16,nan,0.00,0.67,0.38,9.32,0.00,-0.00,0.00
2026-06-23 20:02:59.627,0.00,991.55,99155.16,nan,0.00,0.67,0.38,9.32,0.00,-0.00,0.00
2026-06-23 20:02:59.630,0.00,991.55,99155.16,nan,0.00,0.67,0.38,9.32,0.00,-0.00,0.00
2026-06-23 20:02:59.633,0.00,991.55,99155.16,nan,0.00,0.67,0.38,9.32,0.00,0.00,-0.00
2026-06-23 20:02:59.635,0.00,991.55,99155.16,nan,0.00,0.66,0.38,9.27,0.00,0.00,-0.00
2026-06-23 20:02:59.636,0.00,991.55,99155.16,nan,0.00,0.66,0.38,9.27,0.00,0.00,-0.00
2026-06-23 20:02:59.638,0.00,991.55,99155.16,nan,0.00,0.66,0.38,9.27,0.00,0.00,-0.00
2026-06-23 20:02:59.643,0.00,991.55,99155.16,nan,0.00,0.66,0.38,9.27,0.00,0.00,-0.00
2026-06-23 20:02:59.644,0.00,991.55,99155.16,nan,0.00,0.64,0.39,9.29,0.00,-0.00,-0.00
2026-06-23 20:02:59.645,0.00,991.55,99155.16,nan,0.00,0.64,0.39,9.29,0.00,-0.00,-0.00
2026-06-23 20:02:59.647,0.00,991.55,99155.16,nan,0.00,0.64,0.39,9.29,0.00,-0.00,-0.00
2026-06-23 20:02:59.650,0.00,991.55,99155.16,nan,0.00,0.64,0.39,9.29,0.00,-0.00,-0.00
2026-06-23 20:02:59.654,0.00,991.55,99155.16,nan,0.00,0.64,0.39,9.29,0.00,0.00,0.00
2026-06-23 20:02:59.655,0.00,991.55,99155.16,nan,0.00,0.66,0.39,9.30,0.00,0.00,0.00
2026-06-23 20:02:59.656,0.00,991.55,99155.16,nan,0.00,0.66,0.39,9.30,0.00,0.00,0.00
2026-06-23 20:02:59.657,0.00,991.55,99155.16,nan,0.00,0.66,0.39,9.30,0.00,0.00,0.00
2026-06-23 20:02:59.659,0.00,991.55,99155.16,nan,0.00,0.66,0.39,9.30,0.00,0.00,0.00
2026-06-23 20:02:59.660,0.00,991.55,99155.16,nan,0.00,0.66,0.39,9.30,0.00,0.00,0.00
2026-06-23 20:02:59.661,0.00,991.55,99155.16,nan,0.00,0.66,0.39,9.30,0.00,0.00,0.00
2026-06-23 20:02:59.663,0.00,991.55,99155.16,nan,0.00,0.66,0.39,9.30,-0.00,0.00,0.00
2026-06-23 20:02:59.665,0.00,991.55,99155.16,nan,0.00,0.65,0.38,9.28,-0.00,0.00,0.00
2026-06-23 20:02:59.666,0.00,991.55,99155.16,nan,0.00,0.65,0.38,9.28,-0.00,0.00,0.00
2026-06-23 20:02:59.669,0.00,991.55,99155.16,nan,0.00,0.65,0.38,9.28,-0.00,0.00,0.00
2026-06-23 20:02:59.673,0.00,991.55,99155.16,nan,0.00,0.65,0.38,9.28,-0.00,0.00,-0.00
2026-06-23 20:02:59.864,0.00,991.55,99154.87,nan,0.00,0.67,0.37,9.30,-0.00,-0.00,0.00
2026-06-23 20:02:59.866,0.00,991.55,99154.87,nan,0.00,0.66,0.39,9.30,-0.00,-0.00,0.00
2026-06-23 20:02:59.867,0.00,991.55,99154.87,nan,0.00,0.66,0.39,9.30,-0.00,-0.00,0.00
2026-06-23 20:02:59.871,0.00,991.55,99154.87,nan,0.00,0.66,0.39,9.30,-0.00,-0.00,0.00
2026-06-23 20:02:59.874,0.00,991.55,99154.87,nan,0.00,0.66,0.39,9.30,-0.00,0.00,0.00
2026-06-23 20:02:59.875,0.00,991.55,99154.87,nan,0.00,0.66,0.36,9.31,-0.00,0.00,0.00
2026-06-23 20:02:59.876,0.00,991.55,99154.87,nan,0.00,0.66,0.36,9.31,-0.00,0.00,0.00
2026-06-23 20:02:59.878,0.00,991.55,99154.87,nan,0.00,0.66,0.36,9.31,-0.00,0.00,0.00
2026-06-23 20:02:59.881,0.00,991.55,99154.87,nan,0.00,0.66,0.36,9.31,-0.00,0.00,0.00
2026-06-23 20:02:59.884,0.00,991.55,99154.87,nan,0.00,0.66,0.36,9.31,0.00,0.00,-0.00
2026-06-23 20:02:59.886,0.00,991.55,99154.87,nan,0.00,0.65,0.37,9.28,0.00,0.00,-0.00
2026-06-23 20:02:59.887,0.00,991.55,99154.87,nan,0.00,0.65,0.37,9.28,0.00,0.00,-0.00
2026-06-23 20:02:59.888,0.00,991.55,99154.87,nan,0.00,0.65,0.37,9.28,0.00,0.00,-0.00
2026-06-23 20:02:59.892,0.00,991.55,99154.87,nan,0.00,0.65,0.37,9.28,0.00,0.00,-0.00
2026-06-23 20:02:59.894,0.00,991.55,99154.87,nan,0.00,0.65,0.37,9.28,-0.00,-0.00,0.00
2026-06-23 20:02:59.895,0.00,991.55,99154.87,nan,0.00,0.66,0.38,9.31,-0.00,-0.00,0.00
2026-06-23 20:02:59.896,0.00,991.55,99154.87,nan,0.00,0.66,0.38,9.31,-0.00,-0.00,0.00
2026-06-23 20:02:59.898,0.00,991.55,99154.87,nan,0.00,0.66,0.38,9.31,-0.00,-0.00,0.00
2026-06-23 20:02:59.904,0.00,991.55,99154.87,nan,0.00,0.66,0.38,9.31,-0.00,-0.00,0.00
2026-06-23 20:02:59.905,0.00,991.55,99154.87,nan,0.00,0.67,0.37,9.29,-0.00,-0.00,-0.00
2026-06-23 20:02:59.906,0.00,991.55,99154.87,nan,0.00,0.67,0.37,9.29,-0.00,-0.00,-0.00
2026-06-23 20:02:59.908,0.00,991.55,99154.87,nan,0.00,0.67,0.37,9.29,-0.00,-0.00,-0.00
2026-06-23 20:02:59.909,0.00,991.55,99154.87,nan,0.00,0.67,0.37,9.29,-0.00,-0.00,-0.00
2026-06-23 20:02:59.910,0.00,991.55,99154.87,nan,0.00,0.67,0.37,9.29,-0.00,-0.00,-0.00
2026-06-23 20:02:59.911,0.00,991.55,99154.87,nan,0.00,0.67,0.37,9.29,-0.00,-0.00,-0.00
2026-06-23 20:02:59.914,0.00,991.55,99154.87,nan,0.00,0.67,0.37,9.29,-0.00,-0.00,-0.00
2026-06-23 20:02:59.915,0.00,991.55,99154.87,nan,0.00,0.67,0.38,9.31,-0.00,-0.00,0.00
2026-06-23 20:02:59.917,0.00,991.55,99154.87,nan,0.00,0.67,0.38,9.31,-0.00,-0.00,0.00
2026-06-23 20:02:59.918,0.00,991.55,99154.87,nan,0.00,0.67,0.38,9.31,-0.00,-0.00,0.00
2026-06-23 20:02:59.924,0.00,991.55,99154.87,nan,0.00,0.67,0.38,9.31,-0.00,-0.00,0.00
2026-06-23 20:02:59.925,0.00,991.55,99154.87,nan,0.00,0.67,0.40,9.29,-0.00,-0.00,0.00
2026-06-23 20:02:59.926,0.00,991.55,99154.87,nan,0.00,0.67,0.40,9.29,-0.00,-0.00,0.00
2026-06-23 20:02:59.927,0.00,991.55,99154.87,nan,0.00,0.67,0.40,9.29,-0.00,-0.00,0.00
2026-06-23 20:02:59.929,0.00,991.55,99154.87,nan,0.00,0.67,0.40,9.29,-0.00,-0.00,0.00
2026-06-23 20:02:59.934,0.00,991.55,99154.87,nan,0.00,0.67,0.40,9.29,-0.00,-0.00,0.00
2026-06-23 20:02:59.935,0.00,991.55,99154.87,nan,0.00,0.66,0.39,9.28,0.00,-0.00,0.00
2026-06-23 20:02:59.937,0.00,991.55,99154.87,nan,0.00,0.66,0.39,9.28,0.00,-0.00,0.00
2026-06-23 20:02:59.938,0.00,991.55,99154.87,nan,0.00,0.66,0.39,9.28,0.00,-0.00,0.00
2026-06-23 20:02:59.943,0.00,991.55,99154.87,nan,0.00,0.66,0.39,9.28,0.00,-0.00,0.00
2026-06-23 20:02:59.945,0.00,991.55,99154.87,nan,0.00,0.66,0.38,9.28,-0.00,-0.00,0.00
2026-06-23 20:02:59.946,0.00,991.55,99154.87,nan,0.00,0.66,0.38,9.28,-0.00,-0.00,0.00
2026-06-23 20:02:59.947,0.00,991.55,99154.87,nan,0.00,0.66,0.38,9.28,-0.00,-0.00,0.00
2026-06-23 20:02:59.951,0.00,991.55,99154.87,nan,0.00,0.66,0.38,9.28,-0.00,-0.00,0.00
2026-06-23 20:02:59.954,0.00,991.55,99154.87,nan,0.00,0.66,0.38,9.28,0.00,0.00,0.00
2026-06-23 20:02:59.956,0.00,991.55,99154.87,nan,0.00,0.66,0.41,9.28,0.00,0.00,0.00
2026-06-23 20:02:59.957,0.00,991.55,99154.87,nan,0.00,0.66,0.41,9.28,0.00,0.00,0.00
2026-06-23 20:02:59.958,0.00,991.55,99154.87,nan,0.00,0.66,0.41,9.28,0.00,0.00,0.00
2026-06-23 20:02:59.959,0.00,991.55,99154.87,nan,0.00,0.66,0.41,9.28,0.00,0.00,0.00
2026-06-23 20:02:59.960,0.00,991.55,99154.87,nan,0.00,0.66,0.41,9.28,0.00,0.00,0.00
2026-06-23 20:02:59.962,0.00,991.55,99154.87,nan,0.00,0.66,0.41,9.28,0.00,0.00,0.00
2026-06-23 20:03:00.154,0.00,991.55,99154.82,nan,0.00,0.65,0.37,9.29,0.00,-0.00,0.00
2026-06-23 20:03:00.156,0.00,991.55,99154.82,nan,0.00,0.66,0.39,9.31,0.00,-0.00,-0.00
2026-06-23 20:03:00.157,0.00,991.55,99154.82,nan,0.00,0.66,0.39,9.31,0.00,-0.00,-0.00
2026-06-23 20:03:00.158,0.00,991.55,99154.82,nan,0.00,0.66,0.39,9.31,0.00,-0.00,-0.00
2026-06-23 20:03:00.159,0.00,991.55,99154.82,nan,0.00,0.66,0.39,9.31,0.00,-0.00,-0.00
2026-06-23 20:03:00.160,0.00,991.55,99154.82,nan,0.00,0.66,0.39,9.31,0.00,-0.00,-0.00
2026-06-23 20:03:00.162,0.00,991.55,99154.82,nan,0.00,0.66,0.39,9.31,0.00,-0.00,-0.00
2026-06-23 20:03:00.163,0.00,991.55,99154.82,nan,0.00,0.66,0.39,9.31,0.00,-0.00,-0.00
2026-06-23 20:03:00.165,0.00,991.55,99154.82,nan,0.00,0.66,0.38,9.28,0.00,0.00,-0.00
2026-06-23 20:03:00.167,0.00,991.55,99154.82,nan,0.00,0.66,0.38,9.28,0.00,0.00,-0.00
2026-06-23 20:03:00.168,0.00,991.55,99154.82,nan,0.00,0.66,0.38,9.28,0.00,0.00,-0.00
2026-06-23 20:03:00.174,0.00,991.55,99154.82,nan,0.00,0.66,0.38,9.28,0.00,0.00,-0.00
2026-06-23 20:03:00.175,0.00,991.55,99154.82,nan,0.00,0.67,0.37,9.31,-0.00,-0.00,0.00
2026-06-23 20:03:00.176,0.00,991.55,99154.82,nan,0.00,0.67,0.37,9.31,-0.00,-0.00,0.00
2026-06-23 20:03:00.178,0.00,991.55,99154.82,nan,0.00,0.67,0.37,9.31,-0.00,-0.00,0.00
2026-06-23 20:03:00.179,0.00,991.55,99154.82,nan,0.00,0.67,0.37,9.31,-0.00,-0.00,0.00
2026-06-23 20:03:00.184,0.00,991.55,99154.82,nan,0.00,0.67,0.37,9.31,-0.00,-0.00,0.00
2026-06-23 20:03:00.186,0.00,991.55,99154.82,nan,0.00,0.66,0.40,9.30,-0.00,-0.00,-0.00
2026-06-23 20:03:00.187,0.00,991.55,99154.82,nan,0.00,0.66,0.40,9.30,-0.00,-0.00,-0.00
2026-06-23 20:03:00.188,0.00,991.55,99154.82,nan,0.00,0.66,0.40,9.30,-0.00,-0.00,-0.00
2026-06-23 20:03:00.189,0.00,991.55,99154.82,nan,0.00,0.66,0.40,9.30,-0.00,-0.00,-0.00
2026-06-23 20:03:00.194,0.00,991.55,99154.82,nan,0.00,0.66,0.40,9.30,-0.00,-0.00,-0.00
2026-06-23 20:03:00.195,0.00,991.55,99154.82,nan,0.00,0.66,0.37,9.31,0.00,-0.00,0.00
2026-06-23 20:03:00.197,0.00,991.55,99154.82,nan,0.00,0.66,0.37,9.31,0.00,-0.00,0.00
2026-06-23 20:03:00.198,0.00,991.55,99154.82,nan,0.00,0.66,0.37,9.31,0.00,-0.00,0.00
2026-06-23 20:03:00.201,0.00,991.55,99154.82,nan,0.00,0.66,0.37,9.31,0.00,-0.00,0.00
2026-06-23 20:03:00.205,0.00,991.55,99154.82,nan,0.00,0.66,0.37,9.31,-0.00,0.00,0.00
2026-06-23 20:03:00.206,0.00,991.55,99154.82,nan,0.00,0.66,0.38,9.32,-0.00,0.00,0.00
2026-06-23 20:03:00.208,0.00,991.55,99154.82,nan,0.00,0.66,0.38,9.32,-0.00,0.00,0.00
2026-06-23 20:03:00.209,0.00,991.55,99154.82,nan,0.00,0.66,0.38,9.32,-0.00,0.00,0.00
2026-06-23 20:03:00.210,0.00,991.55,99154.82,nan,0.00,0.66,0.38,9.32,-0.00,0.00,0.00
2026-06-23 20:03:00.211,0.00,991.55,99154.82,nan,0.00,0.66,0.38,9.32,-0.00,0.00,0.00
2026-06-23 20:03:00.212,0.00,991.55,99154.82,nan,0.00,0.66,0.38,9.32,-0.00,0.00,0.00
2026-06-23 20:03:00.215,0.00,991.55,99154.82,nan,0.00,0.66,0.38,9.32,-0.00,0.00,-0.00
2026-06-23 20:03:00.223,0.00,991.55,99154.82,nan,0.00,0.65,0.37,9.30,-0.00,0.00,-0.00
2026-06-23 20:03:00.225,0.00,991.55,99154.82,nan,0.00,0.66,0.39,9.29,-0.00,-0.00,-0.00
2026-06-23 20:03:00.226,0.00,991.55,99154.82,nan,0.00,0.66,0.39,9.29,-0.00,-0.00,-0.00
2026-06-23 20:03:00.228,0.00,991.55,99154.82,nan,0.00,0.66,0.39,9.29,-0.00,-0.00,-0.00
2026-06-23 20:03:00.229,0.00,991.55,99154.82,nan,0.00,0.66,0.39,9.29,-0.00,-0.00,-0.00
2026-06-23 20:03:00.233,0.00,991.55,99154.82,nan,0.00,0.66,0.39,9.29,-0.00,-0.00,-0.00
2026-06-23 20:03:00.236,0.00,991.55,99154.82,nan,0.00,0.66,0.38,9.28,0.00,0.00,0.00
2026-06-23 20:03:00.237,0.00,991.55,99154.82,nan,0.00,0.66,0.38,9.28,0.00,0.00,0.00
2026-06-23 20:03:00.238,0.00,991.55,99154.82,nan,0.00,0.66,0.38,9.28,0.00,0.00,0.00
2026-06-23 20:03:00.240,0.00,991.55,99154.82,nan,0.00,0.66,0.38,9.28,0.00,0.00,0.00
2026-06-23 20:03:00.245,0.00,991.55,99154.82,nan,0.00,0.66,0.38,9.28,0.00,0.00,0.00
2026-06-23 20:03:00.246,0.00,991.55,99154.82,nan,0.00,0.67,0.35,9.29,0.00,0.00,-0.00
2026-06-23 20:03:00.247,0.00,991.55,99154.82,nan,0.00,0.67,0.35,9.29,0.00,0.00,-0.00
2026-06-23 20:03:00.249,0.00,991.55,99154.82,nan,0.00,0.67,0.35,9.29,0.00,0.00,-0.00
2026-06-23 20:03:00.254,0.00,991.55,99154.82,nan,0.00,0.67,0.35,9.29,0.00,0.00,-0.00
2026-06-23 20:03:00.445,0.00,991.54,99153.60,nan,0.00,0.67,0.40,9.30,0.00,-0.00,-0.00
2026-06-23 20:03:00.446,0.00,991.54,99153.60,nan,0.00,0.66,0.38,9.30,0.00,-0.00,-0.00
2026-06-23 20:03:00.448,0.00,991.54,99153.60,nan,0.00,0.66,0.38,9.30,0.00,-0.00,-0.00
2026-06-23 20:03:00.449,0.00,991.54,99153.60,nan,0.00,0.66,0.38,9.30,0.00,-0.00,-0.00
2026-06-23 20:03:00.455,0.00,991.54,99153.60,nan,0.00,0.66,0.38,9.30,0.00,-0.00,-0.00
2026-06-23 20:03:00.456,0.00,991.54,99153.60,nan,0.00,0.65,0.38,9.31,0.00,0.00,-0.00
2026-06-23 20:03:00.458,0.00,991.54,99153.60,nan,0.00,0.65,0.38,9.31,0.00,0.00,-0.00
2026-06-23 20:03:00.459,0.00,991.54,99153.60,nan,0.00,0.65,0.38,9.31,0.00,0.00,-0.00
2026-06-23 20:03:00.460,0.00,991.54,99153.60,nan,0.00,0.65,0.38,9.31,0.00,0.00,-0.00
2026-06-23 20:03:00.461,0.00,991.54,99153.60,nan,0.00,0.65,0.38,9.31,0.00,0.00,-0.00
2026-06-23 20:03:00.462,0.00,991.54,99153.60,nan,0.00,0.65,0.38,9.31,0.00,0.00,-0.00
2026-06-23 20:03:00.465,0.00,991.54,99153.60,nan,0.00,0.65,0.38,9.31,0.00,0.00,-0.00
2026-06-23 20:03:00.466,0.00,991.54,99153.60,nan,0.00,0.66,0.38,9.31,-0.00,0.00,0.00
2026-06-23 20:03:00.468,0.00,991.54,99153.60,nan,0.00,0.66,0.38,9.31,-0.00,0.00,0.00
2026-06-23 20:03:00.470,0.00,991.54,99153.60,nan,0.00,0.66,0.38,9.31,-0.00,0.00,0.00
2026-06-23 20:03:00.475,0.00,991.54,99153.60,nan,0.00,0.66,0.38,9.31,-0.00,0.00,0.00
2026-06-23 20:03:00.476,0.00,991.54,99153.60,nan,0.00,0.65,0.40,9.27,-0.00,0.00,-0.00
2026-06-23 20:03:00.477,0.00,991.54,99153.60,nan,0.00,0.65,0.40,9.27,-0.00,0.00,-0.00
2026-06-23 20:03:00.478,0.00,991.54,99153.60,nan,0.00,0.65,0.40,9.27,-0.00,0.00,-0.00
2026-06-23 20:03:00.480,0.00,991.54,99153.60,nan,0.00,0.65,0.40,9.27,-0.00,0.00,-0.00
2026-06-23 20:03:00.485,0.00,991.54,99153.60,nan,0.00,0.65,0.40,9.27,-0.00,0.00,-0.00
2026-06-23 20:03:00.487,0.00,991.54,99153.60,nan,0.00,0.66,0.40,9.29,-0.00,-0.00,0.00
2026-06-23 20:03:00.488,0.00,991.54,99153.60,nan,0.00,0.66,0.40,9.29,-0.00,-0.00,0.00
2026-06-23 20:03:00.489,0.00,991.54,99153.60,nan,0.00,0.66,0.40,9.29,-0.00,-0.00,0.00
2026-06-23 20:03:00.490,0.00,991.54,99153.60,nan,0.00,0.66,0.40,9.29,-0.00,-0.00,0.00
2026-06-23 20:03:00.495,0.00,991.54,99153.60,nan,0.00,0.66,0.40,9.29,-0.00,-0.00,0.00
2026-06-23 20:03:00.496,0.00,991.54,99153.60,nan,0.00,0.67,0.37,9.29,-0.00,0.00,0.00
2026-06-23 20:03:00.498,0.00,991.54,99153.60,nan,0.00,0.67,0.37,9.29,-0.00,0.00,0.00
2026-06-23 20:03:00.499,0.00,991.54,99153.60,nan,0.00,0.67,0.37,9.29,-0.00,0.00,0.00
2026-06-23 20:03:00.503,0.00,991.54,99153.60,nan,0.00,0.67,0.37,9.29,-0.00,0.00,0.00
2026-06-23 20:03:00.506,0.00,991.54,99153.60,nan,0.00,0.67,0.37,9.29,-0.00,-0.00,0.00
2026-06-23 20:03:00.507,0.00,991.54,99153.60,nan,0.00,0.67,0.36,9.33,-0.00,-0.00,0.00
2026-06-23 20:03:00.508,0.00,991.54,99153.60,nan,0.00,0.67,0.36,9.33,-0.00,-0.00,0.00
2026-06-23 20:03:00.509,0.00,991.54,99153.60,nan,0.00,0.67,0.36,9.33,-0.00,-0.00,0.00
2026-06-23 20:03:00.511,0.00,991.54,99153.60,nan,0.00,0.67,0.36,9.33,-0.00,-0.00,0.00
2026-06-23 20:03:00.512,0.00,991.54,99153.60,nan,0.00,0.67,0.36,9.33,-0.00,-0.00,0.00
2026-06-23 20:03:00.513,0.00,991.54,99153.60,nan,0.00,0.67,0.36,9.33,-0.00,-0.00,0.00
2026-06-23 20:03:00.515,0.00,991.54,99153.60,nan,0.00,0.67,0.36,9.33,-0.00,-0.00,0.00
2026-06-23 20:03:00.517,0.00,991.54,99153.60,nan,0.00,0.66,0.38,9.32,0.00,0.00,-0.00
2026-06-23 20:03:00.518,0.00,991.54,99153.60,nan,0.00,0.66,0.38,9.32,0.00,0.00,-0.00
2026-06-23 20:03:00.521,0.00,991.54,99153.60,nan,0.00,0.66,0.38,9.32,0.00,0.00,-0.00
2026-06-23 20:03:00.525,0.00,991.54,99153.60,nan,0.00,0.66,0.38,9.32,0.00,0.00,-0.00
2026-06-23 20:03:00.526,0.00,991.54,99153.60,nan,0.00,0.65,0.39,9.31,0.00,0.00,-0.00
2026-06-23 20:03:00.528,0.00,991.54,99153.60,nan,0.00,0.65,0.39,9.31,0.00,0.00,-0.00
2026-06-23 20:03:00.529,0.00,991.54,99153.60,nan,0.00,0.65,0.39,9.31,0.00,0.00,-0.00
2026-06-23 20:03:00.530,0.00,991.54,99153.60,nan,0.00,0.65,0.39,9.31,0.00,0.00,-0.00
2026-06-23 20:03:00.535,0.00,991.54,99153.60,nan,0.00,0.65,0.39,9.31,0.00,0.00,-0.00
2026-06-23 20:03:00.537,0.00,991.54,99153.60,nan,0.00,0.66,0.38,9.28,-0.00,0.00,0.00
2026-06-23 20:03:00.538,0.00,991.54,99153.60,nan,0.00,0.66,0.38,9.28,-0.00,0.00,0.00
2026-06-23 20:03:00.539,0.00,991.54,99153.60,nan,0.00,0.66,0.38,9.28,-0.00,0.00,0.00
2026-06-23 20:03:00.543,0.00,991.54,99153.60,nan,0.00,0.66,0.38,9.28,-0.00,0.00,0.00
2026-06-23 20:03:00.737,0.00,991.57,99157.25,nan,0.00,0.66,0.40,9.30,-0.00,0.00,0.00
2026-06-23 20:03:00.745,0.00,991.57,99157.25,nan,0.00,0.67,0.39,9.27,-0.00,0.00,0.00
2026-06-23 20:03:00.748,0.00,991.57,99157.25,nan,0.00,0.66,0.40,9.31,-0.00,-0.00,-0.00
2026-06-23 20:03:00.750,0.00,991.57,99157.25,nan,0.00,0.66,0.40,9.31,-0.00,-0.00,-0.00
2026-06-23 20:03:00.760,0.00,991.57,99157.25,nan,0.00,0.66,0.40,9.31,-0.00,-0.00,-0.00
2026-06-23 20:03:00.762,0.00,991.57,99157.25,nan,0.00,0.65,0.36,9.30,0.00,-0.00,0.00
2026-06-23 20:03:00.767,0.00,991.57,99157.25,nan,0.00,0.65,0.36,9.30,0.00,-0.00,0.00
2026-06-23 20:03:00.769,0.00,991.57,99157.25,nan,0.00,0.66,0.40,9.29,0.00,-0.00,0.00
2026-06-23 20:03:00.776,0.00,991.57,99157.25,nan,0.00,0.66,0.40,9.29,0.00,-0.00,0.00
2026-06-23 20:03:00.778,0.00,991.57,99157.25,nan,0.00,0.66,0.39,9.32,0.00,-0.00,0.00
2026-06-23 20:03:00.782,0.00,991.57,99157.25,nan,0.00,0.66,0.39,9.32,0.00,-0.00,0.00
2026-06-23 20:03:00.789,0.00,991.57,99157.25,nan,0.00,0.66,0.39,9.27,0.00,-0.01,0.00
2026-06-23 20:03:00.794,0.00,991.57,99157.25,nan,0.00,0.66,0.39,9.27,0.00,-0.01,0.00
2026-06-23 20:03:00.797,0.00,991.57,99157.25,nan,0.00,0.66,0.39,9.27,0.00,-0.00,-0.00
2026-06-23 20:03:00.800,0.00,991.57,99157.25,nan,0.00,0.65,0.37,9.30,0.00,-0.00,-0.00
2026-06-23 20:03:00.806,0.00,991.57,99157.25,nan,0.00,0.65,0.37,9.30,0.00,-0.00,-0.00
2026-06-23 20:03:00.811,0.00,991.57,99157.25,nan,0.00,0.66,0.37,9.31,0.00,-0.00,-0.00
2026-06-23 20:03:00.813,0.00,991.57,99157.25,nan,0.00,0.66,0.37,9.31,0.00,-0.00,-0.00
2026-06-23 20:03:00.817,0.00,991.57,99157.25,nan,0.00,0.66,0.37,9.31,0.00,-0.00,-0.00
2026-06-23 20:03:00.819,0.00,991.57,99157.25,nan,0.00,0.66,0.37,9.30,0.00,-0.00,-0.00
2026-06-23 20:03:00.829,0.00,991.57,99157.25,nan,0.00,0.66,0.37,9.30,0.00,0.00,0.00
2026-06-23 20:03:00.833,0.00,991.57,99157.25,nan,0.00,0.66,0.38,9.27,0.00,0.00,0.00
2026-06-23 20:03:01.026,0.00,991.54,99154.24,nan,0.00,0.66,0.38,9.29,0.00,-0.00,0.00
2026-06-23 20:03:01.028,0.00,991.54,99154.24,nan,0.00,0.66,0.38,9.31,0.00,-0.00,0.00
2026-06-23 20:03:01.029,0.00,991.54,99154.24,nan,0.00,0.66,0.38,9.31,0.00,-0.00,0.00
2026-06-23 20:03:01.033,0.00,991.54,99154.24,nan,0.00,0.66,0.38,9.31,0.00,-0.00,0.00
2026-06-23 20:03:01.037,0.00,991.54,99154.24,nan,0.00,0.66,0.38,9.31,0.00,-0.00,0.00
2026-06-23 20:03:01.039,0.00,991.54,99154.24,nan,0.00,0.66,0.38,9.29,0.00,-0.00,0.00
2026-06-23 20:03:01.041,0.00,991.54,99154.24,nan,0.00,0.66,0.38,9.29,0.00,-0.00,0.00
2026-06-23 20:03:01.046,0.00,991.54,99154.24,nan,0.00,0.66,0.38,9.29,0.00,-0.00,0.00
2026-06-23 20:03:01.048,0.00,991.54,99154.24,nan,0.00,0.66,0.39,9.31,0.00,0.00,0.00
2026-06-23 20:03:01.050,0.00,991.54,99154.24,nan,0.00,0.66,0.39,9.31,0.00,0.00,0.00
2026-06-23 20:03:01.055,0.00,991.54,99154.24,nan,0.00,0.66,0.39,9.31,0.00,0.00,0.00
2026-06-23 20:03:01.058,0.00,991.54,99154.24,nan,0.00,0.65,0.38,9.31,0.00,0.00,-0.00
2026-06-23 20:03:01.059,0.00,991.54,99154.24,nan,0.00,0.65,0.38,9.31,0.00,0.00,-0.00
2026-06-23 20:03:01.061,0.00,991.54,99154.24,nan,0.00,0.65,0.38,9.31,0.00,0.00,-0.00
2026-06-23 20:03:01.062,0.00,991.54,99154.24,nan,0.00,0.65,0.38,9.31,0.00,0.00,-0.00
2026-06-23 20:03:01.064,0.00,991.54,99154.24,nan,0.00,0.65,0.38,9.31,0.00,0.00,-0.00
2026-06-23 20:03:01.067,0.00,991.54,99154.24,nan,0.00,0.65,0.38,9.31,0.00,-0.00,0.00
2026-06-23 20:03:01.069,0.00,991.54,99154.24,nan,0.00,0.66,0.38,9.31,0.00,-0.00,0.00
2026-06-23 20:03:01.071,0.00,991.54,99154.24,nan,0.00,0.66,0.38,9.31,0.00,-0.00,0.00
2026-06-23 20:03:01.076,0.00,991.54,99154.24,nan,0.00,0.66,0.38,9.31,0.00,-0.00,0.00
2026-06-23 20:03:01.078,0.00,991.54,99154.24,nan,0.00,0.66,0.38,9.31,0.00,-0.00,0.00
2026-06-23 20:03:01.079,0.00,991.54,99154.24,nan,0.00,0.66,0.38,9.31,0.00,-0.00,0.00
2026-06-23 20:03:01.081,0.00,991.54,99154.24,nan,0.00,0.66,0.38,9.31,0.00,-0.00,0.00
2026-06-23 20:03:01.087,0.00,991.54,99154.24,nan,0.00,0.66,0.38,9.31,0.00,-0.00,0.00
2026-06-23 20:03:01.088,0.00,991.54,99154.24,nan,0.00,0.66,0.38,9.29,0.00,-0.00,0.00
2026-06-23 20:03:01.090,0.00,991.54,99154.24,nan,0.00,0.66,0.38,9.29,0.00,-0.00,0.00
2026-06-23 20:03:01.091,0.00,991.54,99154.24,nan,0.00,0.66,0.38,9.29,0.00,-0.00,0.00
2026-06-23 20:03:01.095,0.00,991.54,99154.24,nan,0.00,0.66,0.38,9.29,0.00,-0.00,0.00
2026-06-23 20:03:01.097,0.00,991.54,99154.24,nan,0.00,0.66,0.38,9.29,0.00,-0.00,0.00
2026-06-23 20:03:01.099,0.00,991.54,99154.24,nan,0.00,0.66,0.39,9.30,0.00,-0.00,0.00
2026-06-23 20:03:01.100,0.00,991.54,99154.24,nan,0.00,0.66,0.39,9.30,0.00,-0.00,0.00
2026-06-23 20:03:01.106,0.00,991.54,99154.24,nan,0.00,0.66,0.39,9.30,0.00,-0.00,0.00
2026-06-23 20:03:01.108,0.00,991.54,99154.24,nan,0.00,0.66,0.38,9.31,0.00,0.00,0.00
2026-06-23 20:03:01.109,0.00,991.54,99154.24,nan,0.00,0.66,0.38,9.31,0.00,0.00,0.00
2026-06-23 20:03:01.110,0.00,991.54,99154.24,nan,0.00,0.66,0.38,9.31,0.00,0.00,0.00
