timestamp,pressure_bag,pressure_bme,diff_pressure,v_wind_est,speed,accel_x,accel_y,accel_z,gyro_x,gyro_y,gyro_z,power
2026-06-26 19:36:24.730,994.27,994.27,0.49,0.93,0.00,1.09,0.23,9.28,-0.00,-0.00,0.00,0.00
2026-06-26 19:36:24.732,994.27,994.27,0.49,0.93,0.00,1.07,0.22,9.27,-0.00,0.00,0.00,0.00
2026-06-26 19:36:24.733,994.27,994.27,0.49,0.93,0.00,1.07,0.22,9.27,-0.00,0.00,0.00,0.00
2026-06-26 19:36:24.734,994.27,994.27,0.49,0.93,0.00,1.07,0.22,9.27,-0.00,0.00,0.00,0.00
2026-06-26 19:36:24.738,994.27,994.27,0.49,0.93,0.00,1.07,0.22,9.27,-0.00,0.00,0.00,0.00
2026-06-26 19:36:24.741,994.27,994.27,0.49,0.93,0.00,1.07,0.22,9.27,0.00,0.00,-0.00,0.00
2026-06-26 19:36:24.742,994.27,994.27,0.49,0.93,0.00,1.05,0.24,9.27,0.00,0.00,-0.00,0.00
2026-06-26 19:36:24.743,994.27,994.27,0.49,0.93,0.00,1.05,0.24,9.27,0.00,0.00,-0.00,0.00
2026-06-26 19:36:24.744,994.27,994.27,0.49,0.93,0.00,1.05,0.24,9.27,0.00,0.00,-0.00,0.00
2026-06-26 19:36:24.746,994.27,994.27,0.49,0.93,0.00,1.05,0.24,9.27,0.00,0.00,-0.00,0.00
2026-06-26 19:36:24.750,994.27,994.27,0.49,0.93,0.00,1.05,0.24,9.27,0.00,0.00,-0.00,0.00
2026-06-26 19:36:24.752,994.27,994.27,0.49,0.93,0.00,1.04,0.23,9.27,0.00,0.00,-0.00,0.00
2026-06-26 19:36:24.753,994.27,994.27,0.49,0.93,0.00,1.04,0.23,9.27,0.00,0.00,-0.00,0.00
2026-06-26 19:36:24.754,994.27,994.27,0.49,0.93,0.00,1.04,0.23,9.27,0.00,0.00,-0.00,0.00
2026-06-26 19:36:24.755,994.27,994.27,0.49,0.93,0.00,1.04,0.23,9.27,0.00,0.00,-0.00,0.00
2026-06-26 19:36:24.760,994.27,994.27,0.49,0.93,0.00,1.04,0.23,9.27,0.00,0.00,-0.00,0.00
2026-06-26 19:36:24.762,994.27,994.27,0.49,0.93,0.00,1.03,0.22,9.27,-0.00,0.00,-0.00,0.00
2026-06-26 19:36:24.763,994.27,994.27,0.49,0.93,0.00,1.03,0.22,9.27,-0.00,0.00,-0.00,0.00
2026-06-26 19:36:24.764,994.27,994.27,0.49,0.93,0.00,1.03,0.22,9.27,-0.00,0.00,-0.00,0.00
2026-06-26 19:36:24.767,994.27,994.27,0.49,0.93,0.00,1.03,0.22,9.27,-0.00,0.00,-0.00,0.00
2026-06-26 19:36:24.771,994.27,994.27,0.49,0.93,0.00,1.03,0.22,9.27,-0.00,0.00,0.00,0.00
2026-06-26 19:36:24.772,994.27,994.27,0.49,0.93,0.00,1.06,0.22,9.29,-0.00,0.00,0.00,0.00
2026-06-26 19:36:24.773,994.27,994.27,0.49,0.93,0.00,1.06,0.22,9.29,-0.00,0.00,0.00,0.00
2026-06-26 19:36:24.774,994.27,994.27,0.49,0.93,0.00,1.06,0.22,9.29,-0.00,0.00,0.00,0.00
2026-06-26 19:36:24.776,994.27,994.27,0.49,0.93,0.00,1.06,0.22,9.29,-0.00,0.00,0.00,0.00
2026-06-26 19:36:24.780,994.27,994.27,0.49,0.93,0.00,1.06,0.22,9.29,-0.00,0.00,0.00,0.00
2026-06-26 19:36:24.782,994.27,994.27,0.49,0.93,0.00,1.06,0.23,9.28,0.00,0.00,-0.00,0.00
2026-06-26 19:36:24.783,994.27,994.27,0.49,0.93,0.00,1.06,0.23,9.28,0.00,0.00,-0.00,0.00
2026-06-26 19:36:24.828,994.27,994.27,0.46,0.90,0.00,1.08,0.22,9.28,-0.00,0.00,0.00,0.00
2026-06-26 19:36:24.873,994.27,994.27,0.27,0.68,0.00,1.06,0.25,9.27,-0.00,-0.00,0.00,0.00
2026-06-26 19:36:24.877,994.27,994.27,0.27,0.68,0.00,1.05,0.23,9.29,-0.00,-0.00,0.00,0.00
2026-06-26 19:36:24.882,994.27,994.27,0.27,0.68,0.00,1.05,0.23,9.29,-0.00,0.00,0.00,0.00
2026-06-26 19:36:24.883,994.27,994.27,0.27,0.68,0.00,1.04,0.21,9.28,-0.00,0.00,0.00,0.00
2026-06-26 19:36:24.885,994.27,994.27,0.27,0.68,0.00,1.04,0.21,9.28,-0.00,0.00,0.00,0.00
2026-06-26 19:36:24.891,994.27,994.27,0.27,0.68,0.00,1.04,0.21,9.28,-0.00,0.00,0.00,0.00
2026-06-26 19:36:24.892,994.27,994.27,0.27,0.68,0.00,1.06,0.23,9.26,0.00,0.00,-0.00,0.00
2026-06-26 19:36:24.894,994.27,994.27,0.27,0.68,0.00,1.06,0.23,9.26,0.00,0.00,-0.00,0.00
2026-06-26 19:36:24.895,994.27,994.27,0.27,0.68,0.00,1.06,0.23,9.26,0.00,0.00,-0.00,0.00
2026-06-26 19:36:24.896,994.27,994.27,0.27,0.68,0.00,1.06,0.23,9.26,0.00,0.00,-0.00,0.00
2026-06-26 19:36:24.901,994.27,994.27,0.27,0.68,0.00,1.06,0.23,9.26,0.00,0.00,-0.00,0.00
2026-06-26 19:36:24.902,994.27,994.27,0.27,0.68,0.00,1.04,0.22,9.29,0.00,0.00,0.00,0.00
2026-06-26 19:36:24.903,994.27,994.27,0.27,0.68,0.00,1.04,0.22,9.29,0.00,0.00,0.00,0.00
2026-06-26 19:36:24.904,994.27,994.27,0.27,0.68,0.00,1.04,0.22,9.29,0.00,0.00,0.00,0.00
2026-06-26 19:36:24.906,994.27,994.27,0.27,0.68,0.00,1.04,0.22,9.29,0.00,0.00,0.00,0.00
2026-06-26 19:36:24.911,994.27,994.27,0.27,0.68,0.00,1.04,0.22,9.29,0.00,-0.00,0.00,0.00
2026-06-26 19:36:24.913,994.27,994.27,0.27,0.68,0.00,1.08,0.24,9.28,0.00,-0.00,0.00,0.00
2026-06-26 19:36:24.914,994.27,994.27,0.27,0.68,0.00,1.08,0.24,9.28,0.00,-0.00,0.00,0.00
2026-06-26 19:36:24.915,994.27,994.27,0.27,0.68,0.00,1.08,0.24,9.28,0.00,-0.00,0.00,0.00
2026-06-26 19:36:24.916,994.27,994.27,0.27,0.68,0.00,1.08,0.24,9.28,0.00,-0.00,0.00,0.00
2026-06-26 19:36:24.918,994.27,994.27,0.27,0.68,0.00,1.08,0.24,9.28,0.00,-0.00,0.00,0.00
2026-06-26 19:36:24.921,994.27,994.27,0.27,0.68,0.00,1.08,0.24,9.28,0.00,-0.00,0.00,0.00
2026-06-26 19:36:24.922,994.27,994.27,0.27,0.68,0.00,1.05,0.22,9.31,0.00,-0.00,0.00,0.00
2026-06-26 19:36:24.924,994.27,994.27,0.27,0.68,0.00,1.05,0.22,9.31,0.00,-0.00,0.00,0.00
2026-06-26 19:36:24.925,994.27,994.27,0.27,0.68,0.00,1.05,0.22,9.31,0.00,-0.00,0.00,0.00
2026-06-26 19:36:24.966,994.27,994.27,-0.13,-0.48,0.00,1.06,0.22,9.29,0.00,-0.00,-0.00,0.00
2026-06-26 19:36:24.971,994.27,994.27,-0.13,-0.48,0.00,1.06,0.22,9.29,0.00,-0.00,-0.00,0.00
2026-06-26 19:36:25.014,994.27,994.27,-0.28,-0.70,0.00,1.05,0.23,9.28,0.00,0.00,0.00,0.00
2026-06-26 19:36:25.015,994.27,994.27,-0.28,-0.70,0.00,1.05,0.23,9.28,0.00,0.00,0.00,0.00
2026-06-26 19:36:25.016,994.27,994.27,-0.28,-0.70,0.00,1.05,0.23,9.28,0.00,0.00,0.00,0.00
2026-06-26 19:36:25.020,994.27,994.27,-0.28,-0.70,0.00,1.05,0.23,9.28,0.00,0.00,0.00,0.00
2026-06-26 19:36:25.023,994.27,994.27,-0.28,-0.70,0.00,1.06,0.22,9.27,-0.00,0.00,0.00,0.00
2026-06-26 19:36:25.025,994.27,994.27,-0.28,-0.70,0.00,1.06,0.22,9.27,-0.00,0.00,0.00,0.00
2026-06-26 19:36:25.029,994.27,994.27,-0.28,-0.70,0.00,1.06,0.22,9.27,-0.00,0.00,0.00,0.00
2026-06-26 19:36:25.032,994.27,994.27,-0.28,-0.70,0.00,1.06,0.22,9.27,-0.00,0.00,0.00,0.00
2026-06-26 19:36:25.033,994.27,994.27,-0.28,-0.70,0.00,1.07,0.22,9.27,-0.00,0.00,0.00,0.00
2026-06-26 19:36:25.035,994.27,994.27,-0.28,-0.70,0.00,1.07,0.22,9.27,-0.00,0.00,0.00,0.00
2026-06-26 19:36:25.041,994.27,994.27,-0.28,-0.70,0.00,1.07,0.22,9.27,-0.00,0.00,0.00,0.00
2026-06-26 19:36:25.043,994.27,994.27,-0.28,-0.70,0.00,1.08,0.22,9.24,-0.00,0.00,-0.00,0.00
2026-06-26 19:36:25.044,994.27,994.27,-0.28,-0.70,0.00,1.08,0.22,9.24,-0.00,0.00,-0.00,0.00
2026-06-26 19:36:25.046,994.27,994.27,-0.28,-0.70,0.00,1.08,0.22,9.24,-0.00,0.00,-0.00,0.00
2026-06-26 19:36:25.051,994.27,994.27,-0.28,-0.70,0.00,1.08,0.22,9.24,-0.00,0.00,-0.00,0.00
2026-06-26 19:36:25.052,994.27,994.27,-0.28,-0.70,0.00,1.06,0.23,9.27,0.00,0.00,-0.00,0.00
2026-06-26 19:36:25.054,994.27,994.27,-0.28,-0.70,0.00,1.06,0.23,9.27,0.00,0.00,-0.00,0.00
2026-06-26 19:36:25.056,994.27,994.27,-0.28,-0.70,0.00,1.06,0.23,9.27,0.00,0.00,-0.00,0.00
2026-06-26 19:36:25.061,994.27,994.27,-0.28,-0.70,0.00,1.06,0.23,9.27,0.00,0.00,-0.00,0.00
2026-06-26 19:36:25.063,994.27,994.27,-0.28,-0.70,0.00,1.02,0.22,9.29,-0.00,-0.00,0.00,0.00
2026-06-26 19:36:25.064,994.27,994.27,-0.28,-0.70,0.00,1.02,0.22,9.29,-0.00,-0.00,0.00,0.00
2026-06-26 19:36:25.066,994.27,994.27,-0.28,-0.70,0.00,1.02,0.22,9.29,-0.00,-0.00,0.00,0.00
2026-06-26 19:36:25.103,994.27,994.27,-0.18,-0.57,0.00,1.07,0.23,9.28,-0.00,-0.00,-0.00,0.00
2026-06-26 19:36:25.105,994.27,994.27,-0.18,-0.57,0.00,1.07,0.23,9.28,-0.00,-0.00,-0.00,0.00
2026-06-26 19:36:25.111,994.27,994.27,-0.18,-0.57,0.00,1.07,0.23,9.28,-0.00,-0.00,-0.00,0.00
2026-06-26 19:36:25.113,994.27,994.27,-0.18,-0.57,0.00,1.07,0.22,9.26,-0.00,-0.00,0.00,0.00
2026-06-26 19:36:25.161,994.27,994.27,-0.03,-0.22,0.00,1.08,0.21,9.25,-0.00,0.00,0.00,0.00
2026-06-26 19:36:25.164,994.27,994.27,-0.03,-0.22,0.00,1.04,0.21,9.30,-0.00,0.00,0.00,0.00
2026-06-26 19:36:25.165,994.27,994.27,-0.03,-0.22,0.00,1.04,0.21,9.30,-0.00,0.00,0.00,0.00
2026-06-26 19:36:25.166,994.27,994.27,-0.03,-0.22,0.00,1.04,0.21,9.30,-0.00,0.00,0.00,0.00
2026-06-26 19:36:25.168,994.27,994.27,-0.03,-0.22,0.00,1.04,0.21,9.30,-0.00,0.00,0.00,0.00
2026-06-26 19:36:25.169,994.27,994.27,-0.03,-0.22,0.00,1.04,0.21,9.30,-0.00,0.00,0.00,0.00
2026-06-26 19:36:25.172,994.27,994.27,-0.03,-0.22,0.00,1.05,0.24,9.29,-0.00,0.01,0.00,0.00
2026-06-26 19:36:25.174,994.27,994.27,-0.03,-0.22,0.00,1.05,0.24,9.29,-0.00,0.01,0.00,0.00
2026-06-26 19:36:25.175,994.27,994.27,-0.03,-0.22,0.00,1.05,0.24,9.29,-0.00,0.01,0.00,0.00
2026-06-26 19:36:25.176,994.27,994.27,-0.03,-0.22,0.00,1.05,0.24,9.29,-0.00,0.01,0.00,0.00
2026-06-26 19:36:25.181,994.27,994.27,-0.03,-0.22,0.00,1.05,0.24,9.29,-0.00,0.01,0.00,0.00
2026-06-26 19:36:25.183,994.27,994.27,-0.03,-0.22,0.00,1.07,0.24,9.29,0.00,0.00,0.00,0.00
2026-06-26 19:36:25.184,994.27,994.27,-0.03,-0.22,0.00,1.07,0.24,9.29,0.00,0.00,0.00,0.00
2026-06-26 19:36:25.186,994.27,994.27,-0.03,-0.22,0.00,1.07,0.24,9.29,0.00,0.00,0.00,0.00
2026-06-26 19:36:25.192,994.27,994.27,-0.03,-0.22,0.00,1.07,0.24,9.29,-0.00,0.00,0.00,0.00
2026-06-26 19:36:25.194,994.27,994.27,-0.03,-0.22,0.00,1.05,0.24,9.26,-0.00,0.00,0.00,0.00
2026-06-26 19:36:25.195,994.27,994.27,-0.03,-0.22,0.00,1.05,0.24,9.26,-0.00,0.00,0.00,0.00
2026-06-26 19:36:25.196,994.27,994.27,-0.03,-0.22,0.00,1.05,0.24,9.26,-0.00,0.00,0.00,0.00
2026-06-26 19:36:25.200,994.27,994.27,-0.03,-0.22,0.00,1.05,0.24,9.26,-0.00,0.00,0.00,0.00
2026-06-26 19:36:25.202,994.27,994.27,-0.03,-0.22,0.00,1.03,0.22,9.28,-0.00,0.00,0.00,0.00
2026-06-26 19:36:25.245,994.27,994.27,0.49,0.92,0.00,1.08,0.25,9.26,-0.00,0.00,0.00,0.00
2026-06-26 19:36:25.250,994.27,994.27,0.49,0.92,0.00,1.08,0.25,9.26,-0.00,0.00,0.00,0.00
2026-06-26 19:36:25.253,994.27,994.27,0.49,0.92,0.00,1.07,0.22,9.25,0.00,0.00,0.00,0.00
2026-06-26 19:36:25.255,994.27,994.27,0.49,0.92,0.00,1.07,0.22,9.25,0.00,0.00,0.00,0.00
2026-06-26 19:36:25.302,994.27,994.27,0.48,0.92,0.00,1.05,0.23,9.26,0.00,0.00,0.00,0.00
2026-06-26 19:36:25.304,994.27,994.27,0.48,0.92,0.00,1.06,0.22,9.28,0.00,0.00,0.00,0.00
2026-06-26 19:36:25.308,994.27,994.27,0.48,0.92,0.00,1.06,0.22,9.28,0.00,0.00,0.00,0.00
2026-06-26 19:36:25.312,994.27,994.27,0.48,0.92,0.00,1.06,0.22,9.28,-0.00,0.00,-0.00,0.00
2026-06-26 19:36:25.314,994.27,994.27,0.48,0.92,0.00,1.05,0.22,9.28,-0.00,0.00,-0.00,0.00
2026-06-26 19:36:25.315,994.27,994.27,0.48,0.92,0.00,1.05,0.22,9.28,-0.00,0.00,-0.00,0.00
2026-06-26 19:36:25.316,994.27,994.27,0.48,0.92,0.00,1.05,0.22,9.28,-0.00,0.00,-0.00,0.00
2026-06-26 19:36:25.318,994.27,994.27,0.48,0.92,0.00,1.05,0.22,9.28,-0.00,0.00,-0.00,0.00
2026-06-26 19:36:25.321,994.27,994.27,0.48,0.92,0.00,1.05,0.22,9.28,-0.00,0.00,-0.00,0.00
2026-06-26 19:36:25.323,994.27,994.27,0.48,0.92,0.00,1.07,0.24,9.28,0.00,0.01,-0.00,0.00
2026-06-26 19:36:25.324,994.27,994.27,0.48,0.92,0.00,1.07,0.24,9.28,0.00,0.01,-0.00,0.00
2026-06-26 19:36:25.325,994.27,994.27,0.48,0.92,0.00,1.07,0.24,9.28,0.00,0.01,-0.00,0.00
2026-06-26 19:36:25.330,994.27,994.27,0.48,0.92,0.00,1.07,0.24,9.28,0.00,0.01,-0.00,0.00
2026-06-26 19:36:25.332,994.27,994.27,0.48,0.92,0.00,1.05,0.22,9.28,-0.00,0.00,-0.00,0.00
2026-06-26 19:36:25.334,994.27,994.27,0.48,0.92,0.00,1.05,0.22,9.28,-0.00,0.00,-0.00,0.00
2026-06-26 19:36:25.335,994.27,994.27,0.48,0.92,0.00,1.05,0.22,9.28,-0.00,0.00,-0.00,0.00
2026-06-26 19:36:25.336,994.27,994.27,0.48,0.92,0.00,1.05,0.22,9.28,-0.00,0.00,-0.00,0.00
2026-06-26 19:36:25.341,994.27,994.27,0.48,0.92,0.00,1.05,0.22,9.28,-0.00,0.00,-0.00,0.00
2026-06-26 19:36:25.343,994.27,994.27,0.48,0.92,0.00,1.05,0.23,9.26,-0.00,0.00,0.00,0.00
2026-06-26 19:36:25.344,994.27,994.27,0.48,0.92,0.00,1.05,0.23,9.26,-0.00,0.00,0.00,0.00
2026-06-26 19:36:25.391,994.27,994.27,0.24,0.65,0.00,1.06,0.22,9.26,0.00,-0.00,0.00,0.00
2026-06-26 19:36:25.393,994.27,994.27,0.24,0.65,0.00,1.06,0.22,9.27,0.00,0.00,0.00,0.00
2026-06-26 19:36:25.394,994.27,994.27,0.24,0.65,0.00,1.06,0.22,9.27,0.00,0.00,0.00,0.00
2026-06-26 19:36:25.396,994.27,994.27,0.24,0.65,0.00,1.06,0.22,9.27,0.00,0.00,0.00,0.00
2026-06-26 19:36:25.397,994.27,994.27,0.24,0.65,0.00,1.06,0.22,9.27,0.00,0.00,0.00,0.00
2026-06-26 19:36:25.438,994.27,994.27,0.40,0.84,0.00,1.05,0.22,9.31,0.00,-0.00,0.00,0.00
2026-06-26 19:36:25.442,994.27,994.27,0.40,0.84,0.00,1.05,0.22,9.31,0.00,-0.00,0.00,0.00
2026-06-26 19:36:25.444,994.27,994.27,0.40,0.84,0.00,1.07,0.23,9.25,0.00,-0.00,0.00,0.00
2026-06-26 19:36:25.445,994.27,994.27,0.40,0.84,0.00,1.07,0.23,9.25,0.00,-0.00,0.00,0.00
2026-06-26 19:36:25.447,994.27,994.27,0.40,0.84,0.00,1.07,0.23,9.25,0.00,-0.00,0.00,0.00
2026-06-26 19:36:25.452,994.27,994.27,0.40,0.84,0.00,1.07,0.23,9.25,0.00,-0.00,0.00,0.00
2026-06-26 19:36:25.453,994.27,994.27,0.40,0.84,0.00,1.06,0.24,9.27,0.00,-0.00,0.00,0.00
2026-06-26 19:36:25.456,994.27,994.27,0.40,0.84,0.00,1.06,0.24,9.27,0.00,-0.00,0.00,0.00
2026-06-26 19:36:25.460,994.27,994.27,0.40,0.84,0.00,1.06,0.24,9.27,0.00,-0.00,0.00,0.00
2026-06-26 19:36:25.463,994.27,994.27,0.40,0.84,0.00,1.07,0.23,9.26,0.00,-0.00,0.00,0.00
2026-06-26 19:36:25.465,994.27,994.27,0.40,0.84,0.00,1.07,0.23,9.26,0.00,-0.00,0.00,0.00
2026-06-26 19:36:25.466,994.27,994.27,0.40,0.84,0.00,1.07,0.23,9.26,0.00,-0.00,0.00,0.00
2026-06-26 19:36:25.467,994.27,994.27,0.40,0.84,0.00,1.07,0.23,9.26,0.00,-0.00,0.00,0.00
2026-06-26 19:36:25.468,994.27,994.27,0.40,0.84,0.00,1.07,0.23,9.26,0.00,-0.00,0.00,0.00
2026-06-26 19:36:25.470,994.27,994.27,0.40,0.84,0.00,1.07,0.23,9.26,0.00,-0.00,0.00,0.00
2026-06-26 19:36:25.472,994.27,994.27,0.40,0.84,0.00,1.07,0.23,9.26,-0.00,-0.00,-0.00,0.00
2026-06-26 19:36:25.474,994.27,994.27,0.40,0.84,0.00,1.08,0.20,9.28,-0.00,-0.00,-0.00,0.00
2026-06-26 19:36:25.476,994.27,994.27,0.40,0.84,0.00,1.08,0.20,9.28,-0.00,-0.00,-0.00,0.00
2026-06-26 19:36:25.482,994.27,994.27,0.40,0.84,0.00,1.08,0.20,9.28,-0.00,-0.00,-0.00,0.00
2026-06-26 19:36:25.483,994.27,994.27,0.40,0.84,0.00,1.08,0.23,9.29,0.00,-0.00,0.00,0.00
2026-06-26 19:36:25.484,994.27,994.27,0.40,0.84,0.00,1.08,0.23,9.29,0.00,-0.00,0.00,0.00
2026-06-26 19:36:25.486,994.27,994.27,0.40,0.84,0.00,1.08,0.23,9.29,0.00,-0.00,0.00,0.00
2026-06-26 19:36:25.523,994.27,994.27,0.14,0.50,0.00,1.05,0.22,9.30,0.00,0.00,0.00,0.00
2026-06-26 19:36:25.524,994.27,994.27,0.14,0.50,0.00,1.05,0.22,9.30,0.00,0.00,0.00,0.00
2026-06-26 19:36:25.526,994.27,994.27,0.14,0.50,0.00,1.05,0.22,9.30,0.00,0.00,0.00,0.00
2026-06-26 19:36:25.527,994.27,994.27,0.14,0.50,0.00,1.05,0.22,9.30,0.00,0.00,0.00,0.00
2026-06-26 19:36:25.532,994.27,994.27,0.14,0.50,0.00,1.05,0.22,9.30,0.00,0.00,0.00,0.00
2026-06-26 19:36:25.533,994.27,994.27,0.14,0.50,0.00,1.07,0.23,9.31,0.00,-0.00,0.00,0.00
2026-06-26 19:36:25.535,994.27,994.27,0.14,0.50,0.00,1.07,0.23,9.31,0.00,-0.00,0.00,0.00
2026-06-26 19:36:25.573,994.26,994.27,0.30,0.73,0.00,1.04,0.24,9.31,0.00,-0.00,0.00,0.00
2026-06-26 19:36:25.575,994.26,994.27,0.30,0.73,0.00,1.04,0.24,9.31,0.00,-0.00,0.00,0.00
2026-06-26 19:36:25.576,994.26,994.27,0.30,0.73,0.00,1.04,0.24,9.31,0.00,-0.00,0.00,0.00
2026-06-26 19:36:25.577,994.26,994.27,0.30,0.73,0.00,1.04,0.24,9.31,0.00,-0.00,0.00,0.00
2026-06-26 19:36:25.582,994.26,994.27,0.30,0.73,0.00,1.04,0.24,9.31,0.00,-0.00,0.00,0.00
2026-06-26 19:36:25.584,994.26,994.27,0.30,0.73,0.00,1.06,0.23,9.27,0.00,-0.00,0.00,0.00
2026-06-26 19:36:25.585,994.26,994.27,0.30,0.73,0.00,1.06,0.23,9.27,0.00,-0.00,0.00,0.00
2026-06-26 19:36:25.586,994.26,994.27,0.30,0.73,0.00,1.06,0.23,9.27,0.00,-0.00,0.00,0.00
2026-06-26 19:36:25.593,994.26,994.27,0.30,0.73,0.00,1.06,0.23,9.27,0.00,-0.00,0.00,0.00
2026-06-26 19:36:25.595,994.26,994.27,0.30,0.73,0.00,1.06,0.20,9.27,0.00,-0.00,0.00,0.00
2026-06-26 19:36:25.596,994.26,994.27,0.30,0.73,0.00,1.06,0.20,9.27,0.00,-0.00,0.00,0.00
2026-06-26 19:36:25.597,994.26,994.27,0.30,0.73,0.00,1.06,0.20,9.27,0.00,-0.00,0.00,0.00
2026-06-26 19:36:25.601,994.26,994.27,0.30,0.73,0.00,1.06,0.20,9.27,0.00,-0.00,0.00,0.00
2026-06-26 19:36:25.603,994.26,994.27,0.30,0.73,0.00,1.07,0.22,9.27,0.00,-0.00,0.00,0.00
2026-06-26 19:36:25.604,994.26,994.27,0.30,0.73,0.00,1.07,0.22,9.27,0.00,-0.00,0.00,0.00
2026-06-26 19:36:25.606,994.26,994.27,0.30,0.73,0.00,1.07,0.22,9.27,0.00,-0.00,0.00,0.00
2026-06-26 19:36:25.607,994.26,994.27,0.30,0.73,0.00,1.07,0.22,9.27,0.00,-0.00,0.00,0.00
2026-06-26 19:36:25.610,994.26,994.27,0.30,0.73,0.00,1.07,0.22,9.27,0.00,-0.00,0.00,0.00
2026-06-26 19:36:25.613,994.26,994.27,0.30,0.73,0.00,1.07,0.22,9.27,0.00,-0.00,-0.00,0.00
2026-06-26 19:36:25.614,994.26,994.27,0.30,0.73,0.00,1.06,0.22,9.28,0.00,-0.00,-0.00,0.00
2026-06-26 19:36:25.615,994.26,994.27,0.30,0.73,0.00,1.06,0.22,9.28,0.00,-0.00,-0.00,0.00
2026-06-26 19:36:25.617,994.26,994.27,0.30,0.73,0.00,1.06,0.22,9.28,0.00,-0.00,-0.00,0.00
2026-06-26 19:36:25.618,994.26,994.27,0.30,0.73,0.00,1.06,0.22,9.28,0.00,-0.00,-0.00,0.00
2026-06-26 19:36:25.619,994.26,994.27,0.30,0.73,0.00,1.06,0.22,9.28,0.00,-0.00,-0.00,0.00
2026-06-26 19:36:25.620,994.26,994.27,0.30,0.73,0.00,1.06,0.22,9.28,0.00,-0.00,-0.00,0.00
2026-06-26 19:36:25.622,994.26,994.27,0.30,0.73,0.00,1.06,0.22,9.28,0.00,-0.00,0.00,0.00
2026-06-26 19:36:25.665,994.26,994.26,0.02,0.17,0.00,1.07,0.22,9.28,0.00,-0.00,0.00,0.00
2026-06-26 19:36:25.666,994.26,994.26,0.02,0.17,0.00,1.07,0.22,9.28,0.00,-0.00,0.00,0.00
2026-06-26 19:36:25.667,994.26,994.26,0.02,0.17,0.00,1.07,0.22,9.28,0.00,-0.00,0.00,0.00
2026-06-26 19:36:25.669,994.26,994.26,0.02,0.17,0.00,1.07,0.22,9.28,0.00,-0.00,0.00,0.00
2026-06-26 19:36:25.670,994.26,994.26,0.02,0.17,0.00,1.07,0.22,9.28,0.00,-0.00,0.00,0.00
2026-06-26 19:36:25.672,994.26,994.26,0.02,0.17,0.00,1.07,0.22,9.28,0.00,-0.00,0.00,0.00
2026-06-26 19:36:25.714,994.27,994.26,-0.13,-0.48,0.00,1.06,0.24,9.28,0.00,-0.00,0.00,0.00
2026-06-26 19:36:25.715,994.27,994.26,-0.13,-0.48,0.00,1.06,0.24,9.28,0.00,-0.00,0.00,0.00
2026-06-26 19:36:25.717,994.27,994.26,-0.13,-0.48,0.00,1.06,0.24,9.28,0.00,-0.00,0.00,0.00
2026-06-26 19:36:25.718,994.27,994.26,-0.13,-0.48,0.00,1.06,0.24,9.28,0.00,-0.00,0.00,0.00
2026-06-26 19:36:25.719,994.27,994.26,-0.13,-0.48,0.00,1.06,0.24,9.28,0.00,-0.00,0.00,0.00
2026-06-26 19:36:25.720,994.27,994.26,-0.13,-0.48,0.00,1.06,0.24,9.28,0.00,-0.00,0.00,0.00
2026-06-26 19:36:25.723,994.27,994.26,-0.13,-0.48,0.00,1.06,0.24,9.28,0.00,0.00,-0.00,0.00
2026-06-26 19:36:25.724,994.27,994.26,-0.13,-0.48,0.00,1.06,0.22,9.27,0.00,0.00,-0.00,0.00
2026-06-26 19:36:25.725,994.27,994.26,-0.13,-0.48,0.00,1.06,0.22,9.27,0.00,0.00,-0.00,0.00
2026-06-26 19:36:25.727,994.27,994.26,-0.13,-0.48,0.00,1.06,0.22,9.27,0.00,0.00,-0.00,0.00
2026-06-26 19:36:25.730,994.27,994.26,-0.13,-0.48,0.00,1.06,0.22,9.27,0.00,0.00,-0.00,0.00
2026-06-26 19:36:25.733,994.27,994.26,-0.13,-0.48,0.00,1.06,0.22,9.27,0.00,-0.00,0.00,0.00
2026-06-26 19:36:25.734,994.27,994.26,-0.13,-0.48,0.00,1.05,0.22,9.27,0.00,-0.00,0.00,0.00
2026-06-26 19:36:25.736,994.27,994.26,-0.13,-0.48,0.00,1.05,0.22,9.27,0.00,-0.00,0.00,0.00
2026-06-26 19:36:25.740,994.27,994.26,-0.13,-0.48,0.00,1.05,0.22,9.27,0.00,-0.00,0.00,0.00
2026-06-26 19:36:25.743,994.27,994.26,-0.13,-0.48,0.00,1.05,0.22,9.27,-0.00,0.00,-0.00,0.00
2026-06-26 19:36:25.744,994.27,994.26,-0.13,-0.48,0.00,1.06,0.24,9.27,-0.00,0.00,-0.00,0.00
2026-06-26 19:36:25.745,994.27,994.26,-0.13,-0.48,0.00,1.06,0.24,9.27,-0.00,0.00,-0.00,0.00
2026-06-26 19:36:25.747,994.27,994.26,-0.13,-0.48,0.00,1.06,0.24,9.27,-0.00,0.00,-0.00,0.00
2026-06-26 19:36:25.751,994.27,994.26,-0.13,-0.48,0.00,1.06,0.24,9.27,-0.00,0.00,-0.00,0.00
2026-06-26 19:36:25.753,994.27,994.26,-0.13,-0.48,0.00,1.06,0.24,9.27,-0.00,0.00,-0.00,0.00
2026-06-26 19:36:25.754,994.27,994.26,-0.13,-0.48,0.00,1.05,0.21,9.26,-0.00,0.00,-0.00,0.00
2026-06-26 19:36:25.756,994.27,994.26,-0.13,-0.48,0.00,1.05,0.21,9.26,-0.00,0.00,-0.00,0.00
2026-06-26 19:36:25.757,994.27,994.26,-0.13,-0.48,0.00,1.05,0.21,9.26,-0.00,0.00,-0.00,0.00
2026-06-26 19:36:25.763,994.27,994.26,-0.13,-0.48,0.00,1.05,0.21,9.26,-0.00,0.00,-0.00,0.00
2026-06-26 19:36:25.764,994.27,994.26,-0.13,-0.48,0.00,1.06,0.22,9.29,-0.00,-0.00,0.00,0.00
2026-06-26 19:36:25.803,994.27,994.27,0.03,0.24,0.00,1.06,0.22,9.26,0.00,-0.00,-0.00,0.00
2026-06-26 19:36:25.806,994.27,994.27,0.03,0.24,0.00,1.08,0.22,9.29,0.00,-0.00,-0.00,0.00
2026-06-26 19:36:25.807,994.27,994.27,0.03,0.24,0.00,1.08,0.22,9.29,0.00,-0.00,-0.00,0.00
2026-06-26 19:36:25.813,994.27,994.27,0.03,0.24,0.00,1.08,0.22,9.29,0.00,-0.00,-0.00,0.00
2026-06-26 19:36:25.853,994.27,994.27,0.08,0.38,0.00,1.07,0.23,9.25,-0.00,0.00,0.00,0.00
2026-06-26 19:36:25.856,994.27,994.27,0.08,0.38,0.00,1.06,0.22,9.27,-0.00,0.00,0.00,0.00
2026-06-26 19:36:25.858,994.27,994.27,0.08,0.38,0.00,1.06,0.22,9.27,-0.00,0.00,0.00,0.00
2026-06-26 19:36:25.863,994.27,994.27,0.08,0.38,0.00,1.06,0.22,9.27,-0.00,0.00,0.00,0.00
2026-06-26 19:36:25.865,994.27,994.27,0.08,0.38,0.00,1.05,0.24,9.28,0.00,0.00,-0.00,0.00
2026-06-26 19:36:25.866,994.27,994.27,0.08,0.38,0.00,1.05,0.24,9.28,0.00,0.00,-0.00,0.00
2026-06-26 19:36:25.867,994.27,994.27,0.08,0.38,0.00,1.05,0.24,9.28,0.00,0.00,-0.00,0.00
2026-06-26 19:36:25.868,994.27,994.27,0.08,0.38,0.00,1.05,0.24,9.28,0.00,0.00,-0.00,0.00
2026-06-26 19:36:25.869,994.27,994.27,0.08,0.38,0.00,1.05,0.24,9.28,0.00,0.00,-0.00,0.00
2026-06-26 19:36:25.871,994.27,994.27,0.08,0.38,0.00,1.05,0.24,9.28,0.00,0.00,-0.00,0.00
2026-06-26 19:36:25.872,994.27,994.27,0.08,0.38,0.00,1.05,0.24,9.28,0.00,0.00,-0.00,0.00
2026-06-26 19:36:25.874,994.27,994.27,0.08,0.38,0.00,1.08,0.22,9.27,0.00,0.00,0.00,0.00
2026-06-26 19:36:25.875,994.27,994.27,0.08,0.38,0.00,1.08,0.22,9.27,0.00,0.00,0.00,0.00
2026-06-26 19:36:25.876,994.27,994.27,0.08,0.38,0.00,1.08,0.22,9.27,0.00,0.00,0.00,0.00
2026-06-26 19:36:25.877,994.27,994.27,0.08,0.38,0.00,1.08,0.22,9.27,0.00,0.00,0.00,0.00
2026-06-26 19:36:25.882,994.27,994.27,0.08,0.38,0.00,1.08,0.22,9.27,0.00,0.00,0.00,0.00
2026-06-26 19:36:25.885,994.27,994.27,0.08,0.38,0.00,1.06,0.22,9.28,0.00,-0.00,-0.00,0.00
2026-06-26 19:36:25.886,994.27,994.27,0.08,0.38,0.00,1.06,0.22,9.28,0.00,-0.00,-0.00,0.00
2026-06-26 19:36:25.891,994.27,994.27,0.08,0.38,0.00,1.06,0.22,9.28,0.00,-0.00,-0.00,0.00
2026-06-26 19:36:25.894,994.27,994.27,0.08,0.38,0.00,1.06,0.22,9.28,-0.00,-0.00,-0.00,0.00
2026-06-26 19:36:25.896,994.27,994.27,0.08,0.38,0.00,1.07,0.23,9.27,-0.00,-0.00,-0.00,0.00
2026-06-26 19:36:25.897,994.27,994.27,0.08,0.38,0.00,1.07,0.23,9.27,-0.00,-0.00,-0.00,0.00
2026-06-26 19:36:25.901,994.27,994.27,0.08,0.38,0.00,1.07,0.23,9.27,-0.00,-0.00,-0.00,0.00
2026-06-26 19:36:25.944,994.27,994.27,0.50,0.94,0.00,1.04,0.23,9.26,0.00,-0.00,0.00,0.00
2026-06-26 19:36:25.945,994.27,994.27,0.50,0.94,0.00,1.04,0.23,9.26,0.00,-0.00,0.00,0.00
2026-06-26 19:36:25.946,994.27,994.27,0.50,0.94,0.00,1.04,0.23,9.26,0.00,-0.00,0.00,0.00
2026-06-26 19:36:25.947,994.27,994.27,0.50,0.94,0.00,1.04,0.23,9.26,0.00,-0.00,0.00,0.00
2026-06-26 19:36:25.953,994.27,994.27,0.50,0.94,0.00,1.04,0.23,9.26,0.00,-0.00,0.00,0.00
2026-06-26 19:36:25.995,994.26,994.27,0.69,1.10,0.00,1.06,0.21,9.23,-0.00,0.00,0.00,0.00
2026-06-26 19:36:25.997,994.26,994.27,0.69,1.10,0.00,1.06,0.21,9.23,-0.00,0.00,0.00,0.00
2026-06-26 19:36:26.003,994.26,994.27,0.69,1.10,0.00,1.06,0.21,9.23,-0.00,0.00,0.00,0.00
2026-06-26 19:36:26.004,994.26,994.27,0.69,1.10,0.00,1.06,0.24,9.26,0.00,0.00,0.00,0.00
2026-06-26 19:36:26.006,994.26,994.27,0.69,1.10,0.00,1.06,0.24,9.26,0.00,0.00,0.00,0.00
2026-06-26 19:36:26.007,994.26,994.27,0.69,1.10,0.00,1.06,0.24,9.26,0.00,0.00,0.00,0.00
2026-06-26 19:36:26.009,994.26,994.27,0.69,1.10,0.00,1.06,0.24,9.26,0.00,0.00,0.00,0.00
2026-06-26 19:36:26.014,994.26,994.27,0.69,1.10,0.00,1.06,0.24,9.26,0.00,0.00,0.00,0.00
2026-06-26 19:36:26.015,994.26,994.27,0.69,1.10,0.00,1.07,0.22,9.31,0.00,0.00,0.00,0.00
2026-06-26 19:36:26.016,994.26,994.27,0.69,1.10,0.00,1.07,0.22,9.31,0.00,0.00,0.00,0.00
2026-06-26 19:36:26.018,994.26,994.27,0.69,1.10,0.00,1.07,0.22,9.31,0.00,0.00,0.00,0.00
2026-06-26 19:36:26.019,994.26,994.27,0.69,1.10,0.00,1.07,0.22,9.31,0.00,0.00,0.00,0.00
2026-06-26 19:36:26.020,994.26,994.27,0.69,1.10,0.00,1.07,0.22,9.31,0.00,0.00,0.00,0.00
2026-06-26 19:36:26.021,994.26,994.27,0.69,1.10,0.00,1.07,0.22,9.31,0.00,0.00,0.00,0.00
2026-06-26 19:36:26.024,994.26,994.27,0.69,1.10,0.00,1.07,0.22,9.31,-0.00,0.00,0.00,0.00
2026-06-26 19:36:26.026,994.26,994.27,0.69,1.10,0.00,1.07,0.22,9.27,-0.00,0.00,0.00,0.00
2026-06-26 19:36:26.029,994.26,994.27,0.69,1.10,0.00,1.07,0.22,9.27,-0.00,0.00,0.00,0.00
2026-06-26 19:36:26.033,994.26,994.27,0.69,1.10,0.00,1.07,0.22,9.27,-0.00,0.00,0.00,0.00
2026-06-26 19:36:26.035,994.26,994.27,0.69,1.10,0.00,1.03,0.22,9.26,-0.00,0.00,0.00,0.00
2026-06-26 19:36:26.036,994.26,994.27,0.69,1.10,0.00,1.03,0.22,9.26,-0.00,0.00,0.00,0.00
2026-06-26 19:36:26.037,994.26,994.27,0.69,1.10,0.00,1.03,0.22,9.26,-0.00,0.00,0.00,0.00
2026-06-26 19:36:26.041,994.26,994.27,0.69,1.10,0.00,1.03,0.22,9.26,-0.00,0.00,0.00,0.00
2026-06-26 19:36:26.045,994.26,994.27,0.69,1.10,0.00,1.03,0.22,9.26,0.00,0.00,-0.00,0.00
2026-06-26 19:36:26.095,994.26,994.27,0.41,0.84,0.00,1.06,0.25,9.26,-0.00,-0.00,0.00,0.00
2026-06-26 19:36:26.140,994.27,994.27,0.12,0.45,0.00,1.05,0.22,9.26,0.00,0.00,0.00,0.00
2026-06-26 19:36:26.145,994.27,994.27,0.12,0.45,0.00,1.05,0.22,9.26,0.00,-0.00,-0.00,0.00
2026-06-26 19:36:26.147,994.27,994.27,0.12,0.45,0.00,1.07,0.23,9.27,0.00,-0.00,-0.00,0.00
2026-06-26 19:36:26.153,994.27,994.27,0.12,0.45,0.00,1.07,0.23,9.27,0.00,-0.00,-0.00,0.00
2026-06-26 19:36:26.154,994.27,994.27,0.12,0.45,0.00,1.08,0.22,9.27,0.00,-0.00,-0.00,0.00
2026-06-26 19:36:26.156,994.27,994.27,0.12,0.45,0.00,1.08,0.22,9.27,0.00,-0.00,-0.00,0.00
2026-06-26 19:36:26.157,994.27,994.27,0.12,0.45,0.00,1.08,0.22,9.27,0.00,-0.00,-0.00,0.00
2026-06-26 19:36:26.161,994.27,994.27,0.12,0.45,0.00,1.08,0.22,9.27,0.00,-0.00,-0.00,0.00
2026-06-26 19:36:26.164,994.27,994.27,0.12,0.45,0.00,1.08,0.22,9.27,0.00,-0.00,0.00,0.00
2026-06-26 19:36:26.165,994.27,994.27,0.12,0.45,0.00,1.07,0.21,9.30,0.00,-0.00,0.00,0.00
2026-06-26 19:36:26.167,994.27,994.27,0.12,0.45,0.00,1.07,0.21,9.30,0.00,-0.00,0.00,0.00
2026-06-26 19:36:26.169,994.27,994.27,0.12,0.45,0.00,1.07,0.21,9.30,0.00,-0.00,0.00,0.00
2026-06-26 19:36:26.171,994.27,994.27,0.12,0.45,0.00,1.07,0.21,9.30,0.00,-0.00,0.00,0.00
2026-06-26 19:36:26.174,994.27,994.27,0.12,0.45,0.00,1.07,0.21,9.30,0.00,-0.00,0.00,0.00
2026-06-26 19:36:26.175,994.27,994.27,0.12,0.45,0.00,1.06,0.22,9.30,0.00,-0.00,0.00,0.00
2026-06-26 19:36:26.176,994.27,994.27,0.12,0.45,0.00,1.06,0.22,9.30,0.00,-0.00,0.00,0.00
2026-06-26 19:36:26.177,994.27,994.27,0.12,0.45,0.00,1.06,0.22,9.30,0.00,-0.00,0.00,0.00
2026-06-26 19:36:26.181,994.27,994.27,0.12,0.45,0.00,1.06,0.22,9.30,0.00,-0.00,0.00,0.00
2026-06-26 19:36:26.184,994.27,994.27,0.12,0.45,0.00,1.06,0.22,9.30,0.00,0.00,0.00,0.00
2026-06-26 19:36:26.187,994.27,994.27,0.12,0.45,0.00,1.04,0.23,9.27,0.00,0.00,0.00,0.00
2026-06-26 19:36:26.193,994.27,994.27,0.12,0.45,0.00,1.04,0.23,9.27,0.00,0.00,0.00,0.00
2026-06-26 19:36:26.235,994.27,994.26,-0.33,-0.76,0.00,1.07,0.23,9.28,0.00,-0.00,-0.00,0.00
2026-06-26 19:36:26.278,994.26,994.26,-0.21,-0.60,0.00,1.07,0.22,9.27,0.00,-0.01,0.00,0.00
2026-06-26 19:36:26.284,994.26,994.26,-0.21,-0.60,0.00,1.07,0.22,9.27,0.00,-0.01,0.00,0.00
2026-06-26 19:36:26.285,994.26,994.26,-0.21,-0.60,0.00,1.06,0.20,9.29,0.00,-0.00,0.00,0.00
2026-06-26 19:36:26.286,994.26,994.26,-0.21,-0.60,0.00,1.06,0.20,9.29,0.00,-0.00,0.00,0.00
2026-06-26 19:36:26.287,994.26,994.26,-0.21,-0.60,0.00,1.06,0.20,9.29,0.00,-0.00,0.00,0.00
2026-06-26 19:36:26.293,994.26,994.26,-0.21,-0.60,0.00,1.06,0.20,9.29,0.00,-0.00,0.00,0.00
2026-06-26 19:36:26.296,994.26,994.26,-0.21,-0.60,0.00,1.05,0.24,9.25,-0.00,0.00,0.00,0.00
2026-06-26 19:36:26.297,994.26,994.26,-0.21,-0.60,0.00,1.05,0.24,9.25,-0.00,0.00,0.00,0.00
2026-06-26 19:36:26.298,994.26,994.26,-0.21,-0.60,0.00,1.05,0.24,9.25,-0.00,0.00,0.00,0.00
2026-06-26 19:36:26.302,994.26,994.26,-0.21,-0.60,0.00,1.05,0.24,9.25,-0.00,0.00,0.00,0.00
2026-06-26 19:36:26.304,994.26,994.26,-0.21,-0.60,0.00,1.05,0.24,9.25,-0.00,0.00,0.00,0.00
2026-06-26 19:36:26.306,994.26,994.26,-0.21,-0.60,0.00,1.08,0.24,9.25,-0.00,0.00,0.00,0.00
2026-06-26 19:36:26.308,994.26,994.26,-0.21,-0.60,0.00,1.08,0.24,9.25,-0.00,0.00,0.00,0.00
2026-06-26 19:36:26.314,994.26,994.26,-0.21,-0.60,0.00,1.08,0.24,9.25,-0.00,0.00,0.00,0.00
2026-06-26 19:36:26.315,994.26,994.26,-0.21,-0.60,0.00,1.04,0.24,9.28,-0.00,0.00,0.00,0.00
2026-06-26 19:36:26.317,994.26,994.26,-0.21,-0.60,0.00,1.04,0.24,9.28,-0.00,0.00,0.00,0.00
2026-06-26 19:36:26.318,994.26,994.26,-0.21,-0.60,0.00,1.04,0.24,9.28,-0.00,0.00,0.00,0.00
2026-06-26 19:36:26.319,994.26,994.26,-0.21,-0.60,0.00,1.04,0.24,9.28,-0.00,0.00,0.00,0.00
2026-06-26 19:36:26.320,994.26,994.26,-0.21,-0.60,0.00,1.04,0.24,9.28,-0.00,0.00,0.00,0.00
2026-06-26 19:36:26.321,994.26,994.26,-0.21,-0.60,0.00,1.04,0.24,9.28,-0.00,0.00,0.00,0.00
2026-06-26 19:36:26.324,994.26,994.26,-0.21,-0.60,0.00,1.04,0.24,9.28,0.00,-0.00,0.00,0.00
2026-06-26 19:36:26.326,994.26,994.26,-0.21,-0.60,0.00,1.05,0.23,9.27,0.00,-0.00,0.00,0.00
2026-06-26 19:36:26.327,994.26,994.26,-0.21,-0.60,0.00,1.05,0.23,9.27,0.00,-0.00,0.00,0.00
2026-06-26 19:36:26.328,994.26,994.26,-0.21,-0.60,0.00,1.05,0.23,9.27,0.00,-0.00,0.00,0.00
2026-06-26 19:36:26.334,994.26,994.26,-0.21,-0.60,0.00,1.05,0.23,9.27,0.00,-0.00,0.00,0.00
2026-06-26 19:36:26.376,994.26,994.26,-0.06,-0.33,0.00,1.04,0.23,9.29,0.00,-0.00,0.00,0.00
2026-06-26 19:36:26.377,994.26,994.26,-0.06,-0.33,0.00,1.04,0.23,9.29,0.00,-0.00,0.00,0.00
2026-06-26 19:36:26.419,994.26,994.26,0.16,0.52,0.00,1.05,0.20,9.29,0.00,0.00,-0.00,0.00
2026-06-26 19:36:26.421,994.26,994.26,0.16,0.52,0.00,1.05,0.20,9.29,0.00,0.00,-0.00,0.00
2026-06-26 19:36:26.424,994.26,994.26,0.16,0.52,0.00,1.05,0.20,9.29,-0.00,-0.00,0.00,0.00
2026-06-26 19:36:26.426,994.26,994.26,0.16,0.52,0.00,1.06,0.23,9.28,-0.00,-0.00,0.00,0.00
2026-06-26 19:36:26.427,994.26,994.26,0.16,0.52,0.00,1.06,0.23,9.28,-0.00,-0.00,0.00,0.00
2026-06-26 19:36:26.428,994.26,994.26,0.16,0.52,0.00,1.06,0.23,9.28,-0.00,-0.00,0.00,0.00
2026-06-26 19:36:26.431,994.26,994.26,0.16,0.52,0.00,1.06,0.23,9.28,-0.00,-0.00,0.00,0.00
2026-06-26 19:36:26.435,994.26,994.26,0.16,0.52,0.00,1.06,0.23,9.28,-0.00,-0.00,0.00,0.00
2026-06-26 19:36:26.436,994.26,994.26,0.16,0.52,0.00,1.07,0.22,9.29,-0.00,-0.00,0.00,0.00
2026-06-26 19:36:26.437,994.26,994.26,0.16,0.52,0.00,1.07,0.22,9.29,-0.00,-0.00,0.00,0.00
2026-06-26 19:36:26.438,994.26,994.26,0.16,0.52,0.00,1.07,0.22,9.29,-0.00,-0.00,0.00,0.00
2026-06-26 19:36:26.455,994.26,994.26,0.16,0.52,0.00,1.05,0.22,9.28,0.00,0.00,0.00,0.00
2026-06-26 19:36:26.456,994.26,994.26,0.16,0.52,0.00,1.06,0.23,9.28,0.00,0.00,0.00,0.00
2026-06-26 19:36:26.457,994.26,994.26,0.16,0.52,0.00,1.06,0.23,9.28,0.00,0.00,0.00,0.00
2026-06-26 19:36:26.464,994.26,994.26,0.16,0.52,0.00,1.06,0.23,9.28,0.00,0.00,0.00,0.00
2026-06-26 19:36:26.466,994.26,994.26,0.16,0.52,0.00,1.08,0.23,9.27,0.00,0.00,-0.00,0.00
2026-06-26 19:36:26.469,994.26,994.26,0.16,0.52,0.00,1.08,0.23,9.27,0.00,0.00,-0.00,0.00
2026-06-26 19:36:26.470,994.26,994.26,0.16,0.52,0.00,1.08,0.23,9.27,0.00,0.00,-0.00,0.00
2026-06-26 19:36:26.471,994.26,994.26,0.16,0.52,0.00,1.08,0.23,9.27,0.00,0.00,-0.00,0.00
2026-06-26 19:36:26.475,994.26,994.26,0.16,0.52,0.00,1.08,0.23,9.27,0.00,-0.00,0.00,0.00
2026-06-26 19:36:26.517,994.26,994.26,-0.12,-0.45,0.00,1.06,0.22,9.27,0.00,0.00,0.00,0.00
2026-06-26 19:36:26.518,994.26,994.26,-0.12,-0.45,0.00,1.06,0.22,9.27,0.00,0.00,0.00,0.00
2026-06-26 19:36:26.564,994.26,994.26,0.24,0.65,0.00,1.07,0.21,9.28,0.00,0.00,0.00,0.00
2026-06-26 19:36:26.566,994.26,994.26,0.24,0.65,0.00,1.06,0.22,9.28,-0.00,-0.00,-0.00,0.00
2026-06-26 19:36:26.567,994.26,994.26,0.24,0.65,0.00,1.06,0.22,9.28,-0.00,-0.00,-0.00,0.00
2026-06-26 19:36:26.568,994.26,994.26,0.24,0.65,0.00,1.06,0.22,9.28,-0.00,-0.00,-0.00,0.00
2026-06-26 19:36:26.569,994.26,994.26,0.24,0.65,0.00,1.06,0.22,9.28,-0.00,-0.00,-0.00,0.00
2026-06-26 19:36:26.571,994.26,994.26,0.24,0.65,0.00,1.06,0.22,9.28,-0.00,-0.00,-0.00,0.00
2026-06-26 19:36:26.572,994.26,994.26,0.24,0.65,0.00,1.06,0.22,9.28,-0.00,-0.00,-0.00,0.00
2026-06-26 19:36:26.574,994.26,994.26,0.24,0.65,0.00,1.06,0.22,9.28,-0.00,0.00,0.00,0.00
2026-06-26 19:36:26.576,994.26,994.26,0.24,0.65,0.00,1.06,0.23,9.29,-0.00,0.00,0.00,0.00
2026-06-26 19:36:26.578,994.26,994.26,0.24,0.65,0.00,1.06,0.23,9.29,-0.00,0.00,0.00,0.00
2026-06-26 19:36:26.581,994.26,994.26,0.24,0.65,0.00,1.06,0.23,9.29,-0.00,0.00,0.00,0.00
2026-06-26 19:36:26.585,994.26,994.26,0.24,0.65,0.00,1.06,0.23,9.29,0.00,0.00,0.00,0.00
2026-06-26 19:36:26.586,994.26,994.26,0.24,0.65,0.00,1.05,0.23,9.28,0.00,0.00,0.00,0.00
2026-06-26 19:36:26.587,994.26,994.26,0.24,0.65,0.00,1.05,0.23,9.28,0.00,0.00,0.00,0.00
2026-06-26 19:36:26.588,994.26,994.26,0.24,0.65,0.00,1.05,0.23,9.28,0.00,0.00,0.00,0.00
2026-06-26 19:36:26.592,994.26,994.26,0.24,0.65,0.00,1.05,0.23,9.28,0.00,0.00,0.00,0.00
2026-06-26 19:36:26.595,994.26,994.26,0.24,0.65,0.00,1.05,0.23,9.28,-0.00,-0.00,0.00,0.00
2026-06-26 19:36:26.596,994.26,994.26,0.24,0.65,0.00,1.07,0.23,9.25,-0.00,-0.00,0.00,0.00
2026-06-26 19:36:26.597,994.26,994.26,0.24,0.65,0.00,1.07,0.23,9.25,-0.00,-0.00,0.00,0.00
2026-06-26 19:36:26.599,994.26,994.26,0.24,0.65,0.00,1.07,0.23,9.25,-0.00,-0.00,0.00,0.00
2026-06-26 19:36:26.600,994.26,994.26,0.24,0.65,0.00,1.07,0.23,9.25,-0.00,-0.00,0.00,0.00
2026-06-26 19:36:26.604,994.26,994.26,0.24,0.65,0.00,1.07,0.23,9.25,-0.00,-0.00,0.00,0.00
2026-06-26 19:36:26.606,994.26,994.26,0.24,0.65,0.00,1.07,0.22,9.27,0.00,-0.00,0.00,0.00
2026-06-26 19:36:26.607,994.26,994.26,0.24,0.65,0.00,1.07,0.22,9.27,0.00,-0.00,0.00,0.00
2026-06-26 19:36:26.608,994.26,994.26,0.24,0.65,0.00,1.07,0.22,9.27,0.00,-0.00,0.00,0.00
2026-06-26 19:36:26.609,994.26,994.26,0.24,0.65,0.00,1.07,0.22,9.27,0.00,-0.00,0.00,0.00
2026-06-26 19:36:26.615,994.26,994.26,0.24,0.65,0.00,1.07,0.22,9.27,0.00,-0.00,0.00,0.00
2026-06-26 19:36:26.619,994.26,994.26,0.24,0.65,0.00,1.04,0.23,9.27,0.00,-0.01,0.00,0.00
2026-06-26 19:36:26.706,994.26,994.26,0.58,1.01,0.00,1.09,0.22,9.27,0.00,0.00,0.00,0.00
2026-06-26 19:36:26.708,994.26,994.26,0.58,1.01,0.00,1.06,0.22,9.25,0.00,0.00,0.00,0.00
2026-06-26 19:36:26.714,994.26,994.26,0.58,1.01,0.00,1.06,0.22,9.25,0.00,0.00,0.00,0.00
2026-06-26 19:36:26.716,994.26,994.26,0.58,1.01,0.00,1.04,0.23,9.27,0.00,0.00,-0.00,0.00
2026-06-26 19:36:26.717,994.26,994.26,0.58,1.01,0.00,1.04,0.23,9.27,0.00,0.00,-0.00,0.00
2026-06-26 19:36:26.718,994.26,994.26,0.58,1.01,0.00,1.04,0.23,9.27,0.00,0.00,-0.00,0.00
2026-06-26 19:36:26.720,994.26,994.26,0.58,1.01,0.00,1.04,0.23,9.27,0.00,0.00,-0.00,0.00
2026-06-26 19:36:26.722,994.26,994.26,0.58,1.01,0.00,1.04,0.23,9.27,0.00,0.00,-0.00,0.00
2026-06-26 19:36:26.725,994.26,994.26,0.58,1.01,0.00,1.04,0.23,9.27,0.00,0.00,-0.00,0.00
2026-06-26 19:36:26.726,994.26,994.26,0.58,1.01,0.00,1.06,0.22,9.29,0.00,0.00,-0.00,0.00
2026-06-26 19:36:26.728,994.26,994.26,0.58,1.01,0.00,1.06,0.22,9.29,0.00,0.00,-0.00,0.00
2026-06-26 19:36:26.729,994.26,994.26,0.58,1.01,0.00,1.06,0.22,9.29,0.00,0.00,-0.00,0.00
2026-06-26 19:36:26.733,994.26,994.26,0.58,1.01,0.00,1.06,0.22,9.29,0.00,0.00,-0.00,0.00
2026-06-26 19:36:26.735,994.26,994.26,0.58,1.01,0.00,1.07,0.24,9.27,0.00,0.00,0.00,0.00
2026-06-26 19:36:26.737,994.26,994.26,0.58,1.01,0.00,1.07,0.24,9.27,0.00,0.00,0.00,0.00
2026-06-26 19:36:26.738,994.26,994.26,0.58,1.01,0.00,1.07,0.24,9.27,0.00,0.00,0.00,0.00
2026-06-26 19:36:26.739,994.26,994.26,0.58,1.01,0.00,1.07,0.24,9.27,0.00,0.00,0.00,0.00
2026-06-26 19:36:26.745,994.26,994.26,0.58,1.01,0.00,1.07,0.24,9.27,0.00,0.00,0.00,0.00
2026-06-26 19:36:26.746,994.26,994.26,0.58,1.01,0.00,1.06,0.23,9.27,0.00,0.00,-0.00,0.00
2026-06-26 19:36:26.747,994.26,994.26,0.58,1.01,0.00,1.06,0.23,9.27,0.00,0.00,-0.00,0.00
2026-06-26 19:36:26.749,994.26,994.26,0.58,1.01,0.00,1.06,0.23,9.27,0.00,0.00,-0.00,0.00
2026-06-26 19:36:26.752,994.26,994.26,0.58,1.01,0.00,1.06,0.23,9.27,0.00,0.00,-0.00,0.00
2026-06-26 19:36:26.755,994.26,994.26,0.58,1.01,0.00,1.06,0.23,9.27,0.00,0.00,0.00,0.00
2026-06-26 19:36:26.757,994.26,994.26,0.58,1.01,0.00,1.04,0.24,9.26,0.00,0.00,0.00,0.00
2026-06-26 19:36:26.758,994.26,994.26,0.58,1.01,0.00,1.04,0.24,9.26,0.00,0.00,0.00,0.00
2026-06-26 19:36:26.759,994.26,994.26,0.58,1.01,0.00,1.04,0.24,9.26,0.00,0.00,0.00,0.00
2026-06-26 19:36:26.765,994.26,994.26,0.58,1.01,0.00,1.04,0.24,9.26,0.00,0.00,0.00,0.00
2026-06-26 19:36:26.848,994.25,994.26,0.49,0.93,0.00,1.06,0.22,9.28,0.00,0.00,0.00,0.00
2026-06-26 19:36:26.853,994.25,994.26,0.49,0.93,0.00,1.06,0.22,9.28,0.00,0.00,0.00,0.00
2026-06-26 19:36:26.856,994.25,994.26,0.49,0.93,0.00,1.06,0.22,9.28,-0.00,0.00,0.00,0.00
2026-06-26 19:36:26.857,994.25,994.26,0.49,0.93,0.00,1.05,0.25,9.29,-0.00,0.00,0.00,0.00
2026-06-26 19:36:26.858,994.25,994.26,0.49,0.93,0.00,1.05,0.25,9.29,-0.00,0.00,0.00,0.00
2026-06-26 19:36:26.859,994.25,994.26,0.49,0.93,0.00,1.05,0.25,9.29,-0.00,0.00,0.00,0.00
2026-06-26 19:36:26.865,994.25,994.26,0.49,0.93,0.00,1.05,0.25,9.29,-0.00,0.00,0.00,0.00
2026-06-26 19:36:26.866,994.25,994.26,0.49,0.93,0.00,1.08,0.24,9.27,0.00,0.00,0.00,0.00
2026-06-26 19:36:26.867,994.25,994.26,0.49,0.93,0.00,1.08,0.24,9.27,0.00,0.00,0.00,0.00
2026-06-26 19:36:26.869,994.25,994.26,0.49,0.93,0.00,1.08,0.24,9.27,0.00,0.00,0.00,0.00
2026-06-26 19:36:26.870,994.25,994.26,0.49,0.93,0.00,1.08,0.24,9.27,0.00,0.00,0.00,0.00
2026-06-26 19:36:26.871,994.25,994.26,0.49,0.93,0.00,1.08,0.24,9.27,0.00,0.00,0.00,0.00
2026-06-26 19:36:26.873,994.25,994.26,0.49,0.93,0.00,1.08,0.24,9.27,0.00,0.00,0.00,0.00
2026-06-26 19:36:26.876,994.25,994.26,0.49,0.93,0.00,1.07,0.22,9.28,-0.00,-0.00,0.00,0.00
2026-06-26 19:36:26.877,994.25,994.26,0.49,0.93,0.00,1.07,0.22,9.28,-0.00,-0.00,0.00,0.00
2026-06-26 19:36:26.878,994.25,994.26,0.49,0.93,0.00,1.07,0.22,9.28,-0.00,-0.00,0.00,0.00
2026-06-26 19:36:26.879,994.25,994.26,0.49,0.93,0.00,1.07,0.22,9.28,-0.00,-0.00,0.00,0.00
2026-06-26 19:36:26.884,994.25,994.26,0.49,0.93,0.00,1.07,0.22,9.28,-0.00,-0.00,0.00,0.00
2026-06-26 19:36:26.886,994.25,994.26,0.49,0.93,0.00,1.07,0.22,9.30,0.00,-0.00,-0.00,0.00
2026-06-26 19:36:26.887,994.25,994.26,0.49,0.93,0.00,1.07,0.22,9.30,0.00,-0.00,-0.00,0.00
2026-06-26 19:36:26.888,994.25,994.26,0.49,0.93,0.00,1.07,0.22,9.30,0.00,-0.00,-0.00,0.00
2026-06-26 19:36:26.889,994.25,994.26,0.49,0.93,0.00,1.07,0.22,9.30,0.00,-0.00,-0.00,0.00
2026-06-26 19:36:26.894,994.25,994.26,0.49,0.93,0.00,1.07,0.22,9.30,0.00,-0.00,-0.00,0.00
2026-06-26 19:36:26.896,994.25,994.26,0.49,0.93,0.00,1.05,0.22,9.23,0.00,0.00,0.00,0.00
2026-06-26 19:36:26.897,994.25,994.26,0.49,0.93,0.00,1.05,0.22,9.23,0.00,0.00,0.00,0.00
2026-06-26 19:36:26.898,994.25,994.26,0.49,0.93,0.00,1.05,0.22,9.23,0.00,0.00,0.00,0.00
2026-06-26 19:36:26.900,994.25,994.26,0.49,0.93,0.00,1.05,0.22,9.23,0.00,0.00,0.00,0.00
2026-06-26 19:36:26.901,994.25,994.26,0.49,0.93,0.00,1.05,0.22,9.23,0.00,0.00,0.00,0.00
2026-06-26 19:36:26.905,994.25,994.26,0.49,0.93,0.00,1.05,0.22,9.23,0.00,-0.00,0.00,0.00
2026-06-26 19:36:26.906,994.25,994.26,0.49,0.93,0.00,1.08,0.23,9.28,0.00,-0.00,0.00,0.00
2026-06-26 19:36:26.946,994.25,994.26,0.72,1.12,0.00,1.06,0.22,9.28,0.00,0.00,-0.00,0.00
2026-06-26 19:36:26.947,994.25,994.26,0.72,1.12,0.00,1.05,0.23,9.24,0.00,0.00,-0.00,0.00
2026-06-26 19:36:26.989,994.26,994.26,0.28,0.70,0.00,1.06,0.23,9.27,0.00,-0.00,0.00,0.00
2026-06-26 19:36:26.994,994.26,994.26,0.28,0.70,0.00,1.06,0.23,9.27,0.00,-0.00,0.00,0.00
2026-06-26 19:36:26.996,994.26,994.26,0.28,0.70,0.00,1.05,0.20,9.27,-0.00,0.00,-0.00,0.00
2026-06-26 19:36:26.997,994.26,994.26,0.28,0.70,0.00,1.05,0.20,9.27,-0.00,0.00,-0.00,0.00
2026-06-26 19:36:26.999,994.26,994.26,0.28,0.70,0.00,1.05,0.20,9.27,-0.00,0.00,-0.00,0.00
2026-06-26 19:36:26.000,994.26,994.26,0.28,0.70,0.00,1.05,0.20,9.27,-0.00,0.00,-0.00,0.00
2026-06-26 19:36:26.003,994.26,994.26,0.28,0.70,0.00,1.05,0.20,9.27,-0.00,0.00,-0.00,0.00
2026-06-26 19:36:27.006,994.26,994.26,0.28,0.70,0.00,1.05,0.20,9.27,0.00,0.00,0.00,0.00
2026-06-26 19:36:27.007,994.26,994.26,0.28,0.70,0.00,1.06,0.22,9.27,0.00,0.00,0.00,0.00
2026-06-26 19:36:27.008,994.26,994.26,0.28,0.70,0.00,1.06,0.22,9.27,0.00,0.00,0.00,0.00
2026-06-26 19:36:27.009,994.26,994.26,0.28,0.70,0.00,1.06,0.22,9.27,0.00,0.00,0.00,0.00
2026-06-26 19:36:27.012,994.26,994.26,0.28,0.70,0.00,1.06,0.22,9.27,0.00,0.00,0.00,0.00
2026-06-26 19:36:27.017,994.26,994.26,0.28,0.70,0.00,1.06,0.22,9.27,0.00,-0.00,0.00,0.00
2026-06-26 19:36:27.018,994.26,994.26,0.28,0.70,0.00,1.07,0.22,9.27,0.00,-0.00,0.00,0.00
2026-06-26 19:36:27.019,994.26,994.26,0.28,0.70,0.00,1.07,0.22,9.27,0.00,-0.00,0.00,0.00
2026-06-26 19:36:27.022,994.26,994.26,0.28,0.70,0.00,1.07,0.22,9.27,0.00,-0.00,0.00,0.00
2026-06-26 19:36:27.023,994.26,994.26,0.28,0.70,0.00,1.07,0.22,9.27,0.00,-0.00,0.00,0.00
2026-06-26 19:36:27.026,994.26,994.26,0.28,0.70,0.00,1.07,0.22,9.27,-0.00,-0.00,0.00,0.00
2026-06-26 19:36:27.027,994.26,994.26,0.28,0.70,0.00,1.04,0.22,9.27,-0.00,-0.00,0.00,0.00
2026-06-26 19:36:27.028,994.26,994.26,0.28,0.70,0.00,1.04,0.22,9.27,-0.00,-0.00,0.00,0.00
2026-06-26 19:36:27.030,994.26,994.26,0.28,0.70,0.00,1.04,0.22,9.27,-0.00,-0.00,0.00,0.00
2026-06-26 19:36:27.034,994.26,994.26,0.28,0.70,0.00,1.04,0.22,9.27,-0.00,-0.00,0.00,0.00
2026-06-26 19:36:27.036,994.26,994.26,0.28,0.70,0.00,1.06,0.23,9.30,0.00,0.00,0.00,0.00
2026-06-26 19:36:27.037,994.26,994.26,0.28,0.70,0.00,1.06,0.23,9.30,0.00,0.00,0.00,0.00
2026-06-26 19:36:27.039,994.26,994.26,0.28,0.70,0.00,1.06,0.23,9.30,0.00,0.00,0.00,0.00
2026-06-26 19:36:27.040,994.26,994.26,0.28,0.70,0.00,1.06,0.23,9.30,0.00,0.00,0.00,0.00
2026-06-26 19:36:27.046,994.26,994.26,0.28,0.70,0.00,1.06,0.23,9.30,0.00,0.00,0.00,0.00
2026-06-26 19:36:27.088,994.26,994.26,0.30,0.72,0.00,1.04,0.22,9.27,0.00,0.00,0.00,0.00
2026-06-26 19:36:27.129,994.26,994.26,0.24,0.65,0.00,1.04,0.23,9.29,0.00,-0.00,0.00,0.00
2026-06-26 19:36:27.135,994.26,994.26,0.24,0.65,0.00,1.04,0.23,9.29,0.00,-0.00,0.00,0.00
2026-06-26 19:36:27.137,994.26,994.26,0.24,0.65,0.00,1.07,0.22,9.30,0.00,0.00,0.00,0.00
2026-06-26 19:36:27.138,994.26,994.26,0.24,0.65,0.00,1.07,0.22,9.30,0.00,0.00,0.00,0.00
2026-06-26 19:36:27.139,994.26,994.26,0.24,0.65,0.00,1.07,0.22,9.30,0.00,0.00,0.00,0.00
2026-06-26 19:36:27.140,994.26,994.26,0.24,0.65,0.00,1.07,0.22,9.30,0.00,0.00,0.00,0.00
2026-06-26 19:36:27.146,994.26,994.26,0.24,0.65,0.00,1.07,0.22,9.30,0.00,0.00,0.00,0.00
2026-06-26 19:36:27.147,994.26,994.26,0.24,0.65,0.00,1.07,0.22,9.27,-0.00,0.00,0.00,0.00
2026-06-26 19:36:27.148,994.26,994.26,0.24,0.65,0.00,1.07,0.22,9.27,-0.00,0.00,0.00,0.00
2026-06-26 19:36:27.149,994.26,994.26,0.24,0.65,0.00,1.07,0.22,9.27,-0.00,0.00,0.00,0.00
2026-06-26 19:36:27.150,994.26,994.26,0.24,0.65,0.00,1.07,0.22,9.27,-0.00,0.00,0.00,0.00
2026-06-26 19:36:27.156,994.26,994.26,0.24,0.65,0.00,1.07,0.22,9.27,-0.00,0.00,0.00,0.00
2026-06-26 19:36:27.157,994.26,994.26,0.24,0.65,0.00,1.07,0.22,9.26,0.00,0.00,0.00,0.00
2026-06-26 19:36:27.158,994.26,994.26,0.24,0.65,0.00,1.07,0.22,9.26,0.00,0.00,0.00,0.00
2026-06-26 19:36:27.159,994.26,994.26,0.24,0.65,0.00,1.07,0.22,9.26,0.00,0.00,0.00,0.00
2026-06-26 19:36:27.160,994.26,994.26,0.24,0.65,0.00,1.07,0.22,9.26,0.00,0.00,0.00,0.00
2026-06-26 19:36:27.166,994.26,994.26,0.24,0.65,0.00,1.07,0.22,9.26,0.00,0.00,0.00,0.00
2026-06-26 19:36:27.167,994.26,994.26,0.24,0.65,0.00,1.06,0.22,9.27,0.00,0.00,-0.00,0.00
2026-06-26 19:36:27.168,994.26,994.26,0.24,0.65,0.00,1.06,0.22,9.27,0.00,0.00,-0.00,0.00
2026-06-26 19:36:27.170,994.26,994.26,0.24,0.65,0.00,1.06,0.22,9.27,0.00,0.00,-0.00,0.00
2026-06-26 19:36:27.173,994.26,994.26,0.24,0.65,0.00,1.06,0.22,9.27,0.00,0.00,-0.00,0.00
2026-06-26 19:36:27.176,994.26,994.26,0.24,0.65,0.00,1.06,0.22,9.27,-0.00,0.00,0.00,0.00
2026-06-26 19:36:27.178,994.26,994.26,0.24,0.65,0.00,1.04,0.22,9.29,-0.00,0.00,0.00,0.00
2026-06-26 19:36:27.179,994.26,994.26,0.24,0.65,0.00,1.04,0.22,9.29,-0.00,0.00,0.00,0.00
2026-06-26 19:36:27.185,994.26,994.26,0.24,0.65,0.00,1.04,0.22,9.29,-0.00,0.00,0.00,0.00
2026-06-26 19:36:27.187,994.26,994.26,0.24,0.65,0.00,1.08,0.23,9.28,0.00,0.00,-0.00,0.00
2026-06-26 19:36:27.226,994.26,994.26,-0.13,-0.47,0.00,1.06,0.21,9.27,-0.00,-0.00,0.00,0.00
2026-06-26 19:36:27.228,994.26,994.26,-0.13,-0.47,0.00,1.06,0.22,9.28,-0.00,-0.00,0.00,0.00
2026-06-26 19:36:27.229,994.26,994.26,-0.13,-0.47,0.00,1.06,0.22,9.28,-0.00,-0.00,0.00,0.00
2026-06-26 19:36:27.270,994.26,994.26,-0.22,-0.62,0.00,1.04,0.23,9.28,0.00,-0.00,0.00,0.00
2026-06-26 19:36:27.272,994.26,994.26,-0.22,-0.62,0.00,1.04,0.23,9.28,0.00,-0.00,0.00,0.00
2026-06-26 19:36:27.273,994.26,994.26,-0.22,-0.62,0.00,1.04,0.23,9.28,0.00,-0.00,0.00,0.00
2026-06-26 19:36:27.276,994.26,994.26,-0.22,-0.62,0.00,1.04,0.23,9.28,0.00,-0.00,0.00,0.00
2026-06-26 19:36:27.278,994.26,994.26,-0.22,-0.62,0.00,1.06,0.22,9.28,0.00,-0.00,-0.00,0.00
2026-06-26 19:36:27.280,994.26,994.26,-0.22,-0.62,0.00,1.06,0.22,9.28,0.00,-0.00,-0.00,0.00
2026-06-26 19:36:27.286,994.26,994.26,-0.22,-0.62,0.00,1.06,0.22,9.28,0.00,-0.00,-0.00,0.00
2026-06-26 19:36:27.287,994.26,994.26,-0.22,-0.62,0.00,1.04,0.23,9.31,0.00,-0.00,0.00,0.00
2026-06-26 19:36:27.289,994.26,994.26,-0.22,-0.62,0.00,1.04,0.23,9.31,0.00,-0.00,0.00,0.00
2026-06-26 19:36:27.290,994.26,994.26,-0.22,-0.62,0.00,1.04,0.23,9.31,0.00,-0.00,0.00,0.00
2026-06-26 19:36:27.293,994.26,994.26,-0.22,-0.62,0.00,1.04,0.23,9.31,0.00,-0.00,0.00,0.00
2026-06-26 19:36:27.296,994.26,994.26,-0.22,-0.62,0.00,1.04,0.23,9.31,0.00,0.00,-0.00,0.00
2026-06-26 19:36:27.298,994.26,994.26,-0.22,-0.62,0.00,1.08,0.22,9.26,0.00,0.00,-0.00,0.00
2026-06-26 19:36:27.299,994.26,994.26,-0.22,-0.62,0.00,1.08,0.22,9.26,0.00,0.00,-0.00,0.00
2026-06-26 19:36:27.300,994.26,994.26,-0.22,-0.62,0.00,1.08,0.22,9.26,0.00,0.00,-0.00,0.00
2026-06-26 19:36:27.301,994.26,994.26,-0.22,-0.62,0.00,1.08,0.22,9.26,0.00,0.00,-0.00,0.00
2026-06-26 19:36:27.306,994.26,994.26,-0.22,-0.62,0.00,1.08,0.22,9.26,0.00,0.00,-0.00,0.00
2026-06-26 19:36:27.308,994.26,994.26,-0.22,-0.62,0.00,1.05,0.22,9.28,0.00,0.00,0.00,0.00
2026-06-26 19:36:27.309,994.26,994.26,-0.22,-0.62,0.00,1.05,0.22,9.28,0.00,0.00,0.00,0.00
2026-06-26 19:36:27.310,994.26,994.26,-0.22,-0.62,0.00,1.05,0.22,9.28,0.00,0.00,0.00,0.00
2026-06-26 19:36:27.314,994.26,994.26,-0.22,-0.62,0.00,1.05,0.22,9.28,0.00,0.00,0.00,0.00
2026-06-26 19:36:27.317,994.26,994.26,-0.22,-0.62,0.00,1.05,0.22,9.28,0.00,0.00,-0.00,0.00
2026-06-26 19:36:27.318,994.26,994.26,-0.22,-0.62,0.00,1.06,0.23,9.28,0.00,0.00,-0.00,0.00
2026-06-26 19:36:27.319,994.26,994.26,-0.22,-0.62,0.00,1.06,0.23,9.28,0.00,0.00,-0.00,0.00
2026-06-26 19:36:27.320,994.26,994.26,-0.22,-0.62,0.00,1.06,0.23,9.28,0.00,0.00,-0.00,0.00
2026-06-26 19:36:27.322,994.26,994.26,-0.22,-0.62,0.00,1.06,0.23,9.28,0.00,0.00,-0.00,0.00
2026-06-26 19:36:27.323,994.26,994.26,-0.22,-0.62,0.00,1.06,0.23,9.28,0.00,0.00,-0.00,0.00
2026-06-26 19:36:27.363,994.26,994.26,-0.41,-0.85,0.00,1.05,0.22,9.27,0.00,-0.00,0.00,0.00
2026-06-26 19:36:27.367,994.26,994.26,-0.41,-0.85,0.00,1.05,0.22,9.27,0.00,0.00,0.00,0.00
2026-06-26 19:36:27.368,994.26,994.26,-0.41,-0.85,0.00,1.06,0.22,9.30,0.00,0.00,0.00,0.00
2026-06-26 19:36:27.369,994.26,994.26,-0.41,-0.85,0.00,1.06,0.22,9.30,0.00,0.00,0.00,0.00
2026-06-26 19:36:27.415,994.26,994.26,-0.06,-0.33,0.00,1.07,0.23,9.29,0.00,0.00,0.00,0.00
2026-06-26 19:36:27.418,994.26,994.26,-0.06,-0.33,0.00,1.06,0.22,9.29,-0.00,-0.00,0.00,0.00
2026-06-26 19:36:27.419,994.26,994.26,-0.06,-0.33,0.00,1.06,0.22,9.29,-0.00,-0.00,0.00,0.00
2026-06-26 19:36:27.421,994.26,994.26,-0.06,-0.33,0.00,1.06,0.22,9.29,-0.00,-0.00,0.00,0.00
2026-06-26 19:36:27.422,994.26,994.26,-0.06,-0.33,0.00,1.06,0.22,9.29,-0.00,-0.00,0.00,0.00
2026-06-26 19:36:27.423,994.26,994.26,-0.06,-0.33,0.00,1.06,0.22,9.29,-0.00,-0.00,0.00,0.00
2026-06-26 19:36:27.424,994.26,994.26,-0.06,-0.33,0.00,1.06,0.22,9.29,-0.00,-0.00,0.00,0.00
2026-06-26 19:36:27.427,994.26,994.26,-0.06,-0.33,0.00,1.06,0.22,9.29,-0.00,0.00,0.00,0.00
2026-06-26 19:36:27.428,994.26,994.26,-0.06,-0.33,0.00,1.07,0.23,9.31,-0.00,0.00,0.00,0.00
2026-06-26 19:36:27.429,994.26,994.26,-0.06,-0.33,0.00,1.07,0.23,9.31,-0.00,0.00,0.00,0.00
2026-06-26 19:36:27.431,994.26,994.26,-0.06,-0.33,0.00,1.07,0.23,9.31,-0.00,0.00,0.00,0.00
2026-06-26 19:36:27.434,994.26,994.26,-0.06,-0.33,0.00,1.07,0.23,9.31,-0.00,0.00,0.00,0.00
2026-06-26 19:36:27.437,994.26,994.26,-0.06,-0.33,0.00,1.07,0.23,9.31,-0.00,0.00,0.00,0.00
2026-06-26 19:36:27.438,994.26,994.26,-0.06,-0.33,0.00,1.05,0.22,9.25,-0.00,0.00,0.00,0.00
2026-06-26 19:36:27.441,994.26,994.26,-0.06,-0.33,0.00,1.05,0.22,9.25,-0.00,0.00,0.00,0.00
2026-06-26 19:36:27.446,994.26,994.26,-0.06,-0.33,0.00,1.05,0.22,9.25,-0.00,0.00,0.00,0.00
2026-06-26 19:36:27.448,994.26,994.26,-0.06,-0.33,0.00,1.05,0.22,9.25,-0.00,0.00,-0.00,0.00
2026-06-26 19:36:27.449,994.26,994.26,-0.06,-0.33,0.00,1.05,0.22,9.25,-0.00,0.00,-0.00,0.00
2026-06-26 19:36:27.450,994.26,994.26,-0.06,-0.33,0.00,1.05,0.22,9.25,-0.00,0.00,-0.00,0.00
2026-06-26 19:36:27.453,994.26,994.26,-0.06,-0.33,0.00,1.05,0.22,9.25,-0.00,0.00,-0.00,0.00
2026-06-26 19:36:27.457,994.26,994.26,-0.06,-0.33,0.00,1.05,0.22,9.25,0.00,-0.00,0.00,0.00
2026-06-26 19:36:27.458,994.26,994.26,-0.06,-0.33,0.00,1.07,0.22,9.27,0.00,-0.00,0.00,0.00
2026-06-26 19:36:27.464,994.26,994.26,-0.06,-0.33,0.00,1.07,0.22,9.27,0.00,-0.00,0.00,0.00
2026-06-26 19:36:27.507,994.26,994.26,0.27,0.69,0.00,1.03,0.23,9.26,-0.00,-0.00,0.00,0.00
2026-06-26 19:36:27.509,994.26,994.26,0.27,0.69,0.00,1.06,0.24,9.27,-0.00,-0.00,0.00,0.00
2026-06-26 19:36:27.511,994.26,994.26,0.27,0.69,0.00,1.06,0.24,9.27,-0.00,-0.00,0.00,0.00
2026-06-26 19:36:27.556,994.25,994.26,0.52,0.95,0.00,1.07,0.23,9.26,-0.00,0.00,-0.00,0.00
2026-06-26 19:36:27.558,994.25,994.26,0.52,0.95,0.00,1.07,0.21,9.30,0.00,0.00,0.00,0.00
2026-06-26 19:36:27.559,994.25,994.26,0.52,0.95,0.00,1.07,0.21,9.30,0.00,0.00,0.00,0.00
2026-06-26 19:36:27.560,994.25,994.26,0.52,0.95,0.00,1.07,0.21,9.30,0.00,0.00,0.00,0.00
2026-06-26 19:36:27.567,994.25,994.26,0.52,0.95,0.00,1.07,0.21,9.30,0.00,0.00,0.00,0.00
2026-06-26 19:36:27.569,994.25,994.26,0.52,0.95,0.00,1.07,0.23,9.30,-0.00,-0.00,0.00,0.00
2026-06-26 19:36:27.570,994.25,994.26,0.52,0.95,0.00,1.07,0.23,9.30,-0.00,-0.00,0.00,0.00
2026-06-26 19:36:27.571,994.25,994.26,0.52,0.95,0.00,1.07,0.23,9.30,-0.00,-0.00,0.00,0.00
2026-06-26 19:36:27.573,994.25,994.26,0.52,0.95,0.00,1.07,0.23,9.30,-0.00,-0.00,0.00,0.00
2026-06-26 19:36:27.574,994.25,994.26,0.52,0.95,0.00,1.07,0.23,9.30,-0.00,-0.00,0.00,0.00
2026-06-26 19:36:27.577,994.25,994.26,0.52,0.95,0.00,1.07,0.23,9.30,-0.00,-0.00,0.00,0.00
2026-06-26 19:36:27.578,994.25,994.26,0.52,0.95,0.00,1.06,0.22,9.28,0.00,-0.00,0.00,0.00
2026-06-26 19:36:27.579,994.25,994.26,0.52,0.95,0.00,1.06,0.22,9.28,0.00,-0.00,0.00,0.00
2026-06-26 19:36:27.580,994.25,994.26,0.52,0.95,0.00,1.06,0.22,9.28,0.00,-0.00,0.00,0.00
2026-06-26 19:36:27.582,994.25,994.26,0.52,0.95,0.00,1.06,0.22,9.28,0.00,-0.00,0.00,0.00
2026-06-26 19:36:27.587,994.25,994.26,0.52,0.95,0.00,1.06,0.22,9.28,-0.00,0.00,0.00,0.00
2026-06-26 19:36:27.588,994.25,994.26,0.52,0.95,0.00,1.08,0.23,9.25,-0.00,0.00,0.00,0.00
2026-06-26 19:36:27.589,994.25,994.26,0.52,0.95,0.00,1.08,0.23,9.25,-0.00,0.00,0.00,0.00
2026-06-26 19:36:27.591,994.25,994.26,0.52,0.95,0.00,1.08,0.23,9.25,-0.00,0.00,0.00,0.00
2026-06-26 19:36:27.594,994.25,994.26,0.52,0.95,0.00,1.08,0.23,9.25,-0.00,0.00,0.00,0.00
2026-06-26 19:36:27.597,994.25,994.26,0.52,0.95,0.00,1.08,0.23,9.25,0.00,0.00,0.00,0.00
2026-06-26 19:36:27.598,994.25,994.26,0.52,0.95,0.00,1.08,0.23,9.26,0.00,0.00,0.00,0.00
2026-06-26 19:36:27.599,994.25,994.26,0.52,0.95,0.00,1.08,0.23,9.26,0.00,0.00,0.00,0.00
2026-06-26 19:36:27.601,994.25,994.26,0.52,0.95,0.00,1.08,0.23,9.26,0.00,0.00,0.00,0.00
2026-06-26 19:36:27.602,994.25,994.26,0.52,0.95,0.00,1.08,0.23,9.26,0.00,0.00,0.00,0.00
2026-06-26 19:36:27.607,994.25,994.26,0.52,0.95,0.00,1.08,0.23,9.26,0.00,0.00,0.00,0.00
2026-06-26 19:36:27.647,994.25,994.26,0.68,1.09,0.00,1.07,0.23,9.29,0.00,-0.00,-0.00,0.00
2026-06-26 19:36:27.649,994.25,994.26,0.68,1.09,0.00,1.06,0.22,9.27,0.00,-0.00,-0.00,0.00
2026-06-26 19:36:27.651,994.25,994.26,0.68,1.09,0.00,1.06,0.22,9.27,0.00,-0.00,-0.00,0.00
2026-06-26 19:36:27.688,994.26,994.26,0.17,0.55,0.00,1.07,0.19,9.28,-0.00,-0.00,0.00,0.00
2026-06-26 19:36:27.690,994.26,994.26,0.17,0.55,0.00,1.07,0.19,9.28,-0.00,-0.00,0.00,0.00
2026-06-26 19:36:27.691,994.26,994.26,0.17,0.55,0.00,1.07,0.19,9.28,-0.00,-0.00,0.00,0.00
2026-06-26 19:36:27.695,994.26,994.26,0.17,0.55,0.00,1.07,0.19,9.28,-0.00,-0.00,0.00,0.00
2026-06-26 19:36:27.698,994.26,994.26,0.17,0.55,0.00,1.07,0.19,9.28,0.00,0.00,0.00,0.00
2026-06-26 19:36:27.699,994.26,994.26,0.17,0.55,0.00,1.07,0.21,9.24,0.00,0.00,0.00,0.00
2026-06-26 19:36:27.700,994.26,994.26,0.17,0.55,0.00,1.07,0.21,9.24,0.00,0.00,0.00,0.00
2026-06-26 19:36:27.702,994.26,994.26,0.17,0.55,0.00,1.07,0.21,9.24,0.00,0.00,0.00,0.00
2026-06-26 19:36:27.705,994.26,994.26,0.17,0.55,0.00,1.07,0.21,9.24,0.00,0.00,0.00,0.00
2026-06-26 19:36:27.708,994.26,994.26,0.17,0.55,0.00,1.07,0.21,9.24,-0.00,-0.00,0.00,0.00
2026-06-26 19:36:27.709,994.26,994.26,0.17,0.55,0.00,1.08,0.26,9.26,-0.00,-0.00,0.00,0.00
2026-06-26 19:36:27.710,994.26,994.26,0.17,0.55,0.00,1.08,0.26,9.26,-0.00,-0.00,0.00,0.00
2026-06-26 19:36:27.711,994.26,994.26,0.17,0.55,0.00,1.08,0.26,9.26,-0.00,-0.00,0.00,0.00
2026-06-26 19:36:27.717,994.26,994.26,0.17,0.55,0.00,1.08,0.26,9.26,-0.00,-0.00,0.00,0.00
2026-06-26 19:36:27.718,994.26,994.26,0.17,0.55,0.00,1.06,0.23,9.30,-0.00,-0.00,-0.00,0.00
2026-06-26 19:36:27.719,994.26,994.26,0.17,0.55,0.00,1.06,0.23,9.30,-0.00,-0.00,-0.00,0.00
2026-06-26 19:36:27.721,994.26,994.26,0.17,0.55,0.00,1.06,0.23,9.30,-0.00,-0.00,-0.00,0.00
2026-06-26 19:36:27.722,994.26,994.26,0.17,0.55,0.00,1.06,0.23,9.30,-0.00,-0.00,-0.00,0.00
2026-06-26 19:36:27.723,994.26,994.26,0.17,0.55,0.00,1.06,0.23,9.30,-0.00,-0.00,-0.00,0.00
2026-06-26 19:36:27.724,994.26,994.26,0.17,0.55,0.00,1.06,0.23,9.30,-0.00,-0.00,-0.00,0.00
2026-06-26 19:36:27.727,994.26,994.26,0.17,0.55,0.00,1.06,0.23,9.30,-0.00,-0.00,-0.00,0.00
2026-06-26 19:36:27.728,994.26,994.26,0.17,0.55,0.00,1.05,0.24,9.27,-0.00,0.00,0.00,0.00
2026-06-26 19:36:27.729,994.26,994.26,0.17,0.55,0.00,1.05,0.24,9.27,-0.00,0.00,0.00,0.00
2026-06-26 19:36:27.730,994.26,994.26,0.17,0.55,0.00,1.05,0.24,9.27,-0.00,0.00,0.00,0.00
2026-06-26 19:36:27.732,994.26,994.26,0.17,0.55,0.00,1.05,0.24,9.27,-0.00,0.00,0.00,0.00
2026-06-26 19:36:27.737,994.26,994.26,0.17,0.55,0.00,1.05,0.24,9.27,-0.00,0.00,0.00,0.00
2026-06-26 19:36:27.738,994.26,994.26,0.17,0.55,0.00,1.06,0.23,9.30,-0.00,0.00,-0.00,0.00
2026-06-26 19:36:27.739,994.26,994.26,0.17,0.55,0.00,1.06,0.23,9.30,-0.00,0.00,-0.00,0.00
2026-06-26 19:36:27.741,994.26,994.26,0.17,0.55,0.00,1.06,0.23,9.30,-0.00,0.00,-0.00,0.00
2026-06-26 19:36:27.742,994.26,994.26,0.17,0.55,0.00,1.06,0.23,9.30,-0.00,0.00,-0.00,0.00
2026-06-26 19:36:27.747,994.26,994.26,0.17,0.55,0.00,1.06,0.23,9.30,-0.00,0.00,-0.00,0.00
2026-06-26 19:36:27.831,994.26,994.26,-0.25,-0.66,0.00,1.08,0.22,9.28,0.00,0.00,0.00,0.00
2026-06-26 19:36:27.837,994.26,994.26,-0.25,-0.66,0.00,1.08,0.22,9.28,0.00,0.00,0.00,0.00
2026-06-26 19:36:27.838,994.26,994.26,-0.25,-0.66,0.00,1.06,0.23,9.28,0.00,-0.00,-0.00,0.00
2026-06-26 19:36:27.839,994.26,994.26,-0.25,-0.66,0.00,1.06,0.23,9.28,0.00,-0.00,-0.00,0.00
2026-06-26 19:36:27.841,994.26,994.26,-0.25,-0.66,0.00,1.06,0.23,9.28,0.00,-0.00,-0.00,0.00
2026-06-26 19:36:27.842,994.26,994.26,-0.25,-0.66,0.00,1.06,0.23,9.28,0.00,-0.00,-0.00,0.00
2026-06-26 19:36:27.847,994.26,994.26,-0.25,-0.66,0.00,1.06,0.23,9.28,0.00,-0.00,-0.00,0.00
2026-06-26 19:36:27.848,994.26,994.26,-0.25,-0.66,0.00,1.06,0.23,9.28,-0.00,-0.00,0.00,0.00
2026-06-26 19:36:27.850,994.26,994.26,-0.25,-0.66,0.00,1.06,0.23,9.28,-0.00,-0.00,0.00,0.00
2026-06-26 19:36:27.851,994.26,994.26,-0.25,-0.66,0.00,1.06,0.23,9.28,-0.00,-0.00,0.00,0.00
2026-06-26 19:36:27.853,994.26,994.26,-0.25,-0.66,0.00,1.06,0.23,9.28,-0.00,-0.00,0.00,0.00
2026-06-26 19:36:27.859,994.26,994.26,-0.25,-0.66,0.00,1.06,0.23,9.28,-0.00,0.00,0.00,0.00
2026-06-26 19:36:27.861,994.26,994.26,-0.25,-0.66,0.00,1.06,0.23,9.29,-0.00,0.00,0.00,0.00
2026-06-26 19:36:27.866,994.26,994.26,-0.25,-0.66,0.00,1.06,0.23,9.29,-0.00,0.00,0.00,0.00
2026-06-26 19:36:27.868,994.26,994.26,-0.25,-0.66,0.00,1.07,0.22,9.30,-0.00,0.00,0.00,0.00
2026-06-26 19:36:27.869,994.26,994.26,-0.25,-0.66,0.00,1.07,0.22,9.30,-0.00,0.00,0.00,0.00
2026-06-26 19:36:27.871,994.26,994.26,-0.25,-0.66,0.00,1.07,0.22,9.30,-0.00,0.00,0.00,0.00
2026-06-26 19:36:27.872,994.26,994.26,-0.25,-0.66,0.00,1.07,0.22,9.30,-0.00,0.00,0.00,0.00
2026-06-26 19:36:27.875,994.26,994.26,-0.25,-0.66,0.00,1.07,0.22,9.30,-0.00,0.00,0.00,0.00
2026-06-26 19:36:27.878,994.26,994.26,-0.25,-0.66,0.00,1.07,0.22,9.30,0.00,0.00,-0.00,0.00
2026-06-26 19:36:27.879,994.26,994.26,-0.25,-0.66,0.00,1.06,0.22,9.30,0.00,0.00,-0.00,0.00
2026-06-26 19:36:27.882,994.26,994.26,-0.25,-0.66,0.00,1.06,0.22,9.30,0.00,0.00,-0.00,0.00
2026-06-26 19:36:27.887,994.26,994.26,-0.25,-0.66,0.00,1.06,0.22,9.30,0.00,0.00,-0.00,0.00
2026-06-26 19:36:27.889,994.26,994.26,-0.25,-0.66,0.00,1.07,0.25,9.28,0.00,0.00,-0.00,0.00
2026-06-26 19:36:27.930,994.26,994.26,-0.33,-0.76,0.00,1.04,0.21,9.29,0.00,0.00,0.00,0.00
2026-06-26 19:36:27.972,994.26,994.26,-0.70,-1.11,0.00,1.07,0.22,9.26,0.00,0.00,0.00,0.00
2026-06-26 19:36:27.974,994.26,994.26,-0.70,-1.11,0.00,1.07,0.22,9.26,0.00,0.00,0.00,0.00
2026-06-26 19:36:27.977,994.26,994.26,-0.70,-1.11,0.00,1.07,0.22,9.26,0.00,0.00,0.00,0.00
2026-06-26 19:36:27.979,994.26,994.26,-0.70,-1.11,0.00,1.05,0.23,9.25,0.00,0.00,0.00,0.00
2026-06-26 19:36:27.981,994.26,994.26,-0.70,-1.11,0.00,1.05,0.23,9.25,0.00,0.00,0.00,0.00
2026-06-26 19:36:27.982,994.26,994.26,-0.70,-1.11,0.00,1.05,0.23,9.25,0.00,0.00,0.00,0.00
2026-06-26 19:36:27.987,994.26,994.26,-0.70,-1.11,0.00,1.05,0.23,9.25,0.00,0.00,0.00,0.00
2026-06-26 19:36:27.989,994.26,994.26,-0.70,-1.11,0.00,1.05,0.23,9.30,0.00,-0.00,0.00,0.00
2026-06-26 19:36:27.990,994.26,994.26,-0.70,-1.11,0.00,1.05,0.23,9.30,0.00,-0.00,0.00,0.00
2026-06-26 19:36:27.991,994.26,994.26,-0.70,-1.11,0.00,1.05,0.23,9.30,0.00,-0.00,0.00,0.00
2026-06-26 19:36:27.992,994.26,994.26,-0.70,-1.11,0.00,1.05,0.23,9.30,0.00,-0.00,0.00,0.00
2026-06-26 19:36:27.997,994.26,994.26,-0.70,-1.11,0.00,1.05,0.23,9.30,0.00,-0.00,0.00,0.00
2026-06-26 19:36:27.999,994.26,994.26,-0.70,-1.11,0.00,1.07,0.22,9.28,0.00,0.00,0.00,0.00
2026-06-26 19:36:27.000,994.26,994.26,-0.70,-1.11,0.00,1.07,0.22,9.28,0.00,0.00,0.00,0.00
2026-06-26 19:36:27.001,994.26,994.26,-0.70,-1.11,0.00,1.07,0.22,9.28,0.00,0.00,0.00,0.00
2026-06-26 19:36:27.002,994.26,994.26,-0.70,-1.11,0.00,1.07,0.22,9.28,0.00,0.00,0.00,0.00
2026-06-26 19:36:28.005,994.26,994.26,-0.70,-1.11,0.00,1.07,0.22,9.28,0.00,0.00,0.00,0.00
2026-06-26 19:36:28.008,994.26,994.26,-0.70,-1.11,0.00,1.07,0.22,9.28,0.00,-0.00,0.00,0.00
2026-06-26 19:36:28.009,994.26,994.26,-0.70,-1.11,0.00,1.07,0.23,9.27,0.00,-0.00,0.00,0.00
2026-06-26 19:36:28.010,994.26,994.26,-0.70,-1.11,0.00,1.07,0.23,9.27,0.00,-0.00,0.00,0.00
2026-06-26 19:36:28.012,994.26,994.26,-0.70,-1.11,0.00,1.07,0.23,9.27,0.00,-0.00,0.00,0.00
2026-06-26 19:36:28.015,994.26,994.26,-0.70,-1.11,0.00,1.07,0.23,9.27,0.00,-0.00,0.00,0.00
2026-06-26 19:36:28.018,994.26,994.26,-0.70,-1.11,0.00,1.07,0.23,9.27,0.00,0.00,-0.00,0.00
2026-06-26 19:36:28.019,994.26,994.26,-0.70,-1.11,0.00,1.06,0.25,9.28,0.00,0.00,-0.00,0.00
2026-06-26 19:36:28.021,994.26,994.26,-0.70,-1.11,0.00,1.06,0.25,9.28,0.00,0.00,-0.00,0.00
2026-06-26 19:36:28.022,994.26,994.26,-0.70,-1.11,0.00,1.06,0.25,9.28,0.00,0.00,-0.00,0.00
2026-06-26 19:36:28.023,994.26,994.26,-0.70,-1.11,0.00,1.06,0.25,9.28,0.00,0.00,-0.00,0.00
2026-06-26 19:36:28.024,994.26,994.26,-0.70,-1.11,0.00,1.06,0.25,9.28,0.00,0.00,-0.00,0.00
2026-06-26 19:36:28.025,994.26,994.26,-0.70,-1.11,0.00,1.06,0.25,9.28,0.00,0.00,-0.00,0.00
2026-06-26 19:36:28.028,994.26,994.26,-0.70,-1.11,0.00,1.06,0.25,9.28,0.00,0.00,-0.00,0.00
2026-06-26 19:36:28.029,994.26,994.26,-0.70,-1.11,0.00,1.05,0.22,9.32,0.00,0.00,-0.00,0.00
2026-06-26 19:36:28.117,994.26,994.26,-0.63,-1.05,0.00,1.07,0.23,9.26,0.00,0.00,0.00,0.00
2026-06-26 19:36:28.119,994.26,994.26,-0.63,-1.05,0.00,1.06,0.24,9.28,0.00,0.00,0.00,0.00
2026-06-26 19:36:28.120,994.26,994.26,-0.63,-1.05,0.00,1.06,0.24,9.28,0.00,0.00,0.00,0.00
2026-06-26 19:36:28.121,994.26,994.26,-0.63,-1.05,0.00,1.06,0.24,9.28,0.00,0.00,0.00,0.00
2026-06-26 19:36:28.123,994.26,994.26,-0.63,-1.05,0.00,1.06,0.24,9.28,0.00,0.00,0.00,0.00
2026-06-26 19:36:28.124,994.26,994.26,-0.63,-1.05,0.00,1.06,0.24,9.28,0.00,0.00,0.00,0.00
2026-06-26 19:36:28.125,994.26,994.26,-0.63,-1.05,0.00,1.06,0.24,9.28,0.00,0.00,0.00,0.00
2026-06-26 19:36:28.128,994.26,994.26,-0.63,-1.05,0.00,1.06,0.24,9.28,0.00,0.00,0.00,0.00
2026-06-26 19:36:28.129,994.26,994.26,-0.63,-1.05,0.00,1.07,0.23,9.31,0.00,0.00,-0.00,0.00
2026-06-26 19:36:28.130,994.26,994.26,-0.63,-1.05,0.00,1.07,0.23,9.31,0.00,0.00,-0.00,0.00
2026-06-26 19:36:28.131,994.26,994.26,-0.63,-1.05,0.00,1.07,0.23,9.31,0.00,0.00,-0.00,0.00
2026-06-26 19:36:28.132,994.26,994.26,-0.63,-1.05,0.00,1.07,0.23,9.31,0.00,0.00,-0.00,0.00
2026-06-26 19:36:28.138,994.26,994.26,-0.63,-1.05,0.00,1.07,0.23,9.31,0.00,0.00,-0.00,0.00
2026-06-26 19:36:28.139,994.26,994.26,-0.63,-1.05,0.00,1.08,0.22,9.27,0.00,0.00,0.00,0.00
2026-06-26 19:36:28.141,994.26,994.26,-0.63,-1.05,0.00,1.08,0.22,9.27,0.00,0.00,0.00,0.00
2026-06-26 19:36:28.145,994.26,994.26,-0.63,-1.05,0.00,1.08,0.22,9.27,0.00,0.00,0.00,0.00
2026-06-26 19:36:28.148,994.26,994.26,-0.63,-1.05,0.00,1.08,0.22,9.27,0.00,-0.00,-0.00,0.00
2026-06-26 19:36:28.150,994.26,994.26,-0.63,-1.05,0.00,1.04,0.25,9.27,0.00,-0.00,-0.00,0.00
2026-06-26 19:36:28.151,994.26,994.26,-0.63,-1.05,0.00,1.04,0.25,9.27,0.00,-0.00,-0.00,0.00
2026-06-26 19:36:28.152,994.26,994.26,-0.63,-1.05,0.00,1.04,0.25,9.27,0.00,-0.00,-0.00,0.00
2026-06-26 19:36:28.158,994.26,994.26,-0.63,-1.05,0.00,1.04,0.25,9.27,0.00,-0.00,-0.00,0.00
2026-06-26 19:36:28.159,994.26,994.26,-0.63,-1.05,0.00,1.05,0.23,9.26,0.00,0.00,-0.00,0.00
2026-06-26 19:36:28.160,994.26,994.26,-0.63,-1.05,0.00,1.05,0.23,9.26,0.00,0.00,-0.00,0.00
2026-06-26 19:36:28.161,994.26,994.26,-0.63,-1.05,0.00,1.05,0.23,9.26,0.00,0.00,-0.00,0.00
2026-06-26 19:36:28.162,994.26,994.26,-0.63,-1.05,0.00,1.05,0.23,9.26,0.00,0.00,-0.00,0.00
2026-06-26 19:36:28.168,994.26,994.26,-0.63,-1.05,0.00,1.05,0.23,9.26,0.00,0.00,-0.00,0.00
2026-06-26 19:36:28.169,994.26,994.26,-0.63,-1.05,0.00,1.06,0.23,9.27,-0.00,-0.00,0.00,0.00
2026-06-26 19:36:28.170,994.26,994.26,-0.63,-1.05,0.00,1.06,0.23,9.27,-0.00,-0.00,0.00,0.00
2026-06-26 19:36:28.172,994.26,994.26,-0.63,-1.05,0.00,1.06,0.23,9.27,-0.00,-0.00,0.00,0.00
2026-06-26 19:36:28.258,994.26,994.26,-0.59,-1.02,0.00,1.08,0.23,9.28,0.00,0.01,0.00,0.00
2026-06-26 19:36:28.259,994.26,994.26,-0.59,-1.02,0.00,1.06,0.22,9.28,0.00,0.00,-0.00,0.00
2026-06-26 19:36:28.261,994.26,994.26,-0.59,-1.02,0.00,1.06,0.22,9.28,0.00,0.00,-0.00,0.00
2026-06-26 19:36:28.262,994.26,994.26,-0.59,-1.02,0.00,1.06,0.22,9.28,0.00,0.00,-0.00,0.00
2026-06-26 19:36:28.265,994.26,994.26,-0.59,-1.02,0.00,1.06,0.22,9.28,0.00,0.00,-0.00,0.00
2026-06-26 19:36:28.269,994.26,994.26,-0.59,-1.02,0.00,1.06,0.22,9.28,0.00,0.00,-0.00,0.00
2026-06-26 19:36:28.270,994.26,994.26,-0.59,-1.02,0.00,1.08,0.23,9.28,0.00,0.00,-0.00,0.00
2026-06-26 19:36:28.271,994.26,994.26,-0.59,-1.02,0.00,1.08,0.23,9.28,0.00,0.00,-0.00,0.00
2026-06-26 19:36:28.272,994.26,994.26,-0.59,-1.02,0.00,1.08,0.23,9.28,0.00,0.00,-0.00,0.00
2026-06-26 19:36:28.273,994.26,994.26,-0.59,-1.02,0.00,1.08,0.23,9.28,0.00,0.00,-0.00,0.00
2026-06-26 19:36:28.275,994.26,994.26,-0.59,-1.02,0.00,1.08,0.23,9.28,0.00,0.00,-0.00,0.00
2026-06-26 19:36:28.276,994.26,994.26,-0.59,-1.02,0.00,1.08,0.23,9.28,0.00,0.00,-0.00,0.00
2026-06-26 19:36:28.278,994.26,994.26,-0.59,-1.02,0.00,1.08,0.23,9.28,0.00,0.00,0.00,0.00
2026-06-26 19:36:28.280,994.26,994.26,-0.59,-1.02,0.00,1.06,0.22,9.28,0.00,0.00,0.00,0.00
2026-06-26 19:36:28.281,994.26,994.26,-0.59,-1.02,0.00,1.06,0.22,9.28,0.00,0.00,0.00,0.00
2026-06-26 19:36:28.282,994.26,994.26,-0.59,-1.02,0.00,1.06,0.22,9.28,0.00,0.00,0.00,0.00
2026-06-26 19:36:28.285,994.26,994.26,-0.59,-1.02,0.00,1.06,0.22,9.28,0.00,0.00,0.00,0.00
2026-06-26 19:36:28.289,994.26,994.26,-0.59,-1.02,0.00,1.06,0.22,9.28,-0.00,0.00,-0.00,0.00
2026-06-26 19:36:28.295,994.26,994.26,-0.59,-1.02,0.00,1.08,0.24,9.28,-0.00,0.00,-0.00,0.00
2026-06-26 19:36:28.299,994.26,994.26,-0.59,-1.02,0.00,1.08,0.24,9.28,0.00,-0.00,0.00,0.00
2026-06-26 19:36:28.300,994.26,994.26,-0.59,-1.02,0.00,1.05,0.22,9.27,0.00,-0.00,0.00,0.00
2026-06-26 19:36:28.301,994.26,994.26,-0.59,-1.02,0.00,1.05,0.22,9.27,0.00,-0.00,0.00,0.00
2026-06-26 19:36:28.303,994.26,994.26,-0.59,-1.02,0.00,1.05,0.22,9.27,0.00,-0.00,0.00,0.00
2026-06-26 19:36:28.307,994.26,994.26,-0.59,-1.02,0.00,1.05,0.22,9.27,0.00,-0.00,0.00,0.00
2026-06-26 19:36:28.309,994.26,994.26,-0.59,-1.02,0.00,1.07,0.22,9.29,0.00,-0.00,-0.00,0.00
2026-06-26 19:36:28.310,994.26,994.26,-0.59,-1.02,0.00,1.07,0.22,9.29,0.00,-0.00,-0.00,0.00
2026-06-26 19:36:28.312,994.26,994.26,-0.59,-1.02,0.00,1.07,0.22,9.29,0.00,-0.00,-0.00,0.00
2026-06-26 19:36:28.318,994.26,994.26,-0.59,-1.02,0.00,1.07,0.22,9.29,0.00,-0.00,-0.00,0.00
2026-06-26 19:36:28.400,994.26,994.26,-0.84,-1.21,0.00,1.05,0.22,9.27,0.00,0.00,0.00,0.00
2026-06-26 19:36:28.402,994.26,994.26,-0.84,-1.21,0.00,1.05,0.22,9.27,0.00,0.00,0.00,0.00
2026-06-26 19:36:28.405,994.26,994.26,-0.84,-1.21,0.00,1.05,0.22,9.27,0.00,0.00,0.00,0.00
2026-06-26 19:36:28.409,994.26,994.26,-0.84,-1.21,0.00,1.05,0.22,9.27,0.00,-0.00,0.00,0.00
2026-06-26 19:36:28.413,994.26,994.26,-0.84,-1.21,0.00,1.06,0.22,9.26,0.00,-0.00,0.00,0.00
2026-06-26 19:36:28.419,994.26,994.26,-0.84,-1.21,0.00,1.06,0.22,9.26,0.00,-0.00,0.00,0.00
2026-06-26 19:36:28.422,994.26,994.26,-0.84,-1.21,0.00,1.04,0.22,9.30,0.00,-0.00,0.00,0.00
2026-06-26 19:36:28.424,994.26,994.26,-0.84,-1.21,0.00,1.04,0.22,9.30,0.00,-0.00,0.00,0.00
2026-06-26 19:36:28.428,994.26,994.26,-0.84,-1.21,0.00,1.04,0.22,9.30,0.00,-0.00,0.00,0.00
2026-06-26 19:36:28.430,994.26,994.26,-0.84,-1.21,0.00,1.05,0.24,9.27,0.00,-0.00,0.00,0.00
2026-06-26 19:36:28.432,994.26,994.26,-0.84,-1.21,0.00,1.05,0.24,9.27,0.00,-0.00,0.00,0.00
2026-06-26 19:36:28.438,994.26,994.26,-0.84,-1.21,0.00,1.05,0.24,9.27,0.00,-0.00,0.00,0.00
2026-06-26 19:36:28.440,994.26,994.26,-0.84,-1.21,0.00,1.08,0.24,9.28,0.00,-0.00,0.00,0.00
2026-06-26 19:36:28.442,994.26,994.26,-0.84,-1.21,0.00,1.08,0.24,9.28,0.00,-0.00,0.00,0.00
2026-06-26 19:36:28.446,994.26,994.26,-0.84,-1.21,0.00,1.08,0.24,9.28,0.00,-0.00,0.00,0.00
2026-06-26 19:36:28.449,994.26,994.26,-0.84,-1.21,0.00,1.08,0.24,9.28,0.00,-0.00,0.00,0.00
2026-06-26 19:36:28.451,994.26,994.26,-0.84,-1.21,0.00,1.09,0.22,9.27,0.00,-0.00,0.00,0.00
2026-06-26 19:36:28.453,994.26,994.26,-0.84,-1.21,0.00,1.09,0.22,9.27,0.00,-0.00,0.00,0.00
2026-06-26 19:36:28.459,994.26,994.26,-0.84,-1.21,0.00,1.09,0.22,9.27,0.00,-0.00,0.00,0.00
2026-06-26 19:36:28.500,994.26,994.25,-0.95,-1.29,0.00,1.09,0.22,9.27,0.00,-0.00,-0.00,0.00
2026-06-26 19:36:28.543,994.27,994.25,-1.05,-1.36,0.00,1.05,0.22,9.27,0.00,-0.00,0.00,0.00
2026-06-26 19:36:28.549,994.27,994.25,-1.05,-1.36,0.00,1.05,0.22,9.27,0.00,-0.00,0.00,0.00
2026-06-26 19:36:28.550,994.27,994.25,-1.05,-1.36,0.00,1.06,0.23,9.25,0.00,-0.00,0.00,0.00
2026-06-26 19:36:28.552,994.27,994.25,-1.05,-1.36,0.00,1.06,0.23,9.25,0.00,-0.00,0.00,0.00
2026-06-26 19:36:28.553,994.27,994.25,-1.05,-1.36,0.00,1.06,0.23,9.25,0.00,-0.00,0.00,0.00
2026-06-26 19:36:28.559,994.27,994.25,-1.05,-1.36,0.00,1.06,0.23,9.25,0.00,-0.00,0.00,0.00
2026-06-26 19:36:28.560,994.27,994.25,-1.05,-1.36,0.00,1.05,0.23,9.27,0.00,0.00,-0.00,0.00
2026-06-26 19:36:28.562,994.27,994.25,-1.05,-1.36,0.00,1.05,0.23,9.27,0.00,0.00,-0.00,0.00
2026-06-26 19:36:28.565,994.27,994.25,-1.05,-1.36,0.00,1.05,0.23,9.27,0.00,0.00,-0.00,0.00
2026-06-26 19:36:28.570,994.27,994.25,-1.05,-1.36,0.00,1.05,0.23,9.27,0.00,0.00,0.00,0.00
2026-06-26 19:36:28.571,994.27,994.25,-1.05,-1.36,0.00,1.06,0.22,9.28,0.00,0.00,0.00,0.00
2026-06-26 19:36:28.573,994.27,994.25,-1.05,-1.36,0.00,1.06,0.22,9.28,0.00,0.00,0.00,0.00
2026-06-26 19:36:28.576,994.27,994.25,-1.05,-1.36,0.00,1.06,0.22,9.28,0.00,0.00,0.00,0.00
2026-06-26 19:36:28.579,994.27,994.25,-1.05,-1.36,0.00,1.06,0.22,9.28,-0.00,0.00,-0.00,0.00
2026-06-26 19:36:28.581,994.27,994.25,-1.05,-1.36,0.00,1.05,0.21,9.27,-0.00,0.00,-0.00,0.00
2026-06-26 19:36:28.582,994.27,994.25,-1.05,-1.36,0.00,1.05,0.21,9.27,-0.00,0.00,-0.00,0.00
2026-06-26 19:36:28.586,994.27,994.25,-1.05,-1.36,0.00,1.05,0.21,9.27,-0.00,0.00,-0.00,0.00
2026-06-26 19:36:28.589,994.27,994.25,-1.05,-1.36,0.00,1.05,0.21,9.27,0.00,0.00,0.00,0.00
2026-06-26 19:36:28.591,994.27,994.25,-1.05,-1.36,0.00,1.07,0.24,9.28,0.00,0.00,0.00,0.00
2026-06-26 19:36:28.592,994.27,994.25,-1.05,-1.36,0.00,1.07,0.24,9.28,0.00,0.00,0.00,0.00
2026-06-26 19:36:28.596,994.27,994.25,-1.05,-1.36,0.00,1.07,0.24,9.28,0.00,0.00,0.00,0.00
2026-06-26 19:36:28.599,994.27,994.25,-1.05,-1.36,0.00,1.07,0.24,9.28,0.00,-0.00,0.00,0.00
2026-06-26 19:36:28.639,994.27,994.26,-0.95,-1.29,0.00,1.07,0.21,9.28,-0.00,-0.00,0.00,0.00
2026-06-26 19:36:28.641,994.27,994.26,-0.95,-1.29,0.00,1.06,0.23,9.30,-0.00,-0.00,0.00,0.00
2026-06-26 19:36:28.680,994.26,994.26,-0.68,-1.09,0.00,1.05,0.24,9.29,0.00,-0.00,0.00,0.00
2026-06-26 19:36:28.682,994.26,994.26,-0.68,-1.09,0.00,1.05,0.24,9.29,0.00,-0.00,0.00,0.00
2026-06-26 19:36:28.684,994.26,994.26,-0.68,-1.09,0.00,1.05,0.24,9.29,0.00,-0.00,0.00,0.00
2026-06-26 19:36:28.689,994.26,994.26,-0.68,-1.09,0.00,1.05,0.24,9.29,0.00,-0.00,0.00,0.00
2026-06-26 19:36:28.691,994.26,994.26,-0.68,-1.09,0.00,1.06,0.23,9.26,-0.00,-0.00,0.00,0.00
2026-06-26 19:36:28.692,994.26,994.26,-0.68,-1.09,0.00,1.06,0.23,9.26,-0.00,-0.00,0.00,0.00
2026-06-26 19:36:28.696,994.26,994.26,-0.68,-1.09,0.00,1.06,0.23,9.26,-0.00,-0.00,0.00,0.00
2026-06-26 19:36:28.700,994.26,994.26,-0.68,-1.09,0.00,1.06,0.23,9.26,0.00,0.00,-0.00,0.00
2026-06-26 19:36:28.701,994.26,994.26,-0.68,-1.09,0.00,1.07,0.24,9.26,0.00,0.00,-0.00,0.00
2026-06-26 19:36:28.703,994.26,994.26,-0.68,-1.09,0.00,1.07,0.24,9.26,0.00,0.00,-0.00,0.00
2026-06-26 19:36:28.705,994.26,994.26,-0.68,-1.09,0.00,1.07,0.24,9.26,0.00,0.00,-0.00,0.00
2026-06-26 19:36:28.709,994.26,994.26,-0.68,-1.09,0.00,1.07,0.24,9.26,0.00,-0.00,0.00,0.00
2026-06-26 19:36:28.711,994.26,994.26,-0.68,-1.09,0.00,1.05,0.23,9.27,0.00,-0.00,0.00,0.00
2026-06-26 19:36:28.712,994.26,994.26,-0.68,-1.09,0.00,1.05,0.23,9.27,0.00,-0.00,0.00,0.00
2026-06-26 19:36:28.718,994.26,994.26,-0.68,-1.09,0.00,1.05,0.23,9.27,0.00,-0.00,0.00,0.00
2026-06-26 19:36:28.720,994.26,994.26,-0.68,-1.09,0.00,1.04,0.22,9.27,0.00,-0.00,0.00,0.00
2026-06-26 19:36:28.722,994.26,994.26,-0.68,-1.09,0.00,1.04,0.22,9.27,0.00,-0.00,0.00,0.00
2026-06-26 19:36:28.723,994.26,994.26,-0.68,-1.09,0.00,1.04,0.22,9.27,0.00,-0.00,0.00,0.00
2026-06-26 19:36:28.725,994.26,994.26,-0.68,-1.09,0.00,1.04,0.22,9.27,0.00,-0.00,0.00,0.00
2026-06-26 19:36:28.726,994.26,994.26,-0.68,-1.09,0.00,1.04,0.22,9.27,0.00,-0.00,0.00,0.00
2026-06-26 19:36:28.730,994.26,994.26,-0.68,-1.09,0.00,1.04,0.22,9.27,0.00,-0.00,-0.00,0.00
2026-06-26 19:36:28.732,994.26,994.26,-0.68,-1.09,0.00,1.06,0.23,9.27,0.00,-0.00,-0.00,0.00
2026-06-26 19:36:28.738,994.26,994.26,-0.68,-1.09,0.00,1.06,0.23,9.27,0.00,-0.00,-0.00,0.00
2026-06-26 19:36:28.780,994.26,994.26,-0.58,-1.01,0.00,1.06,0.22,9.28,0.00,0.00,-0.00,0.00
2026-06-26 19:36:28.822,994.26,994.26,-0.51,-0.94,0.00,1.08,0.22,9.29,0.00,-0.00,0.00,0.00
2026-06-26 19:36:28.824,994.26,994.26,-0.51,-0.94,0.00,1.08,0.22,9.29,0.00,-0.00,0.00,0.00
2026-06-26 19:36:28.829,994.26,994.26,-0.51,-0.94,0.00,1.08,0.22,9.29,0.00,-0.00,0.00,0.00
2026-06-26 19:36:28.832,994.26,994.26,-0.51,-0.94,0.00,1.05,0.23,9.27,0.00,-0.00,-0.00,0.00
2026-06-26 19:36:28.840,994.26,994.26,-0.51,-0.94,0.00,1.05,0.23,9.27,-0.00,0.00,0.00,0.00
2026-06-26 19:36:28.842,994.26,994.26,-0.51,-0.94,0.00,1.07,0.22,9.30,-0.00,0.00,0.00,0.00
2026-06-26 19:36:28.844,994.26,994.26,-0.51,-0.94,0.00,1.07,0.22,9.30,-0.00,0.00,0.00,0.00
2026-06-26 19:36:28.849,994.26,994.26,-0.51,-0.94,0.00,1.07,0.22,9.30,-0.00,0.00,0.00,0.00
2026-06-26 19:36:28.851,994.26,994.26,-0.51,-0.94,0.00,1.07,0.24,9.27,0.00,0.00,0.00,0.00
2026-06-26 19:36:28.852,994.26,994.26,-0.51,-0.94,0.00,1.07,0.24,9.27,0.00,0.00,0.00,0.00
2026-06-26 19:36:28.854,994.26,994.26,-0.51,-0.94,0.00,1.07,0.24,9.27,0.00,0.00,0.00,0.00
2026-06-26 19:36:28.860,994.26,994.26,-0.51,-0.94,0.00,1.07,0.24,9.27,0.00,0.00,-0.00,0.00
2026-06-26 19:36:28.861,994.26,994.26,-0.51,-0.94,0.00,1.07,0.23,9.26,0.00,0.00,-0.00,0.00
2026-06-26 19:36:28.863,994.26,994.26,-0.51,-0.94,0.00,1.07,0.23,9.26,0.00,0.00,-0.00,0.00
2026-06-26 19:36:28.869,994.26,994.26,-0.51,-0.94,0.00,1.07,0.23,9.26,0.00,0.00,-0.00,0.00
2026-06-26 19:36:28.871,994.26,994.26,-0.51,-0.94,0.00,1.05,0.25,9.27,0.00,0.00,-0.00,0.00
2026-06-26 19:36:28.872,994.26,994.26,-0.51,-0.94,0.00,1.05,0.25,9.27,0.00,0.00,-0.00,0.00
2026-06-26 19:36:28.874,994.26,994.26,-0.51,-0.94,0.00,1.05,0.25,9.27,0.00,0.00,-0.00,0.00
2026-06-26 19:36:28.875,994.26,994.26,-0.51,-0.94,0.00,1.05,0.25,9.27,0.00,0.00,-0.00,0.00
2026-06-26 19:36:28.879,994.26,994.26,-0.51,-0.94,0.00,1.05,0.25,9.27,0.00,0.00,-0.00,0.00
2026-06-26 19:36:28.921,994.26,994.26,-0.62,-1.04,0.00,1.05,0.22,9.26,0.00,-0.00,-0.00,0.00
2026-06-26 19:36:28.924,994.26,994.26,-0.62,-1.04,0.00,1.06,0.23,9.26,0.00,-0.00,-0.00,0.00
2026-06-26 19:36:28.970,994.26,994.26,-0.45,-0.89,0.00,1.05,0.22,9.27,-0.00,0.00,0.00,0.00
2026-06-26 19:36:28.972,994.26,994.26,-0.45,-0.89,0.00,1.04,0.22,9.29,-0.00,0.00,0.00,0.00
2026-06-26 19:36:28.973,994.26,994.26,-0.45,-0.89,0.00,1.04,0.22,9.29,-0.00,0.00,0.00,0.00
2026-06-26 19:36:28.975,994.26,994.26,-0.45,-0.89,0.00,1.04,0.22,9.29,-0.00,0.00,0.00,0.00
2026-06-26 19:36:28.976,994.26,994.26,-0.45,-0.89,0.00,1.04,0.22,9.29,-0.00,0.00,0.00,0.00
2026-06-26 19:36:28.979,994.26,994.26,-0.45,-0.89,0.00,1.04,0.22,9.29,-0.00,0.00,0.00,0.00
2026-06-26 19:36:28.981,994.26,994.26,-0.45,-0.89,0.00,1.05,0.24,9.29,0.00,0.00,0.00,0.00
2026-06-26 19:36:28.982,994.26,994.26,-0.45,-0.89,0.00,1.05,0.24,9.29,0.00,0.00,0.00,0.00
2026-06-26 19:36:28.984,994.26,994.26,-0.45,-0.89,0.00,1.05,0.24,9.29,0.00,0.00,0.00,0.00
2026-06-26 19:36:28.990,994.26,994.26,-0.45,-0.89,0.00,1.05,0.24,9.29,0.00,0.00,0.00,0.00
2026-06-26 19:36:28.991,994.26,994.26,-0.45,-0.89,0.00,1.07,0.24,9.29,0.00,0.00,-0.00,0.00
2026-06-26 19:36:28.993,994.26,994.26,-0.45,-0.89,0.00,1.07,0.24,9.29,0.00,0.00,-0.00,0.00
2026-06-26 19:36:28.997,994.26,994.26,-0.45,-0.89,0.00,1.07,0.24,9.29,0.00,0.00,-0.00,0.00
2026-06-26 19:36:28.000,994.26,994.26,-0.45,-0.89,0.00,1.07,0.24,9.29,0.00,0.00,0.00,0.00
2026-06-26 19:36:28.002,994.26,994.26,-0.45,-0.89,0.00,1.06,0.23,9.27,0.00,0.00,0.00,0.00
2026-06-26 19:36:29.004,994.26,994.26,-0.45,-0.89,0.00,1.06,0.23,9.27,0.00,0.00,0.00,0.00
2026-06-26 19:36:29.010,994.26,994.26,-0.45,-0.89,0.00,1.06,0.23,9.27,0.00,0.00,0.00,0.00
2026-06-26 19:36:29.012,994.26,994.26,-0.45,-0.89,0.00,1.07,0.24,9.30,0.00,0.00,0.00,0.00
2026-06-26 19:36:29.017,994.26,994.26,-0.45,-0.89,0.00,1.07,0.24,9.30,0.00,0.00,0.00,0.00
2026-06-26 19:36:29.060,994.26,994.25,-0.70,-1.11,0.00,1.06,0.20,9.26,0.00,-0.00,0.00,0.00
2026-06-26 19:36:29.062,994.26,994.25,-0.70,-1.11,0.00,1.06,0.22,9.26,0.00,-0.00,0.00,0.00
2026-06-26 19:36:29.064,994.26,994.25,-0.70,-1.11,0.00,1.06,0.22,9.26,0.00,-0.00,0.00,0.00
2026-06-26 19:36:29.070,994.26,994.25,-0.70,-1.11,0.00,1.06,0.22,9.26,0.00,-0.00,0.00,0.00
2026-06-26 19:36:29.113,994.26,994.25,-0.63,-1.05,0.00,1.06,0.22,9.28,0.00,-0.00,0.00,0.00
2026-06-26 19:36:29.116,994.26,994.25,-0.63,-1.05,0.00,1.06,0.22,9.28,0.00,-0.00,0.00,0.00
2026-06-26 19:36:29.120,994.26,994.25,-0.63,-1.05,0.00,1.06,0.22,9.28,0.00,-0.00,0.00,0.00
2026-06-26 19:36:29.122,994.26,994.25,-0.63,-1.05,0.00,1.06,0.24,9.25,0.00,-0.00,0.00,0.00
2026-06-26 19:36:29.123,994.26,994.25,-0.63,-1.05,0.00,1.06,0.24,9.25,0.00,-0.00,0.00,0.00
2026-06-26 19:36:29.125,994.26,994.25,-0.63,-1.05,0.00,1.06,0.24,9.25,0.00,-0.00,0.00,0.00
2026-06-26 19:36:29.126,994.26,994.25,-0.63,-1.05,0.00,1.06,0.24,9.25,0.00,-0.00,0.00,0.00
2026-06-26 19:36:29.128,994.26,994.25,-0.63,-1.05,0.00,1.06,0.24,9.25,0.00,-0.00,0.00,0.00
2026-06-26 19:36:29.130,994.26,994.25,-0.63,-1.05,0.00,1.06,0.24,9.25,0.00,-0.00,0.00,0.00
2026-06-26 19:36:29.132,994.26,994.25,-0.63,-1.05,0.00,1.05,0.25,9.27,0.00,-0.00,0.00,0.00
2026-06-26 19:36:29.133,994.26,994.25,-0.63,-1.05,0.00,1.05,0.25,9.27,0.00,-0.00,0.00,0.00
2026-06-26 19:36:29.137,994.26,994.25,-0.63,-1.05,0.00,1.05,0.25,9.27,0.00,-0.00,0.00,0.00
2026-06-26 19:36:29.141,994.26,994.25,-0.63,-1.05,0.00,1.06,0.23,9.29,0.00,-0.00,-0.00,0.00
2026-06-26 19:36:29.143,994.26,994.25,-0.63,-1.05,0.00,1.06,0.23,9.29,0.00,-0.00,-0.00,0.00
2026-06-26 19:36:29.144,994.26,994.25,-0.63,-1.05,0.00,1.06,0.23,9.29,0.00,-0.00,-0.00,0.00
2026-06-26 19:36:29.150,994.26,994.25,-0.63,-1.05,0.00,1.06,0.23,9.29,0.00,-0.00,-0.00,0.00
2026-06-26 19:36:29.151,994.26,994.25,-0.63,-1.05,0.00,1.06,0.22,9.23,-0.00,0.00,-0.00,0.00
2026-06-26 19:36:29.153,994.26,994.25,-0.63,-1.05,0.00,1.06,0.22,9.23,-0.00,0.00,-0.00,0.00
2026-06-26 19:36:29.154,994.26,994.25,-0.63,-1.05,0.00,1.06,0.22,9.23,-0.00,0.00,-0.00,0.00
2026-06-26 19:36:29.160,994.26,994.25,-0.63,-1.05,0.00,1.06,0.22,9.23,-0.00,0.00,-0.00,0.00
2026-06-26 19:36:29.210,994.26,994.25,-0.92,-1.27,0.00,1.08,0.23,9.25,0.00,-0.00,0.00,0.00
2026-06-26 19:36:29.212,994.26,994.25,-0.92,-1.27,0.00,1.06,0.20,9.27,0.00,0.00,-0.00,0.00
2026-06-26 19:36:29.257,994.26,994.25,-1.15,-1.42,0.00,1.08,0.22,9.25,0.00,0.00,-0.00,0.00
2026-06-26 19:36:29.261,994.26,994.25,-1.15,-1.42,0.00,1.08,0.22,9.25,0.00,-0.00,0.00,0.00
2026-06-26 19:36:29.262,994.26,994.25,-1.15,-1.42,0.00,1.05,0.23,9.28,0.00,-0.00,0.00,0.00
2026-06-26 19:36:29.264,994.26,994.25,-1.15,-1.42,0.00,1.05,0.23,9.28,0.00,-0.00,0.00,0.00
2026-06-26 19:36:29.267,994.26,994.25,-1.15,-1.42,0.00,1.05,0.23,9.28,0.00,-0.00,0.00,0.00
2026-06-26 19:36:29.271,994.26,994.25,-1.15,-1.42,0.00,1.05,0.23,9.28,0.00,-0.00,0.00,0.00
2026-06-26 19:36:29.272,994.26,994.25,-1.15,-1.42,0.00,1.07,0.22,9.28,0.00,-0.00,0.00,0.00
2026-06-26 19:36:29.274,994.26,994.25,-1.15,-1.42,0.00,1.07,0.22,9.28,0.00,-0.00,0.00,0.00
2026-06-26 19:36:29.275,994.26,994.25,-1.15,-1.42,0.00,1.07,0.22,9.28,0.00,-0.00,0.00,0.00
2026-06-26 19:36:29.277,994.26,994.25,-1.15,-1.42,0.00,1.07,0.22,9.28,0.00,-0.00,0.00,0.00
2026-06-26 19:36:29.281,994.26,994.25,-1.15,-1.42,0.00,1.07,0.22,9.28,0.00,-0.00,0.00,0.00
2026-06-26 19:36:29.285,994.26,994.25,-1.15,-1.42,0.00,1.05,0.23,9.29,-0.00,-0.00,0.00,0.00
2026-06-26 19:36:29.290,994.26,994.25,-1.15,-1.42,0.00,1.05,0.23,9.29,-0.00,-0.00,0.00,0.00
2026-06-26 19:36:29.293,994.26,994.25,-1.15,-1.42,0.00,1.04,0.23,9.27,0.00,0.00,-0.00,0.00
2026-06-26 19:36:29.299,994.26,994.25,-1.15,-1.42,0.00,1.04,0.23,9.27,0.00,0.00,-0.00,0.00
2026-06-26 19:36:29.301,994.26,994.25,-1.15,-1.42,0.00,1.05,0.24,9.27,0.00,-0.00,0.00,0.00
2026-06-26 19:36:29.303,994.26,994.25,-1.15,-1.42,0.00,1.05,0.24,9.27,0.00,-0.00,0.00,0.00
2026-06-26 19:36:29.344,994.26,994.25,-0.80,-1.19,0.00,1.05,0.23,9.26,-0.00,0.00,0.00,0.00
2026-06-26 19:36:29.351,994.26,994.25,-0.80,-1.19,0.00,1.05,0.23,9.26,-0.00,0.00,0.00,0.00
2026-06-26 19:36:29.353,994.26,994.25,-0.80,-1.19,0.00,1.08,0.24,9.26,0.00,0.00,-0.00,0.00
2026-06-26 19:36:29.401,994.26,994.25,-0.74,-1.14,0.00,1.06,0.24,9.26,0.00,0.00,0.00,0.00
2026-06-26 19:36:29.404,994.26,994.25,-0.74,-1.14,0.00,1.08,0.24,9.25,0.00,-0.00,0.00,0.00
2026-06-26 19:36:29.411,994.26,994.25,-0.74,-1.14,0.00,1.08,0.24,9.25,0.00,-0.00,0.00,0.00
2026-06-26 19:36:29.414,994.26,994.25,-0.74,-1.14,0.00,1.02,0.22,9.27,0.00,0.00,0.00,0.00
2026-06-26 19:36:29.421,994.26,994.25,-0.74,-1.14,0.00,1.02,0.22,9.27,0.00,0.00,0.00,0.00
2026-06-26 19:36:29.422,994.26,994.25,-0.74,-1.14,0.00,1.05,0.23,9.28,0.00,0.00,-0.00,0.00
2026-06-26 19:36:29.424,994.26,994.25,-0.74,-1.14,0.00,1.05,0.23,9.28,0.00,0.00,-0.00,0.00
2026-06-26 19:36:29.425,994.26,994.25,-0.74,-1.14,0.00,1.05,0.23,9.28,0.00,0.00,-0.00,0.00
2026-06-26 19:36:29.427,994.26,994.25,-0.74,-1.14,0.00,1.05,0.23,9.28,0.00,0.00,-0.00,0.00
2026-06-26 19:36:29.430,994.26,994.25,-0.74,-1.14,0.00,1.05,0.23,9.28,0.00,0.00,-0.00,0.00
2026-06-26 19:36:29.432,994.26,994.25,-0.74,-1.14,0.00,1.09,0.24,9.27,0.00,-0.00,0.00,0.00
2026-06-26 19:36:29.437,994.26,994.25,-0.74,-1.14,0.00,1.09,0.24,9.27,0.00,-0.00,0.00,0.00
2026-06-26 19:36:29.441,994.26,994.25,-0.74,-1.14,0.00,1.09,0.24,9.27,0.00,-0.00,0.00,0.00
2026-06-26 19:36:29.443,994.26,994.25,-0.74,-1.14,0.00,1.05,0.22,9.28,0.00,-0.00,0.00,0.00
2026-06-26 19:36:29.481,994.26,994.25,-1.02,-1.34,0.00,1.06,0.22,9.28,0.00,-0.00,0.00,0.00
2026-06-26 19:36:29.483,994.26,994.25,-1.02,-1.34,0.00,1.06,0.22,9.28,0.00,-0.00,0.00,0.00
2026-06-26 19:36:29.485,994.26,994.25,-1.02,-1.34,0.00,1.06,0.22,9.28,0.00,-0.00,0.00,0.00
2026-06-26 19:36:29.491,994.26,994.25,-1.02,-1.34,0.00,1.06,0.22,9.28,0.00,0.00,-0.00,0.00
2026-06-26 19:36:29.493,994.26,994.25,-1.02,-1.34,0.00,1.08,0.22,9.26,0.00,0.00,-0.00,0.00
2026-06-26 19:36:29.494,994.26,994.25,-1.02,-1.34,0.00,1.08,0.22,9.26,0.00,0.00,-0.00,0.00
2026-06-26 19:36:29.542,994.26,994.25,-0.85,-1.22,0.00,1.06,0.21,9.27,-0.00,-0.00,0.00,0.00
2026-06-26 19:36:29.544,994.26,994.25,-0.85,-1.22,0.00,1.09,0.23,9.25,-0.00,-0.00,0.00,0.00
2026-06-26 19:36:29.549,994.26,994.25,-0.85,-1.22,0.00,1.09,0.23,9.25,-0.00,-0.00,0.00,0.00
2026-06-26 19:36:29.551,994.26,994.25,-0.85,-1.22,0.00,1.09,0.23,9.25,0.00,0.00,0.00,0.00
2026-06-26 19:36:29.553,994.26,994.25,-0.85,-1.22,0.00,1.08,0.21,9.27,0.00,0.00,0.00,0.00
2026-06-26 19:36:29.555,994.26,994.25,-0.85,-1.22,0.00,1.08,0.21,9.27,0.00,0.00,0.00,0.00
2026-06-26 19:36:29.560,994.26,994.25,-0.85,-1.22,0.00,1.08,0.21,9.27,0.00,0.00,0.00,0.00
2026-06-26 19:36:29.562,994.26,994.25,-0.85,-1.22,0.00,1.07,0.23,9.30,0.00,-0.00,-0.00,0.00
2026-06-26 19:36:29.569,994.26,994.25,-0.85,-1.22,0.00,1.07,0.23,9.30,0.00,-0.00,-0.00,0.00
2026-06-26 19:36:29.572,994.26,994.25,-0.85,-1.22,0.00,1.06,0.25,9.27,0.00,-0.00,0.00,0.00
2026-06-26 19:36:29.573,994.26,994.25,-0.85,-1.22,0.00,1.06,0.25,9.27,0.00,-0.00,0.00,0.00
2026-06-26 19:36:29.575,994.26,994.25,-0.85,-1.22,0.00,1.06,0.25,9.27,0.00,-0.00,0.00,0.00
2026-06-26 19:36:29.578,994.26,994.25,-0.85,-1.22,0.00,1.06,0.25,9.27,0.00,-0.00,0.00,0.00
2026-06-26 19:36:29.581,994.26,994.25,-0.85,-1.22,0.00,1.06,0.25,9.27,-0.00,0.00,0.00,0.00
2026-06-26 19:36:29.622,994.26,994.25,-1.00,-1.32,0.00,1.08,0.22,9.27,-0.00,0.00,0.00,0.00
2026-06-26 19:36:29.625,994.26,994.25,-1.00,-1.32,0.00,1.07,0.21,9.25,-0.00,0.00,0.00,0.00
2026-06-26 19:36:29.627,994.26,994.25,-1.00,-1.32,0.00,1.07,0.21,9.25,-0.00,0.00,0.00,0.00
2026-06-26 19:36:29.629,994.26,994.25,-1.00,-1.32,0.00,1.07,0.21,9.25,-0.00,0.00,0.00,0.00
2026-06-26 19:36:29.632,994.26,994.25,-1.00,-1.32,0.00,1.07,0.21,9.25,0.00,-0.00,-0.00,0.00
2026-06-26 19:36:29.633,994.26,994.25,-1.00,-1.32,0.00,1.05,0.19,9.29,0.00,-0.00,-0.00,0.00
2026-06-26 19:36:29.635,994.26,994.25,-1.00,-1.32,0.00,1.05,0.19,9.29,0.00,-0.00,-0.00,0.00
2026-06-26 19:36:29.640,994.26,994.25,-1.00,-1.32,0.00,1.05,0.19,9.29,0.00,-0.00,-0.00,0.00
2026-06-26 19:36:29.682,994.26,994.25,-1.00,-1.32,0.00,1.05,0.23,9.27,0.00,-0.00,0.00,0.00
2026-06-26 19:36:29.683,994.26,994.25,-1.00,-1.32,0.00,1.04,0.22,9.28,0.00,-0.00,0.00,0.00
2026-06-26 19:36:29.685,994.26,994.25,-1.00,-1.32,0.00,1.04,0.22,9.28,0.00,-0.00,0.00,0.00
2026-06-26 19:36:29.691,994.26,994.25,-1.00,-1.32,0.00,1.04,0.22,9.28,0.00,-0.00,0.00,0.00
2026-06-26 19:36:29.692,994.26,994.25,-1.00,-1.32,0.00,1.07,0.20,9.28,0.00,-0.00,-0.00,0.00
2026-06-26 19:36:29.694,994.26,994.25,-1.00,-1.32,0.00,1.07,0.20,9.28,0.00,-0.00,-0.00,0.00
2026-06-26 19:36:29.695,994.26,994.25,-1.00,-1.32,0.00,1.07,0.20,9.28,0.00,-0.00,-0.00,0.00
2026-06-26 19:36:29.701,994.26,994.25,-1.00,-1.32,0.00,1.07,0.20,9.28,0.00,-0.00,-0.00,0.00
2026-06-26 19:36:29.703,994.26,994.25,-1.00,-1.32,0.00,1.06,0.24,9.26,0.00,-0.00,0.00,0.00
2026-06-26 19:36:29.704,994.26,994.25,-1.00,-1.32,0.00,1.06,0.24,9.26,0.00,-0.00,0.00,0.00
2026-06-26 19:36:29.706,994.26,994.25,-1.00,-1.32,0.00,1.06,0.24,9.26,0.00,-0.00,0.00,0.00
2026-06-26 19:36:29.711,994.26,994.25,-1.00,-1.32,0.00,1.06,0.24,9.26,0.00,-0.00,0.00,0.00
2026-06-26 19:36:29.713,994.26,994.25,-1.00,-1.32,0.00,1.07,0.23,9.24,-0.00,-0.00,0.00,0.00
2026-06-26 19:36:29.714,994.26,994.25,-1.00,-1.32,0.00,1.07,0.23,9.24,-0.00,-0.00,0.00,0.00
2026-06-26 19:36:29.717,994.26,994.25,-1.00,-1.32,0.00,1.07,0.23,9.24,-0.00,-0.00,0.00,0.00
2026-06-26 19:36:29.722,994.26,994.25,-1.00,-1.32,0.00,1.07,0.23,9.24,0.00,0.00,0.00,0.00
2026-06-26 19:36:29.765,994.26,994.25,-1.17,-1.43,0.00,1.07,0.23,9.28,0.00,0.00,0.00,0.00
2026-06-26 19:36:29.771,994.26,994.25,-1.17,-1.43,0.00,1.07,0.23,9.28,0.00,0.00,0.00,0.00
2026-06-26 19:36:29.773,994.26,994.25,-1.17,-1.43,0.00,1.07,0.23,9.27,-0.00,0.00,0.00,0.00
2026-06-26 19:36:29.774,994.26,994.25,-1.17,-1.43,0.00,1.07,0.23,9.27,-0.00,0.00,0.00,0.00
2026-06-26 19:36:29.776,994.26,994.25,-1.17,-1.43,0.00,1.07,0.23,9.27,-0.00,0.00,0.00,0.00
2026-06-26 19:36:29.778,994.26,994.25,-1.17,-1.43,0.00,1.07,0.23,9.27,-0.00,0.00,0.00,0.00
2026-06-26 19:36:29.780,994.26,994.25,-1.17,-1.43,0.00,1.07,0.23,9.27,-0.00,0.00,0.00,0.00
2026-06-26 19:36:29.822,994.26,994.25,-1.34,-1.53,0.00,1.06,0.24,9.27,0.00,-0.00,0.00,0.00
2026-06-26 19:36:29.824,994.26,994.25,-1.34,-1.53,0.00,1.07,0.24,9.29,0.00,-0.00,0.00,0.00
2026-06-26 19:36:29.826,994.26,994.25,-1.34,-1.53,0.00,1.07,0.24,9.29,0.00,-0.00,0.00,0.00
2026-06-26 19:36:29.828,994.26,994.25,-1.34,-1.53,0.00,1.07,0.24,9.29,0.00,-0.00,0.00,0.00
2026-06-26 19:36:29.832,994.26,994.25,-1.34,-1.53,0.00,1.07,0.24,9.29,0.00,-0.00,0.00,0.00
2026-06-26 19:36:29.833,994.26,994.25,-1.34,-1.53,0.00,1.05,0.22,9.29,0.00,-0.00,0.00,0.00
2026-06-26 19:36:29.835,994.26,994.25,-1.34,-1.53,0.00,1.05,0.22,9.29,0.00,-0.00,0.00,0.00
2026-06-26 19:36:29.841,994.26,994.25,-1.34,-1.53,0.00,1.05,0.22,9.29,0.00,-0.00,0.00,0.00
2026-06-26 19:36:29.843,994.26,994.25,-1.34,-1.53,0.00,1.04,0.24,9.28,0.00,-0.00,0.00,0.00
2026-06-26 19:36:29.845,994.26,994.25,-1.34,-1.53,0.00,1.04,0.24,9.28,0.00,-0.00,0.00,0.00
2026-06-26 19:36:29.849,994.26,994.25,-1.34,-1.53,0.00,1.04,0.24,9.28,0.00,-0.00,0.00,0.00
2026-06-26 19:36:29.852,994.26,994.25,-1.34,-1.53,0.00,1.04,0.24,9.28,0.00,0.00,-0.00,0.00
2026-06-26 19:36:29.854,994.26,994.25,-1.34,-1.53,0.00,1.07,0.22,9.25,0.00,0.00,-0.00,0.00
2026-06-26 19:36:29.855,994.26,994.25,-1.34,-1.53,0.00,1.07,0.22,9.25,0.00,0.00,-0.00,0.00
2026-06-26 19:36:29.859,994.26,994.25,-1.34,-1.53,0.00,1.07,0.22,9.25,0.00,0.00,-0.00,0.00
2026-06-26 19:36:29.862,994.26,994.25,-1.34,-1.53,0.00,1.07,0.22,9.25,-0.00,-0.00,0.00,0.00
2026-06-26 19:36:29.864,994.26,994.25,-1.34,-1.53,0.00,1.07,0.23,9.28,-0.00,-0.00,0.00,0.00
2026-06-26 19:36:29.911,994.26,994.25,-1.28,-1.50,0.00,1.07,0.22,9.24,-0.00,0.00,0.00,0.00
2026-06-26 19:36:29.913,994.26,994.25,-1.28,-1.50,0.00,1.05,0.25,9.26,-0.00,0.00,0.00,0.00
2026-06-26 19:36:29.915,994.26,994.25,-1.28,-1.50,0.00,1.05,0.25,9.26,-0.00,0.00,0.00,0.00
2026-06-26 19:36:29.920,994.26,994.25,-1.28,-1.50,0.00,1.05,0.25,9.26,-0.00,0.00,0.00,0.00
2026-06-26 19:36:29.963,994.26,994.25,-1.52,-1.63,0.00,1.07,0.20,9.31,0.00,0.00,-0.00,0.00
2026-06-26 19:36:29.965,994.26,994.25,-1.52,-1.63,0.00,1.07,0.20,9.31,0.00,0.00,-0.00,0.00
2026-06-26 19:36:29.968,994.26,994.25,-1.52,-1.63,0.00,1.07,0.20,9.31,0.00,0.00,-0.00,0.00
2026-06-26 19:36:29.974,994.26,994.25,-1.52,-1.63,0.00,1.07,0.20,9.31,0.00,0.00,-0.00,0.00
2026-06-26 19:36:29.977,994.26,994.25,-1.52,-1.63,0.00,1.06,0.27,9.29,0.00,0.00,-0.00,0.00
2026-06-26 19:36:29.979,994.26,994.25,-1.52,-1.63,0.00,1.06,0.27,9.29,0.00,0.00,-0.00,0.00
2026-06-26 19:36:29.982,994.26,994.25,-1.52,-1.63,0.00,1.06,0.27,9.29,0.00,-0.00,0.00,0.00
2026-06-26 19:36:29.984,994.26,994.25,-1.52,-1.63,0.00,1.07,0.22,9.28,0.00,-0.00,0.00,0.00
2026-06-26 19:36:29.985,994.26,994.25,-1.52,-1.63,0.00,1.07,0.22,9.28,0.00,-0.00,0.00,0.00
2026-06-26 19:36:29.991,994.26,994.25,-1.52,-1.63,0.00,1.07,0.22,9.28,0.00,-0.00,0.00,0.00
2026-06-26 19:36:29.993,994.26,994.25,-1.52,-1.63,0.00,1.06,0.23,9.27,0.00,0.00,0.00,0.00
2026-06-26 19:36:29.994,994.26,994.25,-1.52,-1.63,0.00,1.06,0.23,9.27,0.00,0.00,0.00,0.00
2026-06-26 19:36:29.996,994.26,994.25,-1.52,-1.63,0.00,1.06,0.23,9.27,0.00,0.00,0.00,0.00
2026-06-26 19:36:29.001,994.26,994.25,-1.52,-1.63,0.00,1.06,0.23,9.27,0.00,0.00,0.00,0.00
2026-06-26 19:36:30.003,994.26,994.25,-1.52,-1.63,0.00,1.07,0.22,9.28,0.00,0.00,0.00,0.00
2026-06-26 19:36:30.005,994.26,994.25,-1.52,-1.63,0.00,1.07,0.22,9.28,0.00,0.00,0.00,0.00
2026-06-26 19:36:30.006,994.26,994.25,-1.52,-1.63,0.00,1.07,0.22,9.28,0.00,0.00,0.00,0.00
2026-06-26 19:36:30.052,994.26,994.25,-1.48,-1.61,0.00,1.06,0.22,9.26,0.00,0.00,0.00,0.00
2026-06-26 19:36:30.054,994.26,994.25,-1.48,-1.61,0.00,1.09,0.21,9.25,0.00,0.00,0.00,0.00
2026-06-26 19:36:30.056,994.26,994.25,-1.48,-1.61,0.00,1.09,0.21,9.25,0.00,0.00,0.00,0.00
2026-06-26 19:36:30.062,994.26,994.25,-1.48,-1.61,0.00,1.09,0.21,9.25,0.00,0.00,0.00,0.00
2026-06-26 19:36:30.103,994.27,994.25,-1.69,-1.72,0.00,1.07,0.22,9.28,0.00,-0.00,0.00,0.00
2026-06-26 19:36:30.104,994.27,994.25,-1.69,-1.72,0.00,1.06,0.25,9.26,0.00,-0.00,0.00,0.00
2026-06-26 19:36:30.112,994.27,994.25,-1.69,-1.72,0.00,1.06,0.25,9.26,0.00,-0.00,0.00,0.00
2026-06-26 19:36:30.114,994.27,994.25,-1.69,-1.72,0.00,1.04,0.23,9.27,0.00,0.00,0.00,0.00
2026-06-26 19:36:30.116,994.27,994.25,-1.69,-1.72,0.00,1.04,0.23,9.27,0.00,0.00,0.00,0.00
2026-06-26 19:36:30.121,994.27,994.25,-1.69,-1.72,0.00,1.04,0.23,9.27,0.00,0.00,0.00,0.00
2026-06-26 19:36:30.123,994.27,994.25,-1.69,-1.72,0.00,1.07,0.24,9.31,0.00,0.00,0.00,0.00
2026-06-26 19:36:30.125,994.27,994.25,-1.69,-1.72,0.00,1.07,0.24,9.31,0.00,0.00,0.00,0.00
2026-06-26 19:36:30.126,994.27,994.25,-1.69,-1.72,0.00,1.07,0.24,9.31,0.00,0.00,0.00,0.00
2026-06-26 19:36:30.128,994.27,994.25,-1.69,-1.72,0.00,1.07,0.24,9.31,0.00,0.00,0.00,0.00
2026-06-26 19:36:30.130,994.27,994.25,-1.69,-1.72,0.00,1.07,0.24,9.31,0.00,0.00,0.00,0.00
2026-06-26 19:36:30.133,994.27,994.25,-1.69,-1.72,0.00,1.07,0.24,9.31,-0.00,-0.00,0.00,0.00
2026-06-26 19:36:30.134,994.27,994.25,-1.69,-1.72,0.00,1.05,0.24,9.28,-0.00,-0.00,0.00,0.00
2026-06-26 19:36:30.136,994.27,994.25,-1.69,-1.72,0.00,1.05,0.24,9.28,-0.00,-0.00,0.00,0.00
2026-06-26 19:36:30.142,994.27,994.25,-1.69,-1.72,0.00,1.05,0.24,9.28,-0.00,-0.00,0.00,0.00
2026-06-26 19:36:30.143,994.27,994.25,-1.69,-1.72,0.00,1.07,0.22,9.28,0.00,-0.00,-0.00,0.00
2026-06-26 19:36:30.145,994.27,994.25,-1.69,-1.72,0.00,1.07,0.22,9.28,0.00,-0.00,-0.00,0.00
2026-06-26 19:36:30.150,994.27,994.25,-1.69,-1.72,0.00,1.07,0.22,9.28,0.00,-0.00,-0.00,0.00
2026-06-26 19:36:30.194,994.27,994.25,-1.51,-1.63,0.00,1.05,0.24,9.26,-0.00,0.00,0.00,0.00
2026-06-26 19:36:30.196,994.27,994.25,-1.51,-1.63,0.00,1.05,0.24,9.26,-0.00,0.00,0.00,0.00
2026-06-26 19:36:30.202,994.27,994.25,-1.51,-1.63,0.00,1.05,0.24,9.26,-0.00,0.00,0.00,0.00
2026-06-26 19:36:30.243,994.27,994.25,-1.58,-1.66,0.00,1.07,0.24,9.30,0.00,0.00,0.00,0.00
2026-06-26 19:36:30.244,994.27,994.25,-1.58,-1.66,0.00,1.07,0.21,9.26,0.00,0.00,0.00,0.00
2026-06-26 19:36:30.246,994.27,994.25,-1.58,-1.66,0.00,1.07,0.21,9.26,0.00,0.00,0.00,0.00
2026-06-26 19:36:30.250,994.27,994.25,-1.58,-1.66,0.00,1.07,0.21,9.26,0.00,0.00,0.00,0.00
2026-06-26 19:36:30.253,994.27,994.25,-1.58,-1.66,0.00,1.07,0.21,9.26,0.00,0.00,-0.00,0.00
2026-06-26 19:36:30.254,994.27,994.25,-1.58,-1.66,0.00,1.05,0.23,9.24,0.00,0.00,-0.00,0.00
2026-06-26 19:36:30.256,994.27,994.25,-1.58,-1.66,0.00,1.05,0.23,9.24,0.00,0.00,-0.00,0.00
2026-06-26 19:36:30.260,994.27,994.25,-1.58,-1.66,0.00,1.05,0.23,9.24,0.00,0.00,-0.00,0.00
2026-06-26 19:36:30.263,994.27,994.25,-1.58,-1.66,0.00,1.06,0.24,9.29,-0.00,0.00,0.00,0.00
2026-06-26 19:36:30.265,994.27,994.25,-1.58,-1.66,0.00,1.06,0.24,9.29,-0.00,0.00,0.00,0.00
2026-06-26 19:36:30.267,994.27,994.25,-1.58,-1.66,0.00,1.06,0.24,9.29,-0.00,0.00,0.00,0.00
2026-06-26 19:36:30.273,994.27,994.25,-1.58,-1.66,0.00,1.06,0.24,9.29,-0.00,0.00,0.00,0.00
2026-06-26 19:36:30.274,994.27,994.25,-1.58,-1.66,0.00,1.07,0.23,9.27,0.00,0.00,0.00,0.00
2026-06-26 19:36:30.276,994.27,994.25,-1.58,-1.66,0.00,1.07,0.23,9.27,0.00,0.00,0.00,0.00
2026-06-26 19:36:30.277,994.27,994.25,-1.58,-1.66,0.00,1.07,0.23,9.27,0.00,0.00,0.00,0.00
2026-06-26 19:36:30.279,994.27,994.25,-1.58,-1.66,0.00,1.07,0.23,9.27,0.00,0.00,0.00,0.00
2026-06-26 19:36:30.282,994.27,994.25,-1.58,-1.66,0.00,1.07,0.23,9.27,0.00,0.00,0.00,0.00
2026-06-26 19:36:30.286,994.27,994.25,-1.58,-1.66,0.00,1.03,0.24,9.28,0.00,0.00,-0.00,0.00
2026-06-26 19:36:30.292,994.27,994.25,-1.58,-1.66,0.00,1.03,0.24,9.28,0.00,0.00,-0.00,0.00
2026-06-26 19:36:30.335,994.27,994.25,-1.51,-1.63,0.00,1.06,0.22,9.30,0.00,-0.00,0.00,0.00
2026-06-26 19:36:30.337,994.27,994.25,-1.51,-1.63,0.00,1.06,0.22,9.30,0.00,-0.00,0.00,0.00
2026-06-26 19:36:30.343,994.27,994.25,-1.51,-1.63,0.00,1.06,0.22,9.30,0.00,-0.00,0.00,0.00
2026-06-26 19:36:30.386,994.27,994.25,-1.44,-1.59,0.00,1.06,0.23,9.26,0.00,-0.00,0.00,0.00
2026-06-26 19:36:30.392,994.27,994.25,-1.44,-1.59,0.00,1.06,0.23,9.26,0.00,-0.00,0.00,0.00
2026-06-26 19:36:30.395,994.27,994.25,-1.44,-1.59,0.00,1.06,0.22,9.30,-0.00,0.00,0.00,0.00
2026-06-26 19:36:30.399,994.27,994.25,-1.44,-1.59,0.00,1.06,0.22,9.30,-0.00,0.00,0.00,0.00
2026-06-26 19:36:30.403,994.27,994.25,-1.44,-1.59,0.00,1.06,0.22,9.30,0.00,0.00,-0.00,0.00
2026-06-26 19:36:30.405,994.27,994.25,-1.44,-1.59,0.00,1.06,0.23,9.25,0.00,0.00,-0.00,0.00
2026-06-26 19:36:30.406,994.27,994.25,-1.44,-1.59,0.00,1.06,0.23,9.25,0.00,0.00,-0.00,0.00
2026-06-26 19:36:30.408,994.27,994.25,-1.44,-1.59,0.00,1.06,0.23,9.25,0.00,0.00,-0.00,0.00
2026-06-26 19:36:30.413,994.27,994.25,-1.44,-1.59,0.00,1.06,0.23,9.25,-0.00,-0.00,0.00,0.00
2026-06-26 19:36:30.415,994.27,994.25,-1.44,-1.59,0.00,1.04,0.21,9.28,-0.00,-0.00,0.00,0.00
2026-06-26 19:36:30.417,994.27,994.25,-1.44,-1.59,0.00,1.04,0.21,9.28,-0.00,-0.00,0.00,0.00
2026-06-26 19:36:30.423,994.27,994.25,-1.44,-1.59,0.00,1.04,0.21,9.28,-0.00,-0.00,0.00,0.00
2026-06-26 19:36:30.425,994.27,994.25,-1.44,-1.59,0.00,1.06,0.22,9.29,-0.00,0.00,-0.00,0.00
2026-06-26 19:36:30.426,994.27,994.25,-1.44,-1.59,0.00,1.06,0.22,9.29,-0.00,0.00,-0.00,0.00
2026-06-26 19:36:30.428,994.27,994.25,-1.44,-1.59,0.00,1.06,0.22,9.29,-0.00,0.00,-0.00,0.00
2026-06-26 19:36:30.429,994.27,994.25,-1.44,-1.59,0.00,1.06,0.22,9.29,-0.00,0.00,-0.00,0.00
2026-06-26 19:36:30.433,994.27,994.25,-1.44,-1.59,0.00,1.06,0.22,9.29,-0.00,0.00,-0.00,0.00
2026-06-26 19:36:30.434,994.27,994.25,-1.44,-1.59,0.00,1.06,0.22,9.28,0.00,0.00,0.00,0.00
2026-06-26 19:36:30.480,994.27,994.25,-1.86,-1.80,0.00,1.07,0.25,9.28,0.00,0.00,0.00,0.00
2026-06-26 19:36:30.483,994.27,994.25,-1.86,-1.80,0.00,1.07,0.25,9.28,0.00,-0.00,-0.00,0.00
2026-06-26 19:36:30.485,994.27,994.25,-1.86,-1.80,0.00,1.06,0.23,9.27,0.00,-0.00,-0.00,0.00
2026-06-26 19:36:30.524,994.26,994.25,-1.61,-1.68,0.00,1.06,0.23,9.29,0.00,-0.00,0.00,0.00
2026-06-26 19:36:30.526,994.26,994.25,-1.61,-1.68,0.00,1.06,0.23,9.29,0.00,-0.00,0.00,0.00
2026-06-26 19:36:30.527,994.26,994.25,-1.61,-1.68,0.00,1.06,0.23,9.29,0.00,-0.00,0.00,0.00
2026-06-26 19:36:30.529,994.26,994.25,-1.61,-1.68,0.00,1.06,0.23,9.29,0.00,-0.00,0.00,0.00
2026-06-26 19:36:30.531,994.26,994.25,-1.61,-1.68,0.00,1.06,0.23,9.29,0.00,-0.00,0.00,0.00
2026-06-26 19:36:30.534,994.26,994.25,-1.61,-1.68,0.00,1.06,0.23,9.29,-0.00,0.00,-0.00,0.00
2026-06-26 19:36:30.535,994.26,994.25,-1.61,-1.68,0.00,1.04,0.22,9.27,-0.00,0.00,-0.00,0.00
2026-06-26 19:36:30.537,994.26,994.25,-1.61,-1.68,0.00,1.04,0.22,9.27,-0.00,0.00,-0.00,0.00
2026-06-26 19:36:30.542,994.26,994.25,-1.61,-1.68,0.00,1.04,0.22,9.27,-0.00,0.00,-0.00,0.00
2026-06-26 19:36:30.544,994.26,994.25,-1.61,-1.68,0.00,1.06,0.22,9.28,0.00,0.00,0.00,0.00
2026-06-26 19:36:30.545,994.26,994.25,-1.61,-1.68,0.00,1.06,0.22,9.28,0.00,0.00,0.00,0.00
2026-06-26 19:36:30.547,994.26,994.25,-1.61,-1.68,0.00,1.06,0.22,9.28,0.00,0.00,0.00,0.00
2026-06-26 19:36:30.553,994.26,994.25,-1.61,-1.68,0.00,1.06,0.22,9.28,0.00,0.00,0.00,0.00
2026-06-26 19:36:30.554,994.26,994.25,-1.61,-1.68,0.00,1.06,0.23,9.26,-0.00,0.00,-0.00,0.00
2026-06-26 19:36:30.556,994.26,994.25,-1.61,-1.68,0.00,1.06,0.23,9.26,-0.00,0.00,-0.00,0.00
2026-06-26 19:36:30.559,994.26,994.25,-1.61,-1.68,0.00,1.06,0.23,9.26,-0.00,0.00,-0.00,0.00
2026-06-26 19:36:30.564,994.26,994.25,-1.61,-1.68,0.00,1.06,0.23,9.26,-0.00,0.00,-0.00,0.00
2026-06-26 19:36:30.566,994.26,994.25,-1.61,-1.68,0.00,1.07,0.22,9.27,-0.00,0.00,-0.00,0.00
2026-06-26 19:36:30.571,994.26,994.25,-1.61,-1.68,0.00,1.07,0.22,9.27,-0.00,0.00,-0.00,0.00
2026-06-26 19:36:30.574,994.26,994.25,-1.61,-1.68,0.00,1.07,0.22,9.27,-0.00,0.00,0.00,0.00
2026-06-26 19:36:30.578,994.26,994.25,-1.61,-1.68,0.00,1.06,0.23,9.28,-0.00,0.00,0.00,0.00
2026-06-26 19:36:30.617,994.26,994.25,-1.26,-1.49,0.00,1.06,0.22,9.27,-0.00,0.00,0.00,0.00
2026-06-26 19:36:30.623,994.26,994.25,-1.26,-1.49,0.00,1.06,0.22,9.27,-0.00,0.00,0.00,0.00
2026-06-26 19:36:30.672,994.27,994.25,-1.50,-1.62,0.00,1.07,0.24,9.30,0.00,-0.00,0.00,0.00
2026-06-26 19:36:30.674,994.27,994.25,-1.50,-1.62,0.00,1.06,0.25,9.28,0.00,-0.00,0.00,0.00
2026-06-26 19:36:30.676,994.27,994.25,-1.50,-1.62,0.00,1.06,0.25,9.28,0.00,-0.00,0.00,0.00
2026-06-26 19:36:30.678,994.27,994.25,-1.50,-1.62,0.00,1.06,0.25,9.28,0.00,-0.00,0.00,0.00
2026-06-26 19:36:30.679,994.27,994.25,-1.50,-1.62,0.00,1.06,0.25,9.28,0.00,-0.00,0.00,0.00
2026-06-26 19:36:30.681,994.27,994.25,-1.50,-1.62,0.00,1.06,0.25,9.28,0.00,-0.00,0.00,0.00
2026-06-26 19:36:30.684,994.27,994.25,-1.50,-1.62,0.00,1.06,0.25,9.28,0.00,-0.00,0.00,0.00
2026-06-26 19:36:30.685,994.27,994.25,-1.50,-1.62,0.00,1.07,0.22,9.29,0.00,-0.00,0.00,0.00
2026-06-26 19:36:30.687,994.27,994.25,-1.50,-1.62,0.00,1.07,0.22,9.29,0.00,-0.00,0.00,0.00
2026-06-26 19:36:30.693,994.27,994.25,-1.50,-1.62,0.00,1.07,0.22,9.29,0.00,-0.00,0.00,0.00
2026-06-26 19:36:30.695,994.27,994.25,-1.50,-1.62,0.00,1.09,0.22,9.27,0.00,0.00,0.00,0.00
2026-06-26 19:36:30.697,994.27,994.25,-1.50,-1.62,0.00,1.09,0.22,9.27,0.00,0.00,0.00,0.00
2026-06-26 19:36:30.700,994.27,994.25,-1.50,-1.62,0.00,1.09,0.22,9.27,0.00,0.00,0.00,0.00
2026-06-26 19:36:30.706,994.27,994.25,-1.50,-1.62,0.00,1.09,0.22,9.27,0.00,-0.00,0.00,0.00
2026-06-26 19:36:30.713,994.27,994.25,-1.50,-1.62,0.00,1.05,0.22,9.26,0.00,-0.00,0.00,0.00
2026-06-26 19:36:30.715,994.27,994.25,-1.50,-1.62,0.00,1.06,0.21,9.28,0.00,0.00,0.00,0.00
2026-06-26 19:36:30.755,994.27,994.26,-1.02,-1.34,0.00,1.07,0.23,9.27,0.00,-0.00,0.00,0.00
2026-06-26 19:36:30.757,994.27,994.26,-1.02,-1.34,0.00,1.07,0.23,9.27,0.00,-0.00,0.00,0.00
2026-06-26 19:36:30.761,994.27,994.26,-1.02,-1.34,0.00,1.07,0.23,9.27,0.00,-0.00,0.00,0.00
2026-06-26 19:36:30.764,994.27,994.26,-1.02,-1.34,0.00,1.07,0.23,9.27,0.00,0.00,0.00,0.00
2026-06-26 19:36:30.804,994.27,994.26,-1.46,-1.60,0.00,1.07,0.23,9.25,0.00,-0.00,0.00,0.00
2026-06-26 19:36:30.806,994.27,994.26,-1.46,-1.60,0.00,1.07,0.23,9.25,0.00,-0.00,0.00,0.00
2026-06-26 19:36:30.808,994.27,994.26,-1.46,-1.60,0.00,1.07,0.23,9.25,0.00,-0.00,0.00,0.00
2026-06-26 19:36:30.814,994.27,994.26,-1.46,-1.60,0.00,1.07,0.23,9.25,0.00,-0.00,0.00,0.00
2026-06-26 19:36:30.815,994.27,994.26,-1.46,-1.60,0.00,1.06,0.23,9.28,-0.00,0.00,0.00,0.00
2026-06-26 19:36:30.817,994.27,994.26,-1.46,-1.60,0.00,1.06,0.23,9.28,-0.00,0.00,0.00,0.00
2026-06-26 19:36:30.822,994.27,994.26,-1.46,-1.60,0.00,1.06,0.23,9.28,-0.00,0.00,0.00,0.00
2026-06-26 19:36:30.825,994.27,994.26,-1.46,-1.60,0.00,1.06,0.22,9.27,0.00,0.00,0.00,0.00
2026-06-26 19:36:30.828,994.27,994.26,-1.46,-1.60,0.00,1.06,0.22,9.27,0.00,0.00,0.00,0.00
2026-06-26 19:36:30.830,994.27,994.26,-1.46,-1.60,0.00,1.06,0.22,9.27,0.00,0.00,0.00,0.00
2026-06-26 19:36:30.834,994.27,994.26,-1.46,-1.60,0.00,1.06,0.22,9.27,0.00,-0.00,-0.00,0.00
2026-06-26 19:36:30.835,994.27,994.26,-1.46,-1.60,0.00,1.05,0.22,9.27,0.00,-0.00,-0.00,0.00
2026-06-26 19:36:30.837,994.27,994.26,-1.46,-1.60,0.00,1.05,0.22,9.27,0.00,-0.00,-0.00,0.00
2026-06-26 19:36:30.840,994.27,994.26,-1.46,-1.60,0.00,1.05,0.22,9.27,0.00,-0.00,-0.00,0.00
2026-06-26 19:36:30.844,994.27,994.26,-1.46,-1.60,0.00,1.05,0.22,9.27,0.00,-0.00,0.00,0.00
2026-06-26 19:36:30.847,994.27,994.26,-1.46,-1.60,0.00,1.06,0.22,9.27,0.00,-0.00,0.00,0.00
2026-06-26 19:36:30.853,994.27,994.26,-1.46,-1.60,0.00,1.06,0.22,9.27,0.00,-0.00,0.00,0.00
2026-06-26 19:36:30.855,994.27,994.26,-1.46,-1.60,0.00,1.05,0.23,9.25,-0.00,-0.01,0.00,0.00
2026-06-26 19:36:30.897,994.27,994.26,-1.43,-1.58,0.00,1.04,0.22,9.29,0.00,0.00,-0.00,0.00
2026-06-26 19:36:30.903,994.27,994.26,-1.43,-1.58,0.00,1.04,0.22,9.29,0.00,0.00,-0.00,0.00
2026-06-26 19:36:30.948,994.27,994.26,-1.25,-1.48,0.00,1.06,0.22,9.28,0.00,0.00,0.00,0.00
2026-06-26 19:36:30.954,994.27,994.26,-1.25,-1.48,0.00,1.06,0.22,9.28,0.00,0.00,0.00,0.00
2026-06-26 19:36:30.958,994.27,994.26,-1.25,-1.48,0.00,1.05,0.22,9.24,0.00,0.00,0.00,0.00
2026-06-26 19:36:30.964,994.27,994.26,-1.25,-1.48,0.00,1.05,0.22,9.24,0.00,0.00,0.00,0.00
2026-06-26 19:36:30.966,994.27,994.26,-1.25,-1.48,0.00,1.05,0.22,9.25,0.00,0.00,0.00,0.00
2026-06-26 19:36:30.967,994.27,994.26,-1.25,-1.48,0.00,1.05,0.22,9.25,0.00,0.00,0.00,0.00
2026-06-26 19:36:30.971,994.27,994.26,-1.25,-1.48,0.00,1.05,0.22,9.25,0.00,0.00,0.00,0.00
2026-06-26 19:36:30.975,994.27,994.26,-1.25,-1.48,0.00,1.05,0.22,9.25,0.00,0.00,-0.00,0.00
2026-06-26 19:36:30.976,994.27,994.26,-1.25,-1.48,0.00,1.06,0.23,9.27,0.00,0.00,-0.00,0.00
2026-06-26 19:36:30.978,994.27,994.26,-1.25,-1.48,0.00,1.06,0.23,9.27,0.00,0.00,-0.00,0.00
2026-06-26 19:36:30.979,994.27,994.26,-1.25,-1.48,0.00,1.06,0.23,9.27,0.00,0.00,-0.00,0.00
2026-06-26 19:36:30.981,994.27,994.26,-1.25,-1.48,0.00,1.06,0.23,9.27,0.00,0.00,-0.00,0.00
2026-06-26 19:36:30.984,994.27,994.26,-1.25,-1.48,0.00,1.06,0.23,9.27,-0.00,0.00,0.00,0.00
2026-06-26 19:36:30.986,994.27,994.26,-1.25,-1.48,0.00,1.05,0.23,9.27,-0.00,0.00,0.00,0.00
2026-06-26 19:36:30.988,994.27,994.26,-1.25,-1.48,0.00,1.05,0.23,9.27,-0.00,0.00,0.00,0.00
2026-06-26 19:36:30.993,994.27,994.26,-1.25,-1.48,0.00,1.05,0.23,9.27,-0.00,0.00,0.00,0.00
2026-06-26 19:36:30.997,994.27,994.26,-1.25,-1.48,0.00,1.07,0.22,9.27,0.00,-0.00,0.00,0.00
2026-06-26 19:36:31.035,994.27,994.25,-1.36,-1.55,0.00,1.07,0.22,9.26,-0.00,0.00,0.00,0.00
2026-06-26 19:36:31.037,994.27,994.25,-1.36,-1.55,0.00,1.07,0.22,9.26,-0.00,0.00,0.00,0.00
2026-06-26 19:36:31.040,994.27,994.25,-1.36,-1.55,0.00,1.07,0.22,9.26,-0.00,0.00,0.00,0.00
2026-06-26 19:36:31.046,994.27,994.25,-1.36,-1.55,0.00,1.07,0.22,9.26,0.00,0.00,0.00,0.00
2026-06-26 19:36:31.094,994.27,994.25,-1.43,-1.58,0.00,1.05,0.24,9.30,0.00,0.00,0.00,0.00
2026-06-26 19:36:31.095,994.27,994.25,-1.43,-1.58,0.00,1.06,0.22,9.25,-0.00,0.00,0.00,0.00
2026-06-26 19:36:31.097,994.27,994.25,-1.43,-1.58,0.00,1.06,0.22,9.25,-0.00,0.00,0.00,0.00
2026-06-26 19:36:31.099,994.27,994.25,-1.43,-1.58,0.00,1.06,0.22,9.25,-0.00,0.00,0.00,0.00
2026-06-26 19:36:31.104,994.27,994.25,-1.43,-1.58,0.00,1.06,0.22,9.25,-0.00,0.00,0.00,0.00
2026-06-26 19:36:31.106,994.27,994.25,-1.43,-1.58,0.00,1.06,0.21,9.27,0.00,0.00,-0.00,0.00
2026-06-26 19:36:31.107,994.27,994.25,-1.43,-1.58,0.00,1.06,0.21,9.27,0.00,0.00,-0.00,0.00
2026-06-26 19:36:31.109,994.27,994.25,-1.43,-1.58,0.00,1.06,0.21,9.27,0.00,0.00,-0.00,0.00
2026-06-26 19:36:31.114,994.27,994.25,-1.43,-1.58,0.00,1.06,0.21,9.27,0.00,0.00,-0.00,0.00
2026-06-26 19:36:31.116,994.27,994.25,-1.43,-1.58,0.00,1.07,0.23,9.27,0.00,0.00,-0.00,0.00
2026-06-26 19:36:31.118,994.27,994.25,-1.43,-1.58,0.00,1.07,0.23,9.27,0.00,0.00,-0.00,0.00
2026-06-26 19:36:31.123,994.27,994.25,-1.43,-1.58,0.00,1.07,0.23,9.27,0.00,0.00,-0.00,0.00
2026-06-26 19:36:31.125,994.27,994.25,-1.43,-1.58,0.00,1.06,0.22,9.30,0.00,-0.00,0.00,0.00
2026-06-26 19:36:31.127,994.27,994.25,-1.43,-1.58,0.00,1.06,0.22,9.30,0.00,-0.00,0.00,0.00
2026-06-26 19:36:31.130,994.27,994.25,-1.43,-1.58,0.00,1.06,0.22,9.30,0.00,-0.00,0.00,0.00
2026-06-26 19:36:31.133,994.27,994.25,-1.43,-1.58,0.00,1.06,0.22,9.30,0.00,-0.00,0.00,0.00
2026-06-26 19:36:31.135,994.27,994.25,-1.43,-1.58,0.00,1.06,0.24,9.29,0.00,0.00,0.00,0.00
2026-06-26 19:36:31.175,994.27,994.25,-1.43,-1.58,0.00,1.07,0.24,9.26,0.00,0.00,0.00,0.00
2026-06-26 19:36:31.177,994.27,994.25,-1.43,-1.58,0.00,1.06,0.21,9.29,0.00,0.00,0.00,0.00
2026-06-26 19:36:31.178,994.27,994.25,-1.43,-1.58,0.00,1.06,0.21,9.29,0.00,0.00,0.00,0.00
2026-06-26 19:36:31.180,994.27,994.25,-1.43,-1.58,0.00,1.06,0.21,9.29,0.00,0.00,0.00,0.00
2026-06-26 19:36:31.181,994.27,994.25,-1.43,-1.58,0.00,1.06,0.21,9.29,0.00,0.00,0.00,0.00
2026-06-26 19:36:31.186,994.27,994.25,-1.43,-1.58,0.00,1.06,0.21,9.29,0.00,0.00,0.00,0.00
2026-06-26 19:36:31.188,994.27,994.25,-1.43,-1.58,0.00,1.05,0.21,9.28,0.00,0.00,0.00,0.00
2026-06-26 19:36:31.235,994.27,994.25,-1.63,-1.69,0.00,1.05,0.22,9.27,0.00,0.00,0.00,0.00
2026-06-26 19:36:31.237,994.27,994.25,-1.63,-1.69,0.00,1.04,0.22,9.29,0.00,0.00,0.00,0.00
2026-06-26 19:36:31.242,994.27,994.25,-1.63,-1.69,0.00,1.04,0.22,9.29,0.00,0.00,0.00,0.00
2026-06-26 19:36:31.245,994.27,994.25,-1.63,-1.69,0.00,1.04,0.22,9.29,0.00,0.00,-0.00,0.00
2026-06-26 19:36:31.247,994.27,994.25,-1.63,-1.69,0.00,1.05,0.24,9.27,0.00,0.00,-0.00,0.00
2026-06-26 19:36:31.248,994.27,994.25,-1.63,-1.69,0.00,1.05,0.24,9.27,0.00,0.00,-0.00,0.00
2026-06-26 19:36:31.252,994.27,994.25,-1.63,-1.69,0.00,1.05,0.24,9.27,0.00,0.00,-0.00,0.00
2026-06-26 19:36:31.255,994.27,994.25,-1.63,-1.69,0.00,1.05,0.24,9.27,0.00,0.00,0.00,0.00
2026-06-26 19:36:31.257,994.27,994.25,-1.63,-1.69,0.00,1.07,0.24,9.27,0.00,0.00,0.00,0.00
2026-06-26 19:36:31.258,994.27,994.25,-1.63,-1.69,0.00,1.07,0.24,9.27,0.00,0.00,0.00,0.00
2026-06-26 19:36:31.262,994.27,994.25,-1.63,-1.69,0.00,1.07,0.24,9.27,0.00,0.00,0.00,0.00
2026-06-26 19:36:31.266,994.27,994.25,-1.63,-1.69,0.00,1.07,0.24,9.27,0.00,-0.00,0.00,0.00
2026-06-26 19:36:31.268,994.27,994.25,-1.63,-1.69,0.00,1.06,0.21,9.27,0.00,-0.00,0.00,0.00
2026-06-26 19:36:31.273,994.27,994.25,-1.63,-1.69,0.00,1.06,0.21,9.27,0.00,-0.00,0.00,0.00
2026-06-26 19:36:31.316,994.27,994.25,-1.78,-1.77,0.00,1.08,0.23,9.27,0.00,-0.00,0.00,0.00
2026-06-26 19:36:31.318,994.27,994.25,-1.78,-1.77,0.00,1.08,0.23,9.27,0.00,-0.00,0.00,0.00
2026-06-26 19:36:31.320,994.27,994.25,-1.78,-1.77,0.00,1.08,0.23,9.27,0.00,-0.00,0.00,0.00
2026-06-26 19:36:31.329,994.27,994.25,-1.78,-1.77,0.00,1.08,0.23,9.27,0.00,0.00,0.00,0.00
2026-06-26 19:36:31.330,994.27,994.25,-1.78,-1.77,0.00,1.05,0.23,9.28,0.00,0.00,0.00,0.00
2026-06-26 19:36:31.377,994.27,994.25,-1.74,-1.75,0.00,1.06,0.23,9.26,0.00,0.00,0.00,0.00
2026-06-26 19:36:31.378,994.27,994.25,-1.74,-1.75,0.00,1.06,0.22,9.30,0.00,0.00,0.00,0.00
2026-06-26 19:36:31.380,994.27,994.25,-1.74,-1.75,0.00,1.06,0.22,9.30,0.00,0.00,0.00,0.00
2026-06-26 19:36:31.382,994.27,994.25,-1.74,-1.75,0.00,1.06,0.22,9.30,0.00,0.00,0.00,0.00
2026-06-26 19:36:31.385,994.27,994.25,-1.74,-1.75,0.00,1.06,0.22,9.30,0.00,0.00,0.00,0.00
2026-06-26 19:36:31.388,994.27,994.25,-1.74,-1.75,0.00,1.05,0.22,9.30,0.00,0.00,0.00,0.00
2026-06-26 19:36:31.394,994.27,994.25,-1.74,-1.75,0.00,1.05,0.22,9.30,0.00,0.00,0.00,0.00
2026-06-26 19:36:31.396,994.27,994.25,-1.74,-1.75,0.00,1.05,0.23,9.29,-0.00,-0.00,0.00,0.00
2026-06-26 19:36:31.402,994.27,994.25,-1.74,-1.75,0.00,1.05,0.23,9.29,-0.00,-0.00,0.00,0.00
2026-06-26 19:36:31.405,994.27,994.25,-1.74,-1.75,0.00,1.05,0.23,9.29,0.00,-0.00,0.00,0.00
2026-06-26 19:36:31.407,994.27,994.25,-1.74,-1.75,0.00,1.06,0.22,9.28,0.00,-0.00,0.00,0.00
2026-06-26 19:36:31.409,994.27,994.25,-1.74,-1.75,0.00,1.06,0.22,9.28,0.00,-0.00,0.00,0.00
2026-06-26 19:36:31.410,994.27,994.25,-1.74,-1.75,0.00,1.06,0.22,9.28,0.00,-0.00,0.00,0.00
2026-06-26 19:36:31.415,994.27,994.25,-1.74,-1.75,0.00,1.06,0.22,9.28,0.00,-0.00,0.00,0.00
2026-06-26 19:36:31.455,994.27,994.25,-1.74,-1.75,0.00,1.06,0.21,9.28,0.00,-0.01,0.00,0.00
2026-06-26 19:36:31.457,994.27,994.25,-1.74,-1.75,0.00,1.08,0.22,9.25,0.00,-0.01,0.00,0.00
2026-06-26 19:36:31.464,994.27,994.25,-1.74,-1.75,0.00,1.08,0.22,9.25,0.00,-0.01,0.00,0.00
2026-06-26 19:36:31.466,994.27,994.25,-1.74,-1.75,0.00,1.07,0.22,9.28,0.00,0.00,-0.00,0.00
2026-06-26 19:36:31.467,994.27,994.25,-1.74,-1.75,0.00,1.07,0.22,9.28,0.00,0.00,-0.00,0.00
2026-06-26 19:36:31.469,994.27,994.25,-1.74,-1.75,0.00,1.07,0.22,9.28,0.00,0.00,-0.00,0.00
2026-06-26 19:36:31.474,994.27,994.25,-1.74,-1.75,0.00,1.07,0.22,9.28,0.00,0.00,-0.00,0.00
2026-06-26 19:36:31.517,994.27,994.25,-1.60,-1.67,0.00,1.07,0.23,9.27,-0.00,-0.00,0.00,0.00
2026-06-26 19:36:31.518,994.27,994.25,-1.60,-1.67,0.00,1.07,0.23,9.27,-0.00,-0.00,0.00,0.00
2026-06-26 19:36:31.523,994.27,994.25,-1.60,-1.67,0.00,1.07,0.23,9.27,-0.00,-0.00,0.00,0.00
2026-06-26 19:36:31.528,994.27,994.25,-1.60,-1.67,0.00,1.07,0.23,9.27,0.00,0.00,-0.00,0.00
2026-06-26 19:36:31.532,994.27,994.25,-1.60,-1.67,0.00,1.07,0.23,9.27,0.00,0.00,-0.00,0.00
2026-06-26 19:36:31.536,994.27,994.25,-1.60,-1.67,0.00,1.07,0.23,9.27,0.00,0.00,0.00,0.00
2026-06-26 19:36:31.538,994.27,994.25,-1.60,-1.67,0.00,1.07,0.22,9.27,0.00,0.00,0.00,0.00
2026-06-26 19:36:31.539,994.27,994.25,-1.60,-1.67,0.00,1.07,0.22,9.27,0.00,0.00,0.00,0.00
2026-06-26 19:36:31.545,994.27,994.25,-1.60,-1.67,0.00,1.07,0.22,9.27,0.00,0.00,0.00,0.00
2026-06-26 19:36:31.550,994.27,994.25,-1.60,-1.67,0.00,1.06,0.23,9.28,0.00,0.00,0.00,0.00
2026-06-26 19:36:31.556,994.27,994.25,-1.60,-1.67,0.00,1.06,0.23,9.28,-0.00,-0.00,0.00,0.00
