timestamp,pressure_bag,pressure_bme,diff_pressure,v_wind_est,speed,accel_x,accel_y,accel_z,gyro_x,gyro_y,gyro_z,power
2026-06-26 19:06:05.877,994.07,994.05,-1.53,-1.64,0.00,1.99,0.10,9.09,0.00,0.00,0.00,0.00
2026-06-26 19:06:05.879,994.07,994.05,-1.53,-1.64,0.00,1.99,0.10,9.09,0.00,0.00,0.00,0.00
2026-06-26 19:06:05.884,994.07,994.05,-1.53,-1.64,0.00,1.99,0.10,9.09,0.00,0.00,0.00,0.00
2026-06-26 19:06:05.885,994.07,994.05,-1.53,-1.64,0.00,1.99,0.11,9.10,-0.00,0.00,-0.00,0.00
2026-06-26 19:06:05.886,994.07,994.05,-1.53,-1.64,0.00,1.99,0.11,9.10,-0.00,0.00,-0.00,0.00
2026-06-26 19:06:05.888,994.07,994.05,-1.53,-1.64,0.00,1.99,0.11,9.10,-0.00,0.00,-0.00,0.00
2026-06-26 19:06:05.889,994.07,994.05,-1.53,-1.64,0.00,1.99,0.11,9.10,-0.00,0.00,-0.00,0.00
2026-06-26 19:06:05.895,994.07,994.05,-1.53,-1.64,0.00,1.99,0.11,9.10,-0.00,0.00,-0.00,0.00
2026-06-26 19:06:05.898,994.07,994.05,-1.53,-1.64,0.00,1.99,0.08,9.12,0.00,0.00,0.00,0.00
2026-06-26 19:06:05.904,994.07,994.05,-1.53,-1.64,0.00,1.99,0.08,9.12,0.00,0.00,0.00,0.00
2026-06-26 19:06:05.906,994.07,994.05,-1.53,-1.64,0.00,1.98,0.09,9.11,-0.00,0.00,-0.00,0.00
2026-06-26 19:06:05.907,994.07,994.05,-1.53,-1.64,0.00,1.98,0.09,9.11,-0.00,0.00,-0.00,0.00
2026-06-26 19:06:05.909,994.07,994.05,-1.53,-1.64,0.00,1.98,0.09,9.11,-0.00,0.00,-0.00,0.00
2026-06-26 19:06:05.913,994.07,994.05,-1.53,-1.64,0.00,1.98,0.09,9.11,-0.00,0.00,-0.00,0.00
2026-06-26 19:06:05.915,994.07,994.05,-1.53,-1.64,0.00,2.00,0.09,9.12,-0.00,0.00,0.00,0.00
2026-06-26 19:06:05.919,994.07,994.05,-1.53,-1.64,0.00,2.00,0.09,9.12,-0.00,0.00,0.00,0.00
2026-06-26 19:06:05.925,994.07,994.05,-1.53,-1.64,0.00,2.00,0.09,9.12,-0.00,-0.00,0.00,0.00
2026-06-26 19:06:05.927,994.07,994.05,-1.53,-1.64,0.00,1.99,0.08,9.11,-0.00,-0.00,0.00,0.00
2026-06-26 19:06:05.929,994.07,994.05,-1.53,-1.64,0.00,1.99,0.08,9.11,-0.00,-0.00,0.00,0.00
2026-06-26 19:06:05.935,994.07,994.05,-1.53,-1.64,0.00,1.99,0.08,9.11,-0.00,-0.00,0.00,0.00
2026-06-26 19:06:05.975,994.07,994.05,-1.39,-1.56,0.00,1.98,0.10,9.12,0.00,0.00,-0.00,0.00
2026-06-26 19:06:05.976,994.07,994.05,-1.39,-1.56,0.00,1.98,0.09,9.10,0.00,0.00,-0.00,0.00
2026-06-26 19:06:06.025,994.07,994.05,-1.24,-1.47,0.00,2.00,0.10,9.12,0.00,0.00,0.00,0.00
2026-06-26 19:06:06.026,994.07,994.05,-1.24,-1.47,0.00,2.00,0.09,9.10,0.00,0.00,0.00,0.00
2026-06-26 19:06:06.027,994.07,994.05,-1.24,-1.47,0.00,2.00,0.09,9.10,0.00,0.00,0.00,0.00
2026-06-26 19:06:06.029,994.07,994.05,-1.24,-1.47,0.00,2.00,0.09,9.10,0.00,0.00,0.00,0.00
2026-06-26 19:06:06.035,994.07,994.05,-1.24,-1.47,0.00,2.00,0.09,9.10,-0.00,0.00,0.00,0.00
2026-06-26 19:06:06.037,994.07,994.05,-1.24,-1.47,0.00,1.98,0.09,9.08,-0.00,0.00,0.00,0.00
2026-06-26 19:06:06.039,994.07,994.05,-1.24,-1.47,0.00,1.98,0.09,9.08,-0.00,0.00,0.00,0.00
2026-06-26 19:06:06.045,994.07,994.05,-1.24,-1.47,0.00,1.98,0.09,9.08,-0.00,-0.00,0.00,0.00
2026-06-26 19:06:06.047,994.07,994.05,-1.24,-1.47,0.00,1.99,0.10,9.10,-0.00,-0.00,0.00,0.00
2026-06-26 19:06:06.049,994.07,994.05,-1.24,-1.47,0.00,1.99,0.10,9.10,-0.00,-0.00,0.00,0.00
2026-06-26 19:06:06.052,994.07,994.05,-1.24,-1.47,0.00,1.99,0.10,9.10,-0.00,-0.00,0.00,0.00
2026-06-26 19:06:06.056,994.07,994.05,-1.24,-1.47,0.00,1.99,0.10,9.10,0.00,0.00,0.00,0.00
2026-06-26 19:06:06.057,994.07,994.05,-1.24,-1.47,0.00,1.98,0.11,9.13,0.00,0.00,0.00,0.00
2026-06-26 19:06:06.059,994.07,994.05,-1.24,-1.47,0.00,1.98,0.11,9.13,0.00,0.00,0.00,0.00
2026-06-26 19:06:06.060,994.07,994.05,-1.24,-1.47,0.00,1.98,0.11,9.13,0.00,0.00,0.00,0.00
2026-06-26 19:06:06.061,994.07,994.05,-1.24,-1.47,0.00,1.98,0.11,9.13,0.00,0.00,0.00,0.00
2026-06-26 19:06:06.065,994.07,994.05,-1.24,-1.47,0.00,1.98,0.11,9.13,0.00,0.00,0.00,0.00
2026-06-26 19:06:06.066,994.07,994.05,-1.24,-1.47,0.00,2.00,0.11,9.13,0.00,0.00,-0.00,0.00
2026-06-26 19:06:06.067,994.07,994.05,-1.24,-1.47,0.00,2.00,0.11,9.13,0.00,0.00,-0.00,0.00
2026-06-26 19:06:06.073,994.07,994.05,-1.24,-1.47,0.00,2.00,0.11,9.13,0.00,0.00,-0.00,0.00
2026-06-26 19:06:06.115,994.07,994.05,-1.43,-1.58,0.00,2.00,0.08,9.11,-0.00,-0.00,0.00,0.00
2026-06-26 19:06:06.117,994.07,994.05,-1.43,-1.58,0.00,2.00,0.08,9.11,-0.00,-0.00,0.00,0.00
2026-06-26 19:06:06.119,994.07,994.05,-1.43,-1.58,0.00,2.00,0.08,9.11,-0.00,-0.00,0.00,0.00
2026-06-26 19:06:06.120,994.07,994.05,-1.43,-1.58,0.00,2.00,0.08,9.11,-0.00,-0.00,0.00,0.00
2026-06-26 19:06:06.125,994.07,994.05,-1.43,-1.58,0.00,2.00,0.08,9.11,0.00,-0.00,-0.00,0.00
2026-06-26 19:06:06.167,994.06,994.05,-1.20,-1.45,0.00,1.99,0.09,9.12,-0.00,0.00,0.00,0.00
2026-06-26 19:06:06.169,994.06,994.05,-1.20,-1.45,0.00,1.99,0.09,9.12,-0.00,0.00,0.00,0.00
2026-06-26 19:06:06.172,994.06,994.05,-1.20,-1.45,0.00,1.99,0.09,9.12,-0.00,0.00,0.00,0.00
2026-06-26 19:06:06.176,994.06,994.05,-1.20,-1.45,0.00,1.99,0.09,9.12,0.00,0.00,-0.00,0.00
2026-06-26 19:06:06.177,994.06,994.05,-1.20,-1.45,0.00,1.99,0.08,9.09,0.00,0.00,-0.00,0.00
2026-06-26 19:06:06.179,994.06,994.05,-1.20,-1.45,0.00,1.99,0.08,9.09,0.00,0.00,-0.00,0.00
2026-06-26 19:06:06.181,994.06,994.05,-1.20,-1.45,0.00,1.99,0.08,9.09,0.00,0.00,-0.00,0.00
2026-06-26 19:06:06.185,994.06,994.05,-1.20,-1.45,0.00,1.99,0.08,9.09,-0.00,0.00,0.00,0.00
2026-06-26 19:06:06.186,994.06,994.05,-1.20,-1.45,0.00,1.99,0.08,9.08,-0.00,0.00,0.00,0.00
2026-06-26 19:06:06.188,994.06,994.05,-1.20,-1.45,0.00,1.99,0.08,9.08,-0.00,0.00,0.00,0.00
2026-06-26 19:06:06.189,994.06,994.05,-1.20,-1.45,0.00,1.99,0.08,9.08,-0.00,0.00,0.00,0.00
2026-06-26 19:06:06.191,994.06,994.05,-1.20,-1.45,0.00,1.99,0.08,9.08,-0.00,0.00,0.00,0.00
2026-06-26 19:06:06.195,994.06,994.05,-1.20,-1.45,0.00,1.99,0.08,9.08,0.00,-0.00,-0.00,0.00
2026-06-26 19:06:06.197,994.06,994.05,-1.20,-1.45,0.00,2.01,0.07,9.14,0.00,-0.00,-0.00,0.00
2026-06-26 19:06:06.198,994.06,994.05,-1.20,-1.45,0.00,2.01,0.07,9.14,0.00,-0.00,-0.00,0.00
2026-06-26 19:06:06.199,994.06,994.05,-1.20,-1.45,0.00,2.01,0.07,9.14,0.00,-0.00,-0.00,0.00
2026-06-26 19:06:06.201,994.06,994.05,-1.20,-1.45,0.00,2.01,0.07,9.14,0.00,-0.00,-0.00,0.00
2026-06-26 19:06:06.205,994.06,994.05,-1.20,-1.45,0.00,2.01,0.07,9.14,-0.00,-0.00,-0.00,0.00
2026-06-26 19:06:06.208,994.06,994.05,-1.20,-1.45,0.00,1.96,0.11,9.12,-0.00,-0.00,-0.00,0.00
2026-06-26 19:06:06.210,994.06,994.05,-1.20,-1.45,0.00,1.96,0.11,9.12,-0.00,-0.00,-0.00,0.00
2026-06-26 19:06:06.211,994.06,994.05,-1.20,-1.45,0.00,1.96,0.11,9.12,-0.00,-0.00,-0.00,0.00
2026-06-26 19:06:06.216,994.06,994.05,-1.20,-1.45,0.00,1.96,0.11,9.12,0.00,-0.00,0.00,0.00
2026-06-26 19:06:06.259,994.06,994.05,-1.16,-1.42,0.00,1.99,0.08,9.13,0.00,-0.00,0.00,0.00
2026-06-26 19:06:06.260,994.06,994.05,-1.16,-1.42,0.00,1.99,0.08,9.13,0.00,-0.00,0.00,0.00
2026-06-26 19:06:06.262,994.06,994.05,-1.16,-1.42,0.00,1.99,0.08,9.13,0.00,-0.00,0.00,0.00
2026-06-26 19:06:06.266,994.06,994.05,-1.16,-1.42,0.00,1.99,0.08,9.13,0.00,0.00,-0.00,0.00
2026-06-26 19:06:06.308,994.07,994.05,-1.30,-1.51,0.00,1.99,0.09,9.10,-0.00,0.00,0.00,0.00
2026-06-26 19:06:06.309,994.07,994.05,-1.30,-1.51,0.00,1.99,0.09,9.10,-0.00,0.00,0.00,0.00
2026-06-26 19:06:06.310,994.07,994.05,-1.30,-1.51,0.00,1.99,0.09,9.10,-0.00,0.00,0.00,0.00
2026-06-26 19:06:06.312,994.07,994.05,-1.30,-1.51,0.00,1.99,0.09,9.10,-0.00,0.00,0.00,0.00
2026-06-26 19:06:06.313,994.07,994.05,-1.30,-1.51,0.00,1.99,0.09,9.10,-0.00,0.00,0.00,0.00
2026-06-26 19:06:06.315,994.07,994.05,-1.30,-1.51,0.00,1.99,0.09,9.10,0.00,0.00,-0.00,0.00
2026-06-26 19:06:06.317,994.07,994.05,-1.30,-1.51,0.00,1.99,0.12,9.13,0.00,0.00,-0.00,0.00
2026-06-26 19:06:06.318,994.07,994.05,-1.30,-1.51,0.00,1.99,0.12,9.13,0.00,0.00,-0.00,0.00
2026-06-26 19:06:06.319,994.07,994.05,-1.30,-1.51,0.00,1.99,0.12,9.13,0.00,0.00,-0.00,0.00
2026-06-26 19:06:06.320,994.07,994.05,-1.30,-1.51,0.00,1.99,0.12,9.13,0.00,0.00,-0.00,0.00
2026-06-26 19:06:06.325,994.07,994.05,-1.30,-1.51,0.00,1.99,0.12,9.13,0.00,0.00,-0.00,0.00
2026-06-26 19:06:06.326,994.07,994.05,-1.30,-1.51,0.00,1.99,0.09,9.11,-0.00,0.00,0.00,0.00
2026-06-26 19:06:06.328,994.07,994.05,-1.30,-1.51,0.00,1.99,0.09,9.11,-0.00,0.00,0.00,0.00
2026-06-26 19:06:06.329,994.07,994.05,-1.30,-1.51,0.00,1.99,0.09,9.11,-0.00,0.00,0.00,0.00
2026-06-26 19:06:06.330,994.07,994.05,-1.30,-1.51,0.00,1.99,0.09,9.11,-0.00,0.00,0.00,0.00
2026-06-26 19:06:06.335,994.07,994.05,-1.30,-1.51,0.00,1.99,0.09,9.11,-0.00,0.00,0.00,0.00
2026-06-26 19:06:06.336,994.07,994.05,-1.30,-1.51,0.00,2.00,0.08,9.10,-0.00,0.00,-0.00,0.00
2026-06-26 19:06:06.338,994.07,994.05,-1.30,-1.51,0.00,2.00,0.08,9.10,-0.00,0.00,-0.00,0.00
2026-06-26 19:06:06.339,994.07,994.05,-1.30,-1.51,0.00,2.00,0.08,9.10,-0.00,0.00,-0.00,0.00
2026-06-26 19:06:06.340,994.07,994.05,-1.30,-1.51,0.00,2.00,0.08,9.10,-0.00,0.00,-0.00,0.00
2026-06-26 19:06:06.341,994.07,994.05,-1.30,-1.51,0.00,2.00,0.08,9.10,-0.00,0.00,-0.00,0.00
2026-06-26 19:06:06.346,994.07,994.05,-1.30,-1.51,0.00,2.00,0.08,9.10,-0.00,0.00,-0.00,0.00
2026-06-26 19:06:06.347,994.07,994.05,-1.30,-1.51,0.00,1.99,0.09,9.10,-0.00,0.00,0.00,0.00
2026-06-26 19:06:06.349,994.07,994.05,-1.30,-1.51,0.00,1.99,0.09,9.10,-0.00,0.00,0.00,0.00
2026-06-26 19:06:06.350,994.07,994.05,-1.30,-1.51,0.00,1.99,0.09,9.10,-0.00,0.00,0.00,0.00
2026-06-26 19:06:06.355,994.07,994.05,-1.30,-1.51,0.00,1.99,0.09,9.10,-0.00,0.00,0.00,0.00
2026-06-26 19:06:06.357,994.07,994.05,-1.30,-1.51,0.00,1.99,0.11,9.11,-0.00,-0.00,0.00,0.00
2026-06-26 19:06:06.358,994.07,994.05,-1.30,-1.51,0.00,1.99,0.11,9.11,-0.00,-0.00,0.00,0.00
2026-06-26 19:06:06.399,994.07,994.05,-1.49,-1.62,0.00,1.97,0.11,9.09,0.00,0.00,0.00,0.00
2026-06-26 19:06:06.405,994.07,994.05,-1.49,-1.62,0.00,1.97,0.11,9.09,0.00,0.00,0.00,0.00
2026-06-26 19:06:06.413,994.07,994.05,-1.49,-1.62,0.00,1.99,0.11,9.11,0.00,0.00,0.00,0.00
2026-06-26 19:06:06.457,994.07,994.05,-1.50,-1.62,0.00,1.99,0.09,9.09,0.00,0.00,-0.00,0.00
2026-06-26 19:06:06.459,994.07,994.05,-1.50,-1.62,0.00,1.99,0.09,9.09,0.00,0.00,-0.00,0.00
2026-06-26 19:06:06.460,994.07,994.05,-1.50,-1.62,0.00,1.99,0.09,9.09,0.00,0.00,-0.00,0.00
2026-06-26 19:06:06.461,994.07,994.05,-1.50,-1.62,0.00,1.99,0.09,9.09,0.00,0.00,-0.00,0.00
2026-06-26 19:06:06.462,994.07,994.05,-1.50,-1.62,0.00,1.99,0.09,9.09,0.00,0.00,-0.00,0.00
2026-06-26 19:06:06.464,994.07,994.05,-1.50,-1.62,0.00,1.99,0.09,9.09,0.00,0.00,-0.00,0.00
2026-06-26 19:06:06.466,994.07,994.05,-1.50,-1.62,0.00,1.99,0.09,9.09,0.00,0.00,-0.00,0.00
2026-06-26 19:06:06.467,994.07,994.05,-1.50,-1.62,0.00,1.99,0.10,9.12,0.00,0.00,-0.00,0.00
2026-06-26 19:06:06.468,994.07,994.05,-1.50,-1.62,0.00,1.99,0.10,9.12,0.00,0.00,-0.00,0.00
2026-06-26 19:06:06.470,994.07,994.05,-1.50,-1.62,0.00,1.99,0.10,9.12,0.00,0.00,-0.00,0.00
2026-06-26 19:06:06.471,994.07,994.05,-1.50,-1.62,0.00,1.99,0.10,9.12,0.00,0.00,-0.00,0.00
2026-06-26 19:06:06.476,994.07,994.05,-1.50,-1.62,0.00,1.99,0.10,9.12,0.00,0.00,-0.00,0.00
2026-06-26 19:06:06.477,994.07,994.05,-1.50,-1.62,0.00,2.00,0.12,9.10,0.00,0.00,-0.00,0.00
2026-06-26 19:06:06.480,994.07,994.05,-1.50,-1.62,0.00,2.00,0.12,9.10,0.00,0.00,-0.00,0.00
2026-06-26 19:06:06.486,994.07,994.05,-1.50,-1.62,0.00,2.00,0.12,9.10,0.00,0.00,-0.00,0.00
2026-06-26 19:06:06.488,994.07,994.05,-1.50,-1.62,0.00,2.00,0.08,9.11,-0.00,0.00,0.00,0.00
2026-06-26 19:06:06.489,994.07,994.05,-1.50,-1.62,0.00,2.00,0.08,9.11,-0.00,0.00,0.00,0.00
2026-06-26 19:06:06.492,994.07,994.05,-1.50,-1.62,0.00,2.00,0.08,9.11,-0.00,0.00,0.00,0.00
2026-06-26 19:06:06.496,994.07,994.05,-1.50,-1.62,0.00,2.00,0.08,9.11,0.00,0.00,0.00,0.00
2026-06-26 19:06:06.497,994.07,994.05,-1.50,-1.62,0.00,1.98,0.11,9.10,0.00,0.00,0.00,0.00
2026-06-26 19:06:06.498,994.07,994.05,-1.50,-1.62,0.00,1.98,0.11,9.10,0.00,0.00,0.00,0.00
2026-06-26 19:06:06.540,994.07,994.05,-1.59,-1.67,0.00,1.97,0.08,9.09,0.00,0.00,-0.00,0.00
2026-06-26 19:06:06.544,994.07,994.05,-1.59,-1.67,0.00,1.97,0.08,9.09,0.00,0.00,-0.00,0.00
2026-06-26 19:06:06.546,994.07,994.05,-1.59,-1.67,0.00,1.97,0.08,9.09,-0.00,0.00,0.00,0.00
2026-06-26 19:06:06.548,994.07,994.05,-1.59,-1.67,0.00,2.01,0.10,9.11,-0.00,0.00,0.00,0.00
2026-06-26 19:06:06.549,994.07,994.05,-1.59,-1.67,0.00,2.01,0.10,9.11,-0.00,0.00,0.00,0.00
2026-06-26 19:06:06.550,994.07,994.05,-1.59,-1.67,0.00,2.01,0.10,9.11,-0.00,0.00,0.00,0.00
2026-06-26 19:06:06.553,994.07,994.05,-1.59,-1.67,0.00,2.01,0.10,9.11,-0.00,0.00,0.00,0.00
2026-06-26 19:06:06.557,994.07,994.05,-1.59,-1.67,0.00,2.01,0.10,9.11,-0.00,0.00,-0.00,0.00
2026-06-26 19:06:06.599,994.06,994.05,-1.36,-1.55,0.00,1.97,0.10,9.11,0.00,0.00,0.00,0.00
2026-06-26 19:06:06.604,994.06,994.05,-1.36,-1.55,0.00,1.97,0.10,9.11,0.00,0.00,0.00,0.00
2026-06-26 19:06:06.607,994.06,994.05,-1.36,-1.55,0.00,1.99,0.11,9.10,-0.00,0.00,-0.00,0.00
2026-06-26 19:06:06.609,994.06,994.05,-1.36,-1.55,0.00,1.99,0.11,9.10,-0.00,0.00,-0.00,0.00
2026-06-26 19:06:06.610,994.06,994.05,-1.36,-1.55,0.00,1.99,0.11,9.10,-0.00,0.00,-0.00,0.00
2026-06-26 19:06:06.611,994.06,994.05,-1.36,-1.55,0.00,1.99,0.11,9.10,-0.00,0.00,-0.00,0.00
2026-06-26 19:06:06.613,994.06,994.05,-1.36,-1.55,0.00,1.99,0.11,9.10,-0.00,0.00,-0.00,0.00
2026-06-26 19:06:06.614,994.06,994.05,-1.36,-1.55,0.00,1.99,0.11,9.10,-0.00,0.00,-0.00,0.00
2026-06-26 19:06:06.616,994.06,994.05,-1.36,-1.55,0.00,1.99,0.11,9.10,0.00,0.00,0.00,0.00
2026-06-26 19:06:06.617,994.06,994.05,-1.36,-1.55,0.00,1.99,0.10,9.13,0.00,0.00,0.00,0.00
2026-06-26 19:06:06.619,994.06,994.05,-1.36,-1.55,0.00,1.99,0.10,9.13,0.00,0.00,0.00,0.00
2026-06-26 19:06:06.620,994.06,994.05,-1.36,-1.55,0.00,1.99,0.10,9.13,0.00,0.00,0.00,0.00
2026-06-26 19:06:06.626,994.06,994.05,-1.36,-1.55,0.00,1.99,0.10,9.13,0.00,0.00,0.00,0.00
2026-06-26 19:06:06.629,994.06,994.05,-1.36,-1.55,0.00,2.00,0.09,9.12,-0.00,-0.00,0.00,0.00
2026-06-26 19:06:06.633,994.06,994.05,-1.36,-1.55,0.00,2.00,0.09,9.12,-0.00,-0.00,0.00,0.00
2026-06-26 19:06:06.637,994.06,994.05,-1.36,-1.55,0.00,2.00,0.09,9.12,0.00,-0.00,0.00,0.00
2026-06-26 19:06:06.638,994.06,994.05,-1.36,-1.55,0.00,2.00,0.10,9.09,0.00,-0.00,0.00,0.00
2026-06-26 19:06:06.686,994.06,994.05,-1.52,-1.63,0.00,1.99,0.09,9.12,0.00,0.00,-0.00,0.00
2026-06-26 19:06:06.688,994.06,994.05,-1.52,-1.63,0.00,1.99,0.09,9.09,-0.00,-0.00,0.00,0.00
2026-06-26 19:06:06.690,994.06,994.05,-1.52,-1.63,0.00,1.99,0.09,9.09,-0.00,-0.00,0.00,0.00
2026-06-26 19:06:06.696,994.06,994.05,-1.52,-1.63,0.00,1.99,0.09,9.09,-0.00,-0.00,0.00,0.00
2026-06-26 19:06:06.698,994.06,994.05,-1.52,-1.63,0.00,1.97,0.11,9.12,-0.00,-0.00,0.00,0.00
2026-06-26 19:06:06.745,994.07,994.05,-1.84,-1.80,0.00,1.98,0.10,9.07,0.00,-0.00,0.00,0.00
2026-06-26 19:06:06.748,994.07,994.05,-1.84,-1.80,0.00,1.99,0.13,9.11,0.00,-0.00,0.00,0.00
2026-06-26 19:06:06.749,994.07,994.05,-1.84,-1.80,0.00,1.99,0.13,9.11,0.00,-0.00,0.00,0.00
2026-06-26 19:06:06.751,994.07,994.05,-1.84,-1.80,0.00,1.99,0.13,9.11,0.00,-0.00,0.00,0.00
2026-06-26 19:06:06.756,994.07,994.05,-1.84,-1.80,0.00,1.99,0.13,9.11,0.00,-0.00,0.00,0.00
2026-06-26 19:06:06.758,994.07,994.05,-1.84,-1.80,0.00,1.99,0.12,9.12,-0.00,-0.00,0.00,0.00
2026-06-26 19:06:06.759,994.07,994.05,-1.84,-1.80,0.00,1.99,0.12,9.12,-0.00,-0.00,0.00,0.00
2026-06-26 19:06:06.761,994.07,994.05,-1.84,-1.80,0.00,1.99,0.12,9.12,-0.00,-0.00,0.00,0.00
2026-06-26 19:06:06.762,994.07,994.05,-1.84,-1.80,0.00,1.99,0.12,9.12,-0.00,-0.00,0.00,0.00
2026-06-26 19:06:06.763,994.07,994.05,-1.84,-1.80,0.00,1.99,0.12,9.12,-0.00,-0.00,0.00,0.00
2026-06-26 19:06:06.765,994.07,994.05,-1.84,-1.80,0.00,1.99,0.12,9.12,-0.00,-0.00,0.00,0.00
2026-06-26 19:06:06.767,994.07,994.05,-1.84,-1.80,0.00,1.99,0.09,9.10,0.00,-0.00,0.00,0.00
2026-06-26 19:06:06.771,994.07,994.05,-1.84,-1.80,0.00,1.99,0.09,9.10,0.00,-0.00,0.00,0.00
2026-06-26 19:06:06.777,994.07,994.05,-1.84,-1.80,0.00,1.99,0.09,9.10,0.00,0.00,0.00,0.00
2026-06-26 19:06:06.780,994.07,994.05,-1.84,-1.80,0.00,1.99,0.09,9.10,0.00,0.00,0.00,0.00
2026-06-26 19:06:06.826,994.07,994.05,-1.39,-1.56,0.00,2.00,0.11,9.11,0.00,0.00,-0.00,0.00
2026-06-26 19:06:06.828,994.07,994.05,-1.39,-1.56,0.00,2.01,0.10,9.11,-0.00,0.00,0.00,0.00
2026-06-26 19:06:06.834,994.07,994.05,-1.39,-1.56,0.00,2.01,0.10,9.11,-0.00,0.00,0.00,0.00
2026-06-26 19:06:06.837,994.07,994.05,-1.39,-1.56,0.00,2.01,0.10,9.11,-0.00,0.00,0.00,0.00
2026-06-26 19:06:06.839,994.07,994.05,-1.39,-1.56,0.00,1.99,0.11,9.09,-0.00,0.00,0.00,0.00
2026-06-26 19:06:06.840,994.07,994.05,-1.39,-1.56,0.00,1.99,0.11,9.09,-0.00,0.00,0.00,0.00
2026-06-26 19:06:06.842,994.07,994.05,-1.39,-1.56,0.00,1.99,0.11,9.09,-0.00,0.00,0.00,0.00
2026-06-26 19:06:06.886,994.06,994.05,-0.99,-1.32,0.00,1.99,0.09,9.11,-0.00,0.00,-0.00,0.00
2026-06-26 19:06:06.889,994.06,994.05,-0.99,-1.32,0.00,1.98,0.09,9.09,-0.00,-0.00,0.00,0.00
2026-06-26 19:06:06.895,994.06,994.05,-0.99,-1.32,0.00,1.98,0.09,9.09,-0.00,-0.00,0.00,0.00
2026-06-26 19:06:06.898,994.06,994.05,-0.99,-1.32,0.00,2.01,0.11,9.08,0.00,0.00,-0.00,0.00
2026-06-26 19:06:06.899,994.06,994.05,-0.99,-1.32,0.00,2.01,0.11,9.08,0.00,0.00,-0.00,0.00
2026-06-26 19:06:06.901,994.06,994.05,-0.99,-1.32,0.00,2.01,0.11,9.08,0.00,0.00,-0.00,0.00
2026-06-26 19:06:06.906,994.06,994.05,-0.99,-1.32,0.00,2.01,0.11,9.08,0.00,0.00,-0.00,0.00
2026-06-26 19:06:06.908,994.06,994.05,-0.99,-1.32,0.00,2.00,0.08,9.13,0.00,0.00,-0.00,0.00
2026-06-26 19:06:06.910,994.06,994.05,-0.99,-1.32,0.00,2.00,0.08,9.13,0.00,0.00,-0.00,0.00
2026-06-26 19:06:06.916,994.06,994.05,-0.99,-1.32,0.00,2.00,0.08,9.13,0.00,0.00,-0.00,0.00
2026-06-26 19:06:06.918,994.06,994.05,-0.99,-1.32,0.00,1.99,0.11,9.12,0.00,-0.00,0.00,0.00
2026-06-26 19:06:06.920,994.06,994.05,-0.99,-1.32,0.00,1.99,0.11,9.12,0.00,-0.00,0.00,0.00
2026-06-26 19:06:06.926,994.06,994.05,-0.99,-1.32,0.00,1.99,0.11,9.12,0.00,-0.00,0.00,0.00
2026-06-26 19:06:06.967,994.06,994.05,-0.86,-1.23,0.00,2.09,0.09,9.54,0.00,0.00,0.00,0.00
2026-06-26 19:06:06.969,994.06,994.05,-0.86,-1.23,0.00,2.08,0.11,9.58,0.00,0.00,0.00,0.00
2026-06-26 19:06:06.974,994.06,994.05,-0.86,-1.23,0.00,2.08,0.11,9.58,0.00,0.00,0.00,0.00
2026-06-26 19:06:06.978,994.06,994.05,-0.86,-1.23,0.00,2.08,0.11,9.58,0.00,-0.00,0.00,0.00
2026-06-26 19:06:06.979,994.06,994.05,-0.86,-1.23,0.00,2.09,0.10,9.55,0.00,-0.00,0.00,0.00
2026-06-26 19:06:07.018,994.06,994.05,-0.77,-1.16,0.00,2.09,0.11,9.54,0.00,0.00,0.00,0.00
2026-06-26 19:06:07.019,994.06,994.05,-0.77,-1.16,0.00,2.09,0.11,9.54,0.00,0.00,0.00,0.00
2026-06-26 19:06:07.021,994.06,994.05,-0.77,-1.16,0.00,2.09,0.11,9.54,0.00,0.00,0.00,0.00
2026-06-26 19:06:07.027,994.06,994.05,-0.77,-1.16,0.00,2.09,0.11,9.54,0.00,0.00,0.00,0.00
2026-06-26 19:06:07.028,994.06,994.05,-0.77,-1.16,0.00,2.10,0.12,9.55,0.00,-0.00,-0.00,0.00
2026-06-26 19:06:07.030,994.06,994.05,-0.77,-1.16,0.00,2.10,0.12,9.55,0.00,-0.00,-0.00,0.00
2026-06-26 19:06:07.033,994.06,994.05,-0.77,-1.16,0.00,2.10,0.12,9.55,0.00,-0.00,-0.00,0.00
2026-06-26 19:06:07.038,994.06,994.05,-0.77,-1.16,0.00,2.10,0.12,9.55,-0.00,-0.00,0.00,0.00
2026-06-26 19:06:07.041,994.06,994.05,-0.77,-1.16,0.00,2.08,0.12,9.52,-0.00,-0.00,0.00,0.00
2026-06-26 19:06:07.047,994.06,994.05,-0.77,-1.16,0.00,2.08,0.12,9.52,-0.00,-0.00,0.00,0.00
2026-06-26 19:06:07.050,994.06,994.05,-0.77,-1.16,0.00,2.09,0.10,9.55,0.00,-0.00,0.00,0.00
2026-06-26 19:06:07.057,994.06,994.05,-0.77,-1.16,0.00,2.09,0.10,9.55,0.00,-0.00,0.00,0.00
2026-06-26 19:06:07.059,994.06,994.05,-0.77,-1.16,0.00,2.08,0.10,9.57,0.00,-0.00,-0.00,0.00
2026-06-26 19:06:07.061,994.06,994.05,-0.77,-1.16,0.00,2.08,0.10,9.57,0.00,-0.00,-0.00,0.00
2026-06-26 19:06:07.062,994.06,994.05,-0.77,-1.16,0.00,2.08,0.10,9.57,0.00,-0.00,-0.00,0.00
2026-06-26 19:06:07.064,994.06,994.05,-0.77,-1.16,0.00,2.08,0.10,9.57,0.00,-0.00,-0.00,0.00
2026-06-26 19:06:07.107,994.06,994.05,-1.12,-1.40,0.00,2.09,0.12,9.55,-0.00,-0.00,0.00,0.00
2026-06-26 19:06:07.109,994.06,994.05,-1.12,-1.40,0.00,2.09,0.12,9.54,0.00,-0.00,-0.00,0.00
2026-06-26 19:06:07.111,994.06,994.05,-1.12,-1.40,0.00,2.09,0.12,9.54,0.00,-0.00,-0.00,0.00
2026-06-26 19:06:07.112,994.06,994.05,-1.12,-1.40,0.00,2.09,0.12,9.54,0.00,-0.00,-0.00,0.00
2026-06-26 19:06:07.117,994.06,994.05,-1.12,-1.40,0.00,2.09,0.12,9.54,0.00,0.00,0.00,0.00
2026-06-26 19:06:07.160,994.06,994.05,-1.30,-1.51,0.00,2.09,0.11,9.54,0.00,0.00,-0.00,0.00
2026-06-26 19:06:07.162,994.06,994.05,-1.30,-1.51,0.00,2.07,0.09,9.56,0.00,0.00,-0.00,0.00
2026-06-26 19:06:07.163,994.06,994.05,-1.30,-1.51,0.00,2.07,0.09,9.56,0.00,0.00,-0.00,0.00
2026-06-26 19:06:07.165,994.06,994.05,-1.30,-1.51,0.00,2.07,0.09,9.56,0.00,0.00,-0.00,0.00
2026-06-26 19:06:07.168,994.06,994.05,-1.30,-1.51,0.00,2.07,0.09,9.56,0.00,0.00,0.00,0.00
2026-06-26 19:06:07.169,994.06,994.05,-1.30,-1.51,0.00,2.09,0.12,9.55,0.00,0.00,0.00,0.00
2026-06-26 19:06:07.171,994.06,994.05,-1.30,-1.51,0.00,2.09,0.12,9.55,0.00,0.00,0.00,0.00
2026-06-26 19:06:07.177,994.06,994.05,-1.30,-1.51,0.00,2.09,0.12,9.55,0.00,0.00,0.00,0.00
2026-06-26 19:06:07.183,994.06,994.05,-1.30,-1.51,0.00,2.10,0.11,9.56,-0.00,0.00,0.00,0.00
2026-06-26 19:06:07.188,994.06,994.05,-1.30,-1.51,0.00,2.10,0.11,9.56,0.00,-0.00,0.00,0.00
2026-06-26 19:06:07.195,994.06,994.05,-1.30,-1.51,0.00,2.08,0.13,9.53,0.00,-0.00,0.00,0.00
2026-06-26 19:06:07.198,994.06,994.05,-1.30,-1.51,0.00,2.08,0.13,9.53,0.00,-0.00,-0.00,0.00
2026-06-26 19:06:07.200,994.06,994.05,-1.30,-1.51,0.00,2.08,0.11,9.53,0.00,-0.00,-0.00,0.00
2026-06-26 19:06:07.201,994.06,994.05,-1.30,-1.51,0.00,2.08,0.11,9.53,0.00,-0.00,-0.00,0.00
2026-06-26 19:06:07.247,994.06,994.05,-0.86,-1.23,0.00,2.09,0.11,9.54,-0.00,-0.00,0.00,0.00
2026-06-26 19:06:07.249,994.06,994.05,-0.86,-1.23,0.00,2.09,0.11,9.54,-0.00,0.00,0.00,0.00
2026-06-26 19:06:07.251,994.06,994.05,-0.86,-1.23,0.00,2.09,0.11,9.54,-0.00,0.00,0.00,0.00
2026-06-26 19:06:07.253,994.06,994.05,-0.86,-1.23,0.00,2.09,0.11,9.54,-0.00,0.00,0.00,0.00
2026-06-26 19:06:07.260,994.06,994.05,-0.86,-1.23,0.00,2.09,0.11,9.54,0.00,0.00,0.00,0.00
2026-06-26 19:06:07.307,994.06,994.05,-0.67,-1.08,0.00,2.09,0.12,9.56,0.00,-0.00,0.00,0.00
2026-06-26 19:06:07.309,994.06,994.05,-0.67,-1.08,0.00,2.09,0.11,9.54,0.00,-0.00,0.00,0.00
2026-06-26 19:06:07.311,994.06,994.05,-0.67,-1.08,0.00,2.09,0.11,9.54,0.00,-0.00,0.00,0.00
2026-06-26 19:06:07.312,994.06,994.05,-0.67,-1.08,0.00,2.09,0.11,9.54,0.00,-0.00,0.00,0.00
2026-06-26 19:06:07.314,994.06,994.05,-0.67,-1.08,0.00,2.09,0.11,9.54,0.00,-0.00,0.00,0.00
2026-06-26 19:06:07.318,994.06,994.05,-0.67,-1.08,0.00,2.09,0.11,9.54,0.00,-0.00,0.00,0.00
2026-06-26 19:06:07.319,994.06,994.05,-0.67,-1.08,0.00,2.07,0.10,9.57,-0.00,-0.00,0.00,0.00
2026-06-26 19:06:07.321,994.06,994.05,-0.67,-1.08,0.00,2.07,0.10,9.57,-0.00,-0.00,0.00,0.00
2026-06-26 19:06:07.325,994.06,994.05,-0.67,-1.08,0.00,2.07,0.10,9.57,-0.00,-0.00,0.00,0.00
2026-06-26 19:06:07.328,994.06,994.05,-0.67,-1.08,0.00,2.07,0.10,9.57,0.00,0.00,0.00,0.00
2026-06-26 19:06:07.330,994.06,994.05,-0.67,-1.08,0.00,2.09,0.11,9.54,0.00,0.00,0.00,0.00
2026-06-26 19:06:07.331,994.06,994.05,-0.67,-1.08,0.00,2.09,0.11,9.54,0.00,0.00,0.00,0.00
2026-06-26 19:06:07.338,994.06,994.05,-0.67,-1.08,0.00,2.09,0.11,9.54,0.00,0.00,0.00,0.00
2026-06-26 19:06:07.340,994.06,994.05,-0.67,-1.08,0.00,2.09,0.11,9.52,0.00,-0.00,-0.00,0.00
2026-06-26 19:06:07.342,994.06,994.05,-0.67,-1.08,0.00,2.09,0.11,9.52,0.00,-0.00,-0.00,0.00
2026-06-26 19:06:07.347,994.06,994.05,-0.67,-1.08,0.00,2.09,0.11,9.52,0.00,-0.00,-0.00,0.00
2026-06-26 19:06:07.391,994.06,994.06,-0.46,-0.90,0.00,2.07,0.10,9.53,0.00,-0.00,0.00,0.00
2026-06-26 19:06:07.397,994.06,994.06,-0.46,-0.90,0.00,2.07,0.10,9.53,0.00,-0.00,0.00,0.00
2026-06-26 19:06:07.400,994.06,994.06,-0.46,-0.90,0.00,2.09,0.12,9.53,-0.00,-0.00,0.00,0.00
2026-06-26 19:06:07.405,994.06,994.06,-0.46,-0.90,0.00,2.09,0.12,9.53,-0.00,-0.00,0.00,0.00
2026-06-26 19:06:07.448,994.06,994.06,-0.54,-0.98,0.00,2.10,0.12,9.54,0.00,-0.00,-0.00,0.00
2026-06-26 19:06:07.450,994.06,994.06,-0.54,-0.98,0.00,2.09,0.11,9.55,0.00,0.00,-0.00,0.00
2026-06-26 19:06:07.456,994.06,994.06,-0.54,-0.98,0.00,2.09,0.11,9.55,0.00,0.00,-0.00,0.00
2026-06-26 19:06:07.459,994.06,994.06,-0.54,-0.98,0.00,2.09,0.11,9.55,0.00,0.00,0.00,0.00
2026-06-26 19:06:07.460,994.06,994.06,-0.54,-0.98,0.00,2.08,0.12,9.55,0.00,0.00,0.00,0.00
2026-06-26 19:06:07.462,994.06,994.06,-0.54,-0.98,0.00,2.08,0.12,9.55,0.00,0.00,0.00,0.00
2026-06-26 19:06:07.463,994.06,994.06,-0.54,-0.98,0.00,2.08,0.12,9.55,0.00,0.00,0.00,0.00
2026-06-26 19:06:07.465,994.06,994.06,-0.54,-0.98,0.00,2.08,0.12,9.55,0.00,0.00,0.00,0.00
2026-06-26 19:06:07.468,994.06,994.06,-0.54,-0.98,0.00,2.08,0.12,9.55,0.00,0.00,0.00,0.00
2026-06-26 19:06:07.469,994.06,994.06,-0.54,-0.98,0.00,2.09,0.12,9.56,0.00,-0.00,0.00,0.00
2026-06-26 19:06:07.471,994.06,994.06,-0.54,-0.98,0.00,2.09,0.12,9.56,0.00,-0.00,0.00,0.00
2026-06-26 19:06:07.472,994.06,994.06,-0.54,-0.98,0.00,2.09,0.12,9.56,0.00,-0.00,0.00,0.00
2026-06-26 19:06:07.478,994.06,994.06,-0.54,-0.98,0.00,2.09,0.12,9.56,0.00,-0.00,0.00,0.00
2026-06-26 19:06:07.480,994.06,994.06,-0.54,-0.98,0.00,2.10,0.11,9.56,0.00,0.00,0.00,0.00
2026-06-26 19:06:07.487,994.06,994.06,-0.54,-0.98,0.00,2.10,0.11,9.56,0.00,0.00,0.00,0.00
2026-06-26 19:06:07.538,994.06,994.06,-0.54,-0.98,0.00,2.09,0.08,9.54,0.00,0.00,-0.00,0.00
2026-06-26 19:06:07.540,994.06,994.05,-0.81,-1.20,0.00,2.09,0.12,9.54,0.00,0.00,-0.00,0.00
2026-06-26 19:06:07.542,994.06,994.05,-0.81,-1.20,0.00,2.09,0.12,9.54,0.00,0.00,-0.00,0.00
2026-06-26 19:06:07.543,994.06,994.05,-0.81,-1.20,0.00,2.09,0.12,9.54,0.00,0.00,-0.00,0.00
2026-06-26 19:06:07.588,994.06,994.05,-1.01,-1.33,0.00,2.07,0.11,9.55,0.00,0.00,0.00,0.00
2026-06-26 19:06:07.590,994.06,994.05,-1.01,-1.33,0.00,2.09,0.11,9.54,0.00,0.00,0.00,0.00
2026-06-26 19:06:07.591,994.06,994.05,-1.01,-1.33,0.00,2.09,0.11,9.54,0.00,0.00,0.00,0.00
2026-06-26 19:06:07.595,994.06,994.05,-1.01,-1.33,0.00,2.09,0.11,9.54,0.00,0.00,0.00,0.00
2026-06-26 19:06:07.599,994.06,994.05,-1.01,-1.33,0.00,2.09,0.11,9.54,0.00,0.00,0.00,0.00
2026-06-26 19:06:07.600,994.06,994.05,-1.01,-1.33,0.00,2.09,0.11,9.54,0.00,0.00,0.00,0.00
2026-06-26 19:06:07.601,994.06,994.05,-1.01,-1.33,0.00,2.09,0.11,9.54,0.00,0.00,0.00,0.00
2026-06-26 19:06:07.603,994.06,994.05,-1.01,-1.33,0.00,2.09,0.11,9.54,0.00,0.00,0.00,0.00
2026-06-26 19:06:07.609,994.06,994.05,-1.01,-1.33,0.00,2.09,0.11,9.54,0.00,0.00,0.00,0.00
2026-06-26 19:06:07.612,994.06,994.05,-1.01,-1.33,0.00,2.07,0.10,9.55,0.00,0.00,0.00,0.00
2026-06-26 19:06:07.615,994.06,994.05,-1.01,-1.33,0.00,2.07,0.10,9.55,0.00,0.00,0.00,0.00
2026-06-26 19:06:07.619,994.06,994.05,-1.01,-1.33,0.00,2.07,0.10,9.55,0.00,-0.00,0.00,0.00
2026-06-26 19:06:07.620,994.06,994.05,-1.01,-1.33,0.00,2.08,0.09,9.56,0.00,-0.00,0.00,0.00
2026-06-26 19:06:07.622,994.06,994.05,-1.01,-1.33,0.00,2.08,0.09,9.56,0.00,-0.00,0.00,0.00
2026-06-26 19:06:07.627,994.06,994.05,-1.01,-1.33,0.00,2.08,0.09,9.56,0.00,-0.00,0.00,0.00
2026-06-26 19:06:07.629,994.06,994.05,-1.01,-1.33,0.00,2.10,0.07,9.55,0.00,-0.00,0.00,0.00
2026-06-26 19:06:07.631,994.06,994.05,-1.01,-1.33,0.00,2.10,0.07,9.55,0.00,-0.00,0.00,0.00
2026-06-26 19:06:07.632,994.06,994.05,-1.01,-1.33,0.00,2.10,0.07,9.55,0.00,-0.00,0.00,0.00
2026-06-26 19:06:07.638,994.06,994.05,-1.01,-1.33,0.00,2.10,0.07,9.55,0.00,-0.00,0.00,0.00
2026-06-26 19:06:07.679,994.06,994.06,-0.83,-1.21,0.00,2.09,0.12,9.55,0.00,-0.00,-0.00,0.00
2026-06-26 19:06:07.681,994.06,994.06,-0.83,-1.21,0.00,2.09,0.10,9.55,0.00,-0.00,-0.00,0.00
2026-06-26 19:06:07.686,994.06,994.06,-0.83,-1.21,0.00,2.09,0.10,9.55,0.00,-0.00,-0.00,0.00
2026-06-26 19:06:07.729,994.06,994.06,-0.91,-1.27,0.00,2.09,0.11,9.55,0.00,-0.00,0.00,0.00
2026-06-26 19:06:07.731,994.06,994.06,-0.91,-1.27,0.00,2.07,0.12,9.54,0.00,-0.00,0.00,0.00
2026-06-26 19:06:07.732,994.06,994.06,-0.91,-1.27,0.00,2.07,0.12,9.54,0.00,-0.00,0.00,0.00
2026-06-26 19:06:07.738,994.06,994.06,-0.91,-1.27,0.00,2.07,0.12,9.54,0.00,-0.00,0.00,0.00
2026-06-26 19:06:07.740,994.06,994.06,-0.91,-1.27,0.00,2.08,0.10,9.52,0.00,-0.00,-0.00,0.00
2026-06-26 19:06:07.741,994.06,994.06,-0.91,-1.27,0.00,2.08,0.10,9.52,0.00,-0.00,-0.00,0.00
2026-06-26 19:06:07.743,994.06,994.06,-0.91,-1.27,0.00,2.08,0.10,9.52,0.00,-0.00,-0.00,0.00
2026-06-26 19:06:07.748,994.06,994.06,-0.91,-1.27,0.00,2.08,0.10,9.52,0.00,-0.00,-0.00,0.00
2026-06-26 19:06:07.750,994.06,994.06,-0.91,-1.27,0.00,2.09,0.10,9.55,0.00,-0.00,0.00,0.00
2026-06-26 19:06:07.751,994.06,994.06,-0.91,-1.27,0.00,2.09,0.10,9.55,0.00,-0.00,0.00,0.00
2026-06-26 19:06:07.753,994.06,994.06,-0.91,-1.27,0.00,2.09,0.10,9.55,0.00,-0.00,0.00,0.00
2026-06-26 19:06:07.759,994.06,994.06,-0.91,-1.27,0.00,2.09,0.10,9.55,0.00,-0.00,0.00,0.00
2026-06-26 19:06:07.769,994.06,994.06,-0.91,-1.27,0.00,2.09,0.13,9.58,0.00,-0.00,0.00,0.00
2026-06-26 19:06:07.771,994.06,994.06,-0.91,-1.27,0.00,2.08,0.11,9.54,0.00,-0.00,-0.00,0.00
2026-06-26 19:06:07.773,994.06,994.06,-0.91,-1.27,0.00,2.08,0.11,9.54,0.00,-0.00,-0.00,0.00
2026-06-26 19:06:07.779,994.06,994.06,-0.91,-1.27,0.00,2.08,0.11,9.54,0.00,-0.00,-0.00,0.00
2026-06-26 19:06:07.822,994.06,994.05,-1.19,-1.44,0.00,2.07,0.09,9.54,0.00,0.00,0.00,0.00
2026-06-26 19:06:07.829,994.06,994.05,-1.19,-1.44,0.00,2.07,0.09,9.54,-0.00,0.00,-0.00,0.00
2026-06-26 19:06:07.875,994.06,994.05,-1.17,-1.43,0.00,2.09,0.10,9.54,0.00,-0.00,-0.00,0.00
2026-06-26 19:06:07.880,994.06,994.05,-1.17,-1.43,0.00,2.09,0.10,9.54,0.00,-0.00,0.00,0.00
2026-06-26 19:06:07.881,994.06,994.05,-1.17,-1.43,0.00,2.08,0.11,9.54,0.00,-0.00,0.00,0.00
2026-06-26 19:06:07.884,994.06,994.05,-1.17,-1.43,0.00,2.08,0.11,9.54,0.00,-0.00,0.00,0.00
2026-06-26 19:06:07.891,994.06,994.05,-1.17,-1.43,0.00,2.08,0.11,9.54,0.00,0.00,0.00,0.00
2026-06-26 19:06:07.893,994.06,994.05,-1.17,-1.43,0.00,2.09,0.11,9.53,0.00,0.00,0.00,0.00
2026-06-26 19:06:07.899,994.06,994.05,-1.17,-1.43,0.00,2.09,0.11,9.53,0.00,0.00,0.00,0.00
2026-06-26 19:06:07.900,994.06,994.05,-1.17,-1.43,0.00,2.11,0.11,9.53,0.00,0.00,-0.00,0.00
2026-06-26 19:06:07.902,994.06,994.05,-1.17,-1.43,0.00,2.11,0.11,9.53,0.00,0.00,-0.00,0.00
2026-06-26 19:06:07.904,994.06,994.05,-1.17,-1.43,0.00,2.11,0.11,9.53,0.00,0.00,-0.00,0.00
2026-06-26 19:06:07.910,994.06,994.05,-1.17,-1.43,0.00,2.11,0.11,9.53,0.00,0.00,-0.00,0.00
2026-06-26 19:06:07.911,994.06,994.05,-1.17,-1.43,0.00,2.10,0.12,9.54,0.00,0.00,-0.00,0.00
2026-06-26 19:06:07.913,994.06,994.05,-1.17,-1.43,0.00,2.10,0.12,9.54,0.00,0.00,-0.00,0.00
2026-06-26 19:06:07.932,994.06,994.05,-1.17,-1.43,0.00,2.08,0.13,9.57,-0.00,-0.00,0.00,0.00
2026-06-26 19:06:08.016,994.07,994.05,-1.81,-1.78,0.00,2.07,0.10,9.54,0.00,0.00,-0.00,0.00
2026-06-26 19:06:08.020,994.07,994.05,-1.81,-1.78,0.00,2.07,0.10,9.54,0.00,-0.00,0.00,0.00
2026-06-26 19:06:08.021,994.07,994.05,-1.81,-1.78,0.00,2.09,0.10,9.55,0.00,-0.00,0.00,0.00
2026-06-26 19:06:08.023,994.07,994.05,-1.81,-1.78,0.00,2.09,0.10,9.55,0.00,-0.00,0.00,0.00
2026-06-26 19:06:08.028,994.07,994.05,-1.81,-1.78,0.00,2.09,0.10,9.55,0.00,-0.00,0.00,0.00
2026-06-26 19:06:08.039,994.07,994.05,-1.81,-1.78,0.00,2.09,0.10,9.56,0.00,0.00,0.00,0.00
2026-06-26 19:06:08.041,994.07,994.05,-1.81,-1.78,0.00,2.09,0.11,9.55,0.00,0.00,0.00,0.00
2026-06-26 19:06:08.043,994.07,994.05,-1.81,-1.78,0.00,2.09,0.11,9.55,0.00,0.00,0.00,0.00
2026-06-26 19:06:08.048,994.07,994.05,-1.81,-1.78,0.00,2.09,0.11,9.55,0.00,0.00,0.00,0.00
2026-06-26 19:06:08.050,994.07,994.05,-1.81,-1.78,0.00,2.09,0.10,9.56,0.00,-0.00,0.00,0.00
2026-06-26 19:06:08.052,994.07,994.05,-1.81,-1.78,0.00,2.09,0.10,9.56,0.00,-0.00,0.00,0.00
2026-06-26 19:06:08.053,994.07,994.05,-1.81,-1.78,0.00,2.09,0.10,9.56,0.00,-0.00,0.00,0.00
2026-06-26 19:06:08.059,994.07,994.05,-1.81,-1.78,0.00,2.09,0.10,9.56,0.00,-0.00,0.00,0.00
2026-06-26 19:06:08.063,994.07,994.05,-1.81,-1.78,0.00,2.08,0.11,9.55,0.00,-0.00,-0.00,0.00
2026-06-26 19:06:08.065,994.07,994.05,-1.81,-1.78,0.00,2.08,0.11,9.55,0.00,-0.00,-0.00,0.00
2026-06-26 19:06:08.066,994.07,994.05,-1.81,-1.78,0.00,2.08,0.11,9.55,0.00,-0.00,-0.00,0.00
2026-06-26 19:06:08.070,994.07,994.05,-1.81,-1.78,0.00,2.08,0.11,9.55,0.00,-0.00,0.00,0.00
2026-06-26 19:06:08.071,994.07,994.05,-1.81,-1.78,0.00,2.09,0.10,9.56,0.00,-0.00,0.00,0.00
2026-06-26 19:06:08.073,994.07,994.05,-1.81,-1.78,0.00,2.09,0.10,9.56,0.00,-0.00,0.00,0.00
2026-06-26 19:06:08.080,994.07,994.05,-1.81,-1.78,0.00,2.09,0.10,9.56,0.00,-0.00,0.00,0.00
2026-06-26 19:06:08.165,994.07,994.06,-1.39,-1.56,0.00,2.09,0.11,9.54,0.00,-0.00,0.00,0.00
2026-06-26 19:06:08.168,994.07,994.06,-1.39,-1.56,0.00,2.09,0.11,9.54,0.00,-0.00,0.00,0.00
2026-06-26 19:06:08.170,994.07,994.06,-1.39,-1.56,0.00,2.07,0.10,9.54,0.00,-0.00,0.00,0.00
2026-06-26 19:06:08.172,994.07,994.06,-1.39,-1.56,0.00,2.07,0.10,9.54,0.00,-0.00,0.00,0.00
2026-06-26 19:06:08.174,994.07,994.06,-1.39,-1.56,0.00,2.07,0.10,9.54,0.00,-0.00,0.00,0.00
2026-06-26 19:06:08.180,994.07,994.06,-1.39,-1.56,0.00,2.07,0.10,9.54,0.00,-0.00,0.00,0.00
2026-06-26 19:06:08.182,994.07,994.06,-1.39,-1.56,0.00,2.09,0.11,9.57,-0.00,0.00,-0.00,0.00
2026-06-26 19:06:08.187,994.07,994.06,-1.39,-1.56,0.00,2.09,0.11,9.57,-0.00,0.00,-0.00,0.00
2026-06-26 19:06:08.190,994.07,994.06,-1.39,-1.56,0.00,2.09,0.11,9.57,0.00,-0.00,0.00,0.00
2026-06-26 19:06:08.192,994.07,994.06,-1.39,-1.56,0.00,2.11,0.10,9.52,0.00,-0.00,0.00,0.00
2026-06-26 19:06:08.194,994.07,994.06,-1.39,-1.56,0.00,2.11,0.10,9.52,0.00,-0.00,0.00,0.00
2026-06-26 19:06:08.199,994.07,994.06,-1.39,-1.56,0.00,2.11,0.10,9.52,0.00,-0.00,0.00,0.00
2026-06-26 19:06:08.201,994.07,994.06,-1.39,-1.56,0.00,2.08,0.11,9.53,0.00,-0.00,0.00,0.00
2026-06-26 19:06:08.203,994.07,994.06,-1.39,-1.56,0.00,2.08,0.11,9.53,0.00,-0.00,0.00,0.00
2026-06-26 19:06:08.206,994.07,994.06,-1.39,-1.56,0.00,2.08,0.11,9.53,0.00,-0.00,0.00,0.00
2026-06-26 19:06:08.211,994.07,994.06,-1.39,-1.56,0.00,2.08,0.11,9.53,-0.00,0.00,-0.00,0.00
2026-06-26 19:06:08.213,994.07,994.06,-1.39,-1.56,0.00,2.11,0.11,9.55,-0.00,0.00,-0.00,0.00
2026-06-26 19:06:08.215,994.07,994.06,-1.39,-1.56,0.00,2.11,0.11,9.55,-0.00,0.00,-0.00,0.00
2026-06-26 19:06:08.216,994.07,994.06,-1.39,-1.56,0.00,2.11,0.11,9.55,-0.00,0.00,-0.00,0.00
2026-06-26 19:06:08.220,994.07,994.06,-1.39,-1.56,0.00,2.11,0.11,9.55,-0.00,0.00,0.00,0.00
2026-06-26 19:06:08.223,994.07,994.06,-1.39,-1.56,0.00,2.09,0.12,9.54,-0.00,0.00,0.00,0.00
2026-06-26 19:06:08.261,994.07,994.06,-1.24,-1.48,0.00,2.08,0.09,9.53,0.00,0.00,-0.00,0.00
2026-06-26 19:06:08.263,994.07,994.06,-1.24,-1.48,0.00,2.08,0.09,9.53,0.00,0.00,-0.00,0.00
2026-06-26 19:06:08.264,994.07,994.06,-1.24,-1.48,0.00,2.08,0.09,9.53,0.00,0.00,-0.00,0.00
2026-06-26 19:06:08.312,994.07,994.06,-0.96,-1.30,0.00,2.09,0.11,9.55,0.00,-0.00,-0.00,0.00
2026-06-26 19:06:08.316,994.07,994.06,-0.96,-1.30,0.00,2.09,0.13,9.54,0.00,-0.00,-0.00,0.00
2026-06-26 19:06:08.319,994.07,994.06,-0.96,-1.30,0.00,2.09,0.13,9.54,0.00,-0.00,-0.00,0.00
2026-06-26 19:06:08.321,994.07,994.06,-0.96,-1.30,0.00,2.09,0.12,9.55,0.00,0.00,-0.00,0.00
2026-06-26 19:06:08.322,994.07,994.06,-0.96,-1.30,0.00,2.09,0.12,9.55,0.00,0.00,-0.00,0.00
2026-06-26 19:06:08.324,994.07,994.06,-0.96,-1.30,0.00,2.09,0.12,9.55,0.00,0.00,-0.00,0.00
2026-06-26 19:06:08.330,994.07,994.06,-0.96,-1.30,0.00,2.09,0.12,9.55,0.00,0.00,-0.00,0.00
2026-06-26 19:06:08.331,994.07,994.06,-0.96,-1.30,0.00,2.08,0.10,9.53,0.00,-0.00,-0.00,0.00
2026-06-26 19:06:08.333,994.07,994.06,-0.96,-1.30,0.00,2.08,0.10,9.53,0.00,-0.00,-0.00,0.00
2026-06-26 19:06:08.335,994.07,994.06,-0.96,-1.30,0.00,2.08,0.10,9.53,0.00,-0.00,-0.00,0.00
2026-06-26 19:06:08.340,994.07,994.06,-0.96,-1.30,0.00,2.08,0.10,9.53,-0.00,0.00,-0.00,0.00
2026-06-26 19:06:08.342,994.07,994.06,-0.96,-1.30,0.00,2.09,0.11,9.53,-0.00,0.00,-0.00,0.00
2026-06-26 19:06:08.343,994.07,994.06,-0.96,-1.30,0.00,2.09,0.11,9.53,-0.00,0.00,-0.00,0.00
2026-06-26 19:06:08.345,994.07,994.06,-0.96,-1.30,0.00,2.09,0.11,9.53,-0.00,0.00,-0.00,0.00
2026-06-26 19:06:08.350,994.07,994.06,-0.96,-1.30,0.00,2.09,0.11,9.53,-0.00,0.00,-0.00,0.00
2026-06-26 19:06:08.351,994.07,994.06,-0.96,-1.30,0.00,2.09,0.09,9.55,-0.00,-0.00,0.00,0.00
2026-06-26 19:06:08.353,994.07,994.06,-0.96,-1.30,0.00,2.09,0.09,9.55,-0.00,-0.00,0.00,0.00
2026-06-26 19:06:08.358,994.07,994.06,-0.96,-1.30,0.00,2.09,0.09,9.55,-0.00,-0.00,0.00,0.00
2026-06-26 19:06:08.361,994.07,994.06,-0.96,-1.30,0.00,2.09,0.09,9.55,0.00,0.00,0.00,0.00
2026-06-26 19:06:08.403,994.07,994.05,-1.23,-1.47,0.00,2.08,0.11,9.52,0.00,0.00,-0.00,0.00
2026-06-26 19:06:08.407,994.07,994.05,-1.23,-1.47,0.00,2.08,0.11,9.52,0.00,0.00,-0.00,0.00
2026-06-26 19:06:08.450,994.07,994.05,-1.40,-1.56,0.00,2.09,0.11,9.52,-0.00,-0.00,-0.00,0.00
2026-06-26 19:06:08.452,994.07,994.05,-1.40,-1.56,0.00,2.10,0.10,9.55,0.00,0.00,0.00,0.00
2026-06-26 19:06:08.453,994.07,994.05,-1.40,-1.56,0.00,2.10,0.10,9.55,0.00,0.00,0.00,0.00
2026-06-26 19:06:08.456,994.07,994.05,-1.40,-1.56,0.00,2.10,0.10,9.55,0.00,0.00,0.00,0.00
2026-06-26 19:06:08.461,994.07,994.05,-1.40,-1.56,0.00,2.10,0.10,9.55,-0.00,0.00,0.00,0.00
2026-06-26 19:06:08.462,994.07,994.05,-1.40,-1.56,0.00,2.09,0.10,9.55,-0.00,0.00,0.00,0.00
2026-06-26 19:06:08.464,994.07,994.05,-1.40,-1.56,0.00,2.09,0.10,9.55,-0.00,0.00,0.00,0.00
2026-06-26 19:06:08.465,994.07,994.05,-1.40,-1.56,0.00,2.09,0.10,9.55,-0.00,0.00,0.00,0.00
2026-06-26 19:06:08.467,994.07,994.05,-1.40,-1.56,0.00,2.09,0.10,9.55,-0.00,0.00,0.00,0.00
2026-06-26 19:06:08.468,994.07,994.05,-1.40,-1.56,0.00,2.09,0.10,9.55,-0.00,0.00,0.00,0.00
2026-06-26 19:06:08.471,994.07,994.05,-1.40,-1.56,0.00,2.09,0.10,9.55,0.00,0.00,-0.00,0.00
2026-06-26 19:06:08.472,994.07,994.05,-1.40,-1.56,0.00,2.10,0.11,9.53,0.00,0.00,-0.00,0.00
2026-06-26 19:06:08.480,994.07,994.05,-1.40,-1.56,0.00,2.10,0.11,9.53,0.00,0.00,-0.00,0.00
2026-06-26 19:06:08.489,994.07,994.05,-1.40,-1.56,0.00,2.07,0.11,9.54,0.00,0.00,-0.00,0.00
2026-06-26 19:06:08.491,994.07,994.05,-1.40,-1.56,0.00,2.06,0.10,9.54,0.00,0.00,-0.00,0.00
2026-06-26 19:06:08.493,994.07,994.05,-1.40,-1.56,0.00,2.06,0.10,9.54,0.00,0.00,-0.00,0.00
2026-06-26 19:06:08.494,994.07,994.05,-1.40,-1.56,0.00,2.06,0.10,9.54,0.00,0.00,-0.00,0.00
2026-06-26 19:06:08.500,994.07,994.05,-1.40,-1.56,0.00,2.06,0.10,9.54,0.00,0.00,-0.00,0.00
2026-06-26 19:06:08.501,994.07,994.05,-1.40,-1.56,0.00,2.09,0.09,9.51,0.00,-0.00,-0.00,0.00
2026-06-26 19:06:08.544,994.07,994.05,-1.55,-1.65,0.00,2.09,0.10,9.52,-0.00,0.00,0.00,0.00
2026-06-26 19:06:08.547,994.07,994.05,-1.55,-1.65,0.00,2.09,0.10,9.52,-0.00,0.00,0.00,0.00
2026-06-26 19:06:08.592,994.06,994.05,-1.14,-1.41,0.00,2.09,0.11,9.53,0.00,0.00,0.00,0.00
2026-06-26 19:06:08.593,994.06,994.05,-1.14,-1.41,0.00,2.09,0.11,9.53,0.00,0.00,0.00,0.00
2026-06-26 19:06:08.595,994.06,994.05,-1.14,-1.41,0.00,2.09,0.11,9.53,0.00,0.00,0.00,0.00
2026-06-26 19:06:08.600,994.06,994.05,-1.14,-1.41,0.00,2.09,0.11,9.53,0.00,0.00,0.00,0.00
2026-06-26 19:06:08.603,994.06,994.05,-1.14,-1.41,0.00,2.10,0.10,9.54,-0.00,0.00,0.00,0.00
2026-06-26 19:06:08.607,994.06,994.05,-1.14,-1.41,0.00,2.10,0.10,9.54,-0.00,0.00,0.00,0.00
2026-06-26 19:06:08.611,994.06,994.05,-1.14,-1.41,0.00,2.10,0.10,9.54,0.00,0.00,-0.00,0.00
2026-06-26 19:06:08.613,994.06,994.05,-1.14,-1.41,0.00,2.10,0.09,9.55,0.00,0.00,-0.00,0.00
2026-06-26 19:06:08.615,994.06,994.05,-1.14,-1.41,0.00,2.10,0.09,9.55,0.00,0.00,-0.00,0.00
2026-06-26 19:06:08.616,994.06,994.05,-1.14,-1.41,0.00,2.10,0.09,9.55,0.00,0.00,-0.00,0.00
2026-06-26 19:06:08.618,994.06,994.05,-1.14,-1.41,0.00,2.10,0.09,9.55,0.00,0.00,-0.00,0.00
2026-06-26 19:06:08.621,994.06,994.05,-1.14,-1.41,0.00,2.10,0.09,9.55,0.00,0.00,0.00,0.00
2026-06-26 19:06:08.623,994.06,994.05,-1.14,-1.41,0.00,2.08,0.10,9.55,0.00,0.00,0.00,0.00
2026-06-26 19:06:08.625,994.06,994.05,-1.14,-1.41,0.00,2.08,0.10,9.55,0.00,0.00,0.00,0.00
2026-06-26 19:06:08.632,994.06,994.05,-1.14,-1.41,0.00,2.08,0.10,9.55,0.00,0.00,0.00,0.00
2026-06-26 19:06:08.634,994.06,994.05,-1.14,-1.41,0.00,2.09,0.11,9.53,0.00,-0.00,0.00,0.00
2026-06-26 19:06:08.638,994.06,994.05,-1.14,-1.41,0.00,2.09,0.11,9.53,0.00,-0.00,0.00,0.00
2026-06-26 19:06:08.641,994.06,994.05,-1.14,-1.41,0.00,2.09,0.11,9.53,0.00,0.00,-0.00,0.00
2026-06-26 19:06:08.643,994.06,994.05,-1.14,-1.41,0.00,2.09,0.11,9.53,0.00,0.00,-0.00,0.00
2026-06-26 19:06:08.682,994.06,994.05,-1.16,-1.42,0.00,2.10,0.10,9.56,0.00,0.00,-0.00,0.00
2026-06-26 19:06:08.683,994.06,994.05,-1.16,-1.42,0.00,2.10,0.10,9.56,0.00,0.00,-0.00,0.00
2026-06-26 19:06:08.685,994.06,994.05,-1.16,-1.42,0.00,2.10,0.10,9.56,0.00,0.00,-0.00,0.00
2026-06-26 19:06:08.691,994.06,994.05,-1.16,-1.42,0.00,2.10,0.10,9.56,0.00,0.00,-0.00,0.00
2026-06-26 19:06:08.731,994.06,994.05,-1.15,-1.42,0.00,2.08,0.13,9.56,0.00,0.00,0.00,0.00
2026-06-26 19:06:08.733,994.06,994.05,-1.15,-1.42,0.00,2.10,0.10,9.55,0.00,0.00,0.00,0.00
2026-06-26 19:06:08.735,994.06,994.05,-1.15,-1.42,0.00,2.10,0.10,9.55,0.00,0.00,0.00,0.00
2026-06-26 19:06:08.741,994.06,994.05,-1.15,-1.42,0.00,2.10,0.10,9.55,0.00,-0.00,-0.00,0.00
2026-06-26 19:06:08.748,994.06,994.05,-1.15,-1.42,0.00,2.09,0.12,9.55,0.00,-0.00,-0.00,0.00
2026-06-26 19:06:08.752,994.06,994.05,-1.15,-1.42,0.00,2.09,0.12,9.55,0.00,0.00,-0.00,0.00
2026-06-26 19:06:08.755,994.06,994.05,-1.15,-1.42,0.00,2.08,0.12,9.55,0.00,0.00,-0.00,0.00
2026-06-26 19:06:08.761,994.06,994.05,-1.15,-1.42,0.00,2.08,0.12,9.55,0.00,0.00,-0.00,0.00
2026-06-26 19:06:08.763,994.06,994.05,-1.15,-1.42,0.00,2.08,0.10,9.56,0.00,-0.00,0.00,0.00
2026-06-26 19:06:08.764,994.06,994.05,-1.15,-1.42,0.00,2.08,0.10,9.56,0.00,-0.00,0.00,0.00
2026-06-26 19:06:08.766,994.06,994.05,-1.15,-1.42,0.00,2.08,0.10,9.56,0.00,-0.00,0.00,0.00
2026-06-26 19:06:08.767,994.06,994.05,-1.15,-1.42,0.00,2.08,0.10,9.56,0.00,-0.00,0.00,0.00
2026-06-26 19:06:08.771,994.06,994.05,-1.15,-1.42,0.00,2.08,0.10,9.56,0.00,-0.00,0.00,0.00
2026-06-26 19:06:08.772,994.06,994.05,-1.15,-1.42,0.00,2.09,0.11,9.55,0.00,-0.00,-0.00,0.00
2026-06-26 19:06:08.774,994.06,994.05,-1.15,-1.42,0.00,2.09,0.11,9.55,0.00,-0.00,-0.00,0.00
2026-06-26 19:06:08.779,994.06,994.05,-1.15,-1.42,0.00,2.09,0.11,9.55,0.00,-0.00,-0.00,0.00
2026-06-26 19:06:08.782,994.06,994.05,-1.15,-1.42,0.00,2.09,0.11,9.55,0.00,-0.00,0.00,0.00
2026-06-26 19:06:08.824,994.06,994.05,-1.17,-1.43,0.00,2.09,0.12,9.54,0.00,-0.00,0.00,0.00
2026-06-26 19:06:08.831,994.06,994.05,-1.17,-1.43,0.00,2.09,0.12,9.54,0.00,-0.00,0.00,0.00
2026-06-26 19:06:08.874,994.06,994.05,-0.85,-1.22,0.00,2.09,0.12,9.57,0.00,-0.00,-0.00,0.00
2026-06-26 19:06:08.880,994.06,994.05,-0.85,-1.22,0.00,2.09,0.12,9.57,0.00,-0.00,-0.00,0.00
2026-06-26 19:06:08.882,994.06,994.05,-0.85,-1.22,0.00,2.09,0.10,9.56,0.00,-0.00,-0.00,0.00
2026-06-26 19:06:08.884,994.06,994.05,-0.85,-1.22,0.00,2.09,0.10,9.56,0.00,-0.00,-0.00,0.00
2026-06-26 19:06:08.885,994.06,994.05,-0.85,-1.22,0.00,2.09,0.10,9.56,0.00,-0.00,-0.00,0.00
2026-06-26 19:06:08.891,994.06,994.05,-0.85,-1.22,0.00,2.09,0.10,9.56,0.00,-0.00,-0.00,0.00
2026-06-26 19:06:08.893,994.06,994.05,-0.85,-1.22,0.00,2.08,0.09,9.53,0.00,0.00,0.00,0.00
2026-06-26 19:06:08.895,994.06,994.05,-0.85,-1.22,0.00,2.08,0.09,9.53,0.00,0.00,0.00,0.00
2026-06-26 19:06:08.899,994.06,994.05,-0.85,-1.22,0.00,2.08,0.09,9.53,0.00,0.00,0.00,0.00
2026-06-26 19:06:08.903,994.06,994.05,-0.85,-1.22,0.00,2.10,0.11,9.54,0.00,0.00,0.00,0.00
2026-06-26 19:06:08.905,994.06,994.05,-0.85,-1.22,0.00,2.10,0.11,9.54,0.00,0.00,0.00,0.00
2026-06-26 19:06:08.911,994.06,994.05,-0.85,-1.22,0.00,2.10,0.11,9.54,0.00,0.00,0.00,0.00
2026-06-26 19:06:08.913,994.06,994.05,-0.85,-1.22,0.00,2.09,0.11,9.54,0.00,-0.00,0.00,0.00
2026-06-26 19:06:08.914,994.06,994.05,-0.85,-1.22,0.00,2.09,0.11,9.54,0.00,-0.00,0.00,0.00
2026-06-26 19:06:08.916,994.06,994.05,-0.85,-1.22,0.00,2.09,0.11,9.54,0.00,-0.00,0.00,0.00
2026-06-26 19:06:08.918,994.06,994.05,-0.85,-1.22,0.00,2.09,0.11,9.54,0.00,-0.00,0.00,0.00
2026-06-26 19:06:08.919,994.06,994.05,-0.85,-1.22,0.00,2.09,0.11,9.54,0.00,-0.00,0.00,0.00
2026-06-26 19:06:08.922,994.06,994.05,-0.85,-1.22,0.00,2.09,0.11,9.54,0.00,-0.00,0.00,0.00
2026-06-26 19:06:08.925,994.06,994.05,-0.85,-1.22,0.00,2.08,0.11,9.55,0.00,-0.00,0.00,0.00
2026-06-26 19:06:08.971,994.06,994.05,-1.10,-1.39,0.00,2.06,0.11,9.53,0.00,-0.00,-0.00,0.00
2026-06-26 19:06:08.973,994.06,994.05,-1.10,-1.39,0.00,2.09,0.13,9.54,0.00,-0.00,0.00,0.00
2026-06-26 19:06:09.015,994.06,994.05,-1.44,-1.59,0.00,2.08,0.09,9.54,0.00,0.00,0.00,0.00
2026-06-26 19:06:09.018,994.06,994.05,-1.44,-1.59,0.00,2.08,0.09,9.54,0.00,0.00,0.00,0.00
2026-06-26 19:06:09.022,994.06,994.05,-1.44,-1.59,0.00,2.08,0.09,9.54,0.00,0.00,0.00,0.00
2026-06-26 19:06:09.025,994.06,994.05,-1.44,-1.59,0.00,2.08,0.11,9.55,0.00,0.00,0.00,0.00
2026-06-26 19:06:09.031,994.06,994.05,-1.44,-1.59,0.00,2.08,0.11,9.55,0.00,0.00,0.00,0.00
2026-06-26 19:06:09.033,994.06,994.05,-1.44,-1.59,0.00,2.07,0.09,9.57,0.00,-0.00,0.00,0.00
2026-06-26 19:06:09.034,994.06,994.05,-1.44,-1.59,0.00,2.07,0.09,9.57,0.00,-0.00,0.00,0.00
2026-06-26 19:06:09.041,994.06,994.05,-1.44,-1.59,0.00,2.07,0.09,9.57,0.00,-0.00,0.00,0.00
2026-06-26 19:06:09.044,994.06,994.05,-1.44,-1.59,0.00,2.08,0.12,9.53,-0.00,0.00,0.00,0.00
2026-06-26 19:06:09.046,994.06,994.05,-1.44,-1.59,0.00,2.08,0.12,9.53,-0.00,0.00,0.00,0.00
2026-06-26 19:06:09.052,994.06,994.05,-1.44,-1.59,0.00,2.08,0.12,9.53,0.00,0.00,-0.00,0.00
2026-06-26 19:06:09.054,994.06,994.05,-1.44,-1.59,0.00,2.10,0.10,9.55,0.00,0.00,-0.00,0.00
2026-06-26 19:06:09.059,994.06,994.05,-1.44,-1.59,0.00,2.10,0.10,9.55,0.00,0.00,-0.00,0.00
2026-06-26 19:06:09.063,994.06,994.05,-1.44,-1.59,0.00,2.10,0.10,9.55,-0.00,0.00,0.00,0.00
2026-06-26 19:06:09.064,994.06,994.05,-1.44,-1.59,0.00,2.08,0.10,9.54,-0.00,0.00,0.00,0.00
2026-06-26 19:06:09.066,994.06,994.05,-1.44,-1.59,0.00,2.08,0.10,9.54,-0.00,0.00,0.00,0.00
2026-06-26 19:06:09.113,994.06,994.05,-1.10,-1.39,0.00,2.09,0.12,9.54,0.00,-0.00,0.00,0.00
2026-06-26 19:06:09.153,994.06,994.05,-1.16,-1.43,0.00,2.09,0.09,9.58,0.00,-0.00,0.00,0.00
2026-06-26 19:06:09.155,994.06,994.05,-1.16,-1.43,0.00,2.09,0.09,9.58,0.00,-0.00,0.00,0.00
2026-06-26 19:06:09.162,994.06,994.05,-1.16,-1.43,0.00,2.09,0.09,9.58,0.00,-0.00,0.00,0.00
2026-06-26 19:06:09.163,994.06,994.05,-1.16,-1.43,0.00,2.08,0.12,9.55,0.00,0.00,0.00,0.00
2026-06-26 19:06:09.165,994.06,994.05,-1.16,-1.43,0.00,2.08,0.12,9.55,0.00,0.00,0.00,0.00
2026-06-26 19:06:09.167,994.06,994.05,-1.16,-1.43,0.00,2.08,0.12,9.55,0.00,0.00,0.00,0.00
2026-06-26 19:06:09.169,994.06,994.05,-1.16,-1.43,0.00,2.08,0.12,9.55,0.00,0.00,0.00,0.00
2026-06-26 19:06:09.172,994.06,994.05,-1.16,-1.43,0.00,2.08,0.12,9.55,0.00,0.00,0.00,0.00
2026-06-26 19:06:09.173,994.06,994.05,-1.16,-1.43,0.00,2.08,0.12,9.56,0.00,-0.00,0.00,0.00
2026-06-26 19:06:09.175,994.06,994.05,-1.16,-1.43,0.00,2.08,0.12,9.56,0.00,-0.00,0.00,0.00
2026-06-26 19:06:09.176,994.06,994.05,-1.16,-1.43,0.00,2.08,0.12,9.56,0.00,-0.00,0.00,0.00
2026-06-26 19:06:09.182,994.06,994.05,-1.16,-1.43,0.00,2.08,0.12,9.56,0.00,-0.00,0.00,0.00
2026-06-26 19:06:09.183,994.06,994.05,-1.16,-1.43,0.00,2.09,0.11,9.56,-0.00,-0.00,0.00,0.00
2026-06-26 19:06:09.185,994.06,994.05,-1.16,-1.43,0.00,2.09,0.11,9.56,-0.00,-0.00,0.00,0.00
2026-06-26 19:06:09.186,994.06,994.05,-1.16,-1.43,0.00,2.09,0.11,9.56,-0.00,-0.00,0.00,0.00
2026-06-26 19:06:09.192,994.06,994.05,-1.16,-1.43,0.00,2.09,0.11,9.56,-0.00,-0.00,0.00,0.00
2026-06-26 19:06:09.194,994.06,994.05,-1.16,-1.43,0.00,2.09,0.11,9.53,0.00,0.00,-0.00,0.00
2026-06-26 19:06:09.195,994.06,994.05,-1.16,-1.43,0.00,2.09,0.11,9.53,0.00,0.00,-0.00,0.00
2026-06-26 19:06:09.199,994.06,994.05,-1.16,-1.43,0.00,2.09,0.11,9.53,0.00,0.00,-0.00,0.00
2026-06-26 19:06:09.202,994.06,994.05,-1.16,-1.43,0.00,2.09,0.11,9.53,-0.00,0.00,-0.00,0.00
2026-06-26 19:06:09.204,994.06,994.05,-1.16,-1.43,0.00,2.08,0.10,9.54,-0.00,0.00,-0.00,0.00
2026-06-26 19:06:09.208,994.06,994.05,-1.16,-1.43,0.00,2.08,0.10,9.54,-0.00,0.00,-0.00,0.00
2026-06-26 19:06:09.253,994.06,994.05,-1.07,-1.37,0.00,2.09,0.11,9.54,-0.00,0.00,0.00,0.00
2026-06-26 19:06:09.293,994.07,994.05,-1.17,-1.43,0.00,2.09,0.11,9.57,-0.00,0.00,0.00,0.00
2026-06-26 19:06:09.295,994.07,994.05,-1.17,-1.43,0.00,2.09,0.12,9.55,-0.00,0.00,0.00,0.00
2026-06-26 19:06:09.296,994.07,994.05,-1.17,-1.43,0.00,2.09,0.12,9.55,-0.00,0.00,0.00,0.00
2026-06-26 19:06:09.302,994.07,994.05,-1.17,-1.43,0.00,2.09,0.12,9.55,0.00,0.00,-0.00,0.00
2026-06-26 19:06:09.304,994.07,994.05,-1.17,-1.43,0.00,2.10,0.11,9.55,0.00,0.00,-0.00,0.00
2026-06-26 19:06:09.306,994.07,994.05,-1.17,-1.43,0.00,2.10,0.11,9.55,0.00,0.00,-0.00,0.00
2026-06-26 19:06:09.309,994.07,994.05,-1.17,-1.43,0.00,2.10,0.11,9.55,0.00,0.00,-0.00,0.00
2026-06-26 19:06:09.313,994.07,994.05,-1.17,-1.43,0.00,2.10,0.11,9.55,-0.00,-0.00,0.00,0.00
2026-06-26 19:06:09.314,994.07,994.05,-1.17,-1.43,0.00,2.09,0.08,9.55,-0.00,-0.00,0.00,0.00
2026-06-26 19:06:09.316,994.07,994.05,-1.17,-1.43,0.00,2.09,0.08,9.55,-0.00,-0.00,0.00,0.00
2026-06-26 19:06:09.317,994.07,994.05,-1.17,-1.43,0.00,2.09,0.08,9.55,-0.00,-0.00,0.00,0.00
2026-06-26 19:06:09.319,994.07,994.05,-1.17,-1.43,0.00,2.09,0.08,9.55,-0.00,-0.00,0.00,0.00
2026-06-26 19:06:09.322,994.07,994.05,-1.17,-1.43,0.00,2.09,0.08,9.55,-0.00,-0.00,0.00,0.00
2026-06-26 19:06:09.324,994.07,994.05,-1.17,-1.43,0.00,2.10,0.10,9.56,0.00,0.00,-0.00,0.00
2026-06-26 19:06:09.325,994.07,994.05,-1.17,-1.43,0.00,2.10,0.10,9.56,0.00,0.00,-0.00,0.00
2026-06-26 19:06:09.330,994.07,994.05,-1.17,-1.43,0.00,2.10,0.10,9.56,0.00,0.00,-0.00,0.00
2026-06-26 19:06:09.333,994.07,994.05,-1.17,-1.43,0.00,2.10,0.10,9.56,-0.00,-0.00,0.00,0.00
2026-06-26 19:06:09.335,994.07,994.05,-1.17,-1.43,0.00,2.09,0.13,9.55,-0.00,-0.00,0.00,0.00
2026-06-26 19:06:09.339,994.07,994.05,-1.17,-1.43,0.00,2.09,0.13,9.55,-0.00,-0.00,0.00,0.00
2026-06-26 19:06:09.343,994.07,994.05,-1.17,-1.43,0.00,2.09,0.13,9.55,-0.00,0.00,0.00,0.00
2026-06-26 19:06:09.344,994.07,994.05,-1.17,-1.43,0.00,2.08,0.11,9.51,-0.00,0.00,0.00,0.00
2026-06-26 19:06:09.346,994.07,994.05,-1.17,-1.43,0.00,2.08,0.11,9.51,-0.00,0.00,0.00,0.00
2026-06-26 19:06:09.349,994.07,994.05,-1.17,-1.43,0.00,2.08,0.11,9.51,-0.00,0.00,0.00,0.00
2026-06-26 19:06:09.433,994.06,994.06,-0.66,-1.07,0.00,2.09,0.11,9.55,-0.00,0.00,0.00,0.00
2026-06-26 19:06:09.434,994.06,994.06,-0.66,-1.07,0.00,2.09,0.11,9.56,-0.00,0.00,0.00,0.00
2026-06-26 19:06:09.436,994.06,994.06,-0.66,-1.07,0.00,2.09,0.11,9.56,-0.00,0.00,0.00,0.00
2026-06-26 19:06:09.442,994.06,994.06,-0.66,-1.07,0.00,2.09,0.11,9.56,-0.00,0.00,0.00,0.00
2026-06-26 19:06:09.444,994.06,994.06,-0.66,-1.07,0.00,2.08,0.12,9.52,-0.00,-0.00,0.00,0.00
2026-06-26 19:06:09.446,994.06,994.06,-0.66,-1.07,0.00,2.08,0.12,9.52,-0.00,-0.00,0.00,0.00
2026-06-26 19:06:09.447,994.06,994.06,-0.66,-1.07,0.00,2.08,0.12,9.52,-0.00,-0.00,0.00,0.00
2026-06-26 19:06:09.452,994.06,994.06,-0.66,-1.07,0.00,2.08,0.12,9.52,-0.00,-0.00,0.00,0.00
2026-06-26 19:06:09.454,994.06,994.06,-0.66,-1.07,0.00,2.07,0.11,9.52,0.00,-0.00,0.00,0.00
2026-06-26 19:06:09.455,994.06,994.06,-0.66,-1.07,0.00,2.07,0.11,9.52,0.00,-0.00,0.00,0.00
2026-06-26 19:06:09.457,994.06,994.06,-0.66,-1.07,0.00,2.07,0.11,9.52,0.00,-0.00,0.00,0.00
2026-06-26 19:06:09.463,994.06,994.06,-0.66,-1.07,0.00,2.07,0.11,9.52,-0.00,-0.00,0.00,0.00
2026-06-26 19:06:09.465,994.06,994.06,-0.66,-1.07,0.00,2.09,0.10,9.55,-0.00,-0.00,0.00,0.00
2026-06-26 19:06:09.466,994.06,994.06,-0.66,-1.07,0.00,2.09,0.10,9.55,-0.00,-0.00,0.00,0.00
2026-06-26 19:06:09.469,994.06,994.06,-0.66,-1.07,0.00,2.09,0.10,9.55,-0.00,-0.00,0.00,0.00
2026-06-26 19:06:09.473,994.06,994.06,-0.66,-1.07,0.00,2.09,0.10,9.55,-0.00,0.00,-0.00,0.00
2026-06-26 19:06:09.474,994.06,994.06,-0.66,-1.07,0.00,2.09,0.12,9.55,-0.00,0.00,-0.00,0.00
2026-06-26 19:06:09.476,994.06,994.06,-0.66,-1.07,0.00,2.09,0.12,9.55,-0.00,0.00,-0.00,0.00
2026-06-26 19:06:09.479,994.06,994.06,-0.66,-1.07,0.00,2.09,0.12,9.55,-0.00,0.00,-0.00,0.00
2026-06-26 19:06:09.483,994.06,994.06,-0.66,-1.07,0.00,2.09,0.12,9.55,-0.00,0.00,0.00,0.00
2026-06-26 19:06:09.486,994.06,994.06,-0.66,-1.07,0.00,2.09,0.13,9.56,-0.00,0.00,0.00,0.00
2026-06-26 19:06:09.492,994.06,994.06,-0.66,-1.07,0.00,2.09,0.13,9.56,-0.00,0.00,0.00,0.00
2026-06-26 19:06:09.573,994.06,994.05,-0.46,-0.90,0.00,2.09,0.11,9.56,0.00,-0.00,0.00,0.00
2026-06-26 19:06:09.575,994.06,994.05,-0.46,-0.90,0.00,2.09,0.12,9.57,0.00,-0.00,0.00,0.00
2026-06-26 19:06:09.576,994.06,994.05,-0.46,-0.90,0.00,2.09,0.12,9.57,0.00,-0.00,0.00,0.00
2026-06-26 19:06:09.582,994.06,994.05,-0.46,-0.90,0.00,2.09,0.12,9.57,0.00,-0.00,0.00,0.00
2026-06-26 19:06:09.584,994.06,994.05,-0.46,-0.90,0.00,2.09,0.12,9.55,-0.00,-0.00,0.00,0.00
2026-06-26 19:06:09.589,994.06,994.05,-0.46,-0.90,0.00,2.09,0.12,9.55,-0.00,-0.00,0.00,0.00
2026-06-26 19:06:09.593,994.06,994.05,-0.46,-0.90,0.00,2.09,0.12,9.55,-0.00,-0.00,0.00,0.00
2026-06-26 19:06:09.595,994.06,994.05,-0.46,-0.90,0.00,2.10,0.11,9.52,-0.00,-0.00,0.00,0.00
2026-06-26 19:06:09.596,994.06,994.05,-0.46,-0.90,0.00,2.10,0.11,9.52,-0.00,-0.00,0.00,0.00
2026-06-26 19:06:09.600,994.06,994.05,-0.46,-0.90,0.00,2.10,0.11,9.52,-0.00,-0.00,0.00,0.00
2026-06-26 19:06:09.603,994.06,994.05,-0.46,-0.90,0.00,2.10,0.11,9.52,-0.00,0.00,-0.00,0.00
2026-06-26 19:06:09.605,994.06,994.05,-0.46,-0.90,0.00,2.09,0.11,9.54,-0.00,0.00,-0.00,0.00
2026-06-26 19:06:09.606,994.06,994.05,-0.46,-0.90,0.00,2.09,0.11,9.54,-0.00,0.00,-0.00,0.00
2026-06-26 19:06:09.610,994.06,994.05,-0.46,-0.90,0.00,2.09,0.11,9.54,-0.00,0.00,-0.00,0.00
2026-06-26 19:06:09.613,994.06,994.05,-0.46,-0.90,0.00,2.09,0.11,9.54,0.00,0.00,0.00,0.00
2026-06-26 19:06:09.615,994.06,994.05,-0.46,-0.90,0.00,2.09,0.12,9.55,0.00,0.00,0.00,0.00
2026-06-26 19:06:09.617,994.06,994.05,-0.46,-0.90,0.00,2.09,0.12,9.55,0.00,0.00,0.00,0.00
2026-06-26 19:06:09.618,994.06,994.05,-0.46,-0.90,0.00,2.09,0.12,9.55,0.00,0.00,0.00,0.00
2026-06-26 19:06:09.620,994.06,994.05,-0.46,-0.90,0.00,2.09,0.12,9.55,0.00,0.00,0.00,0.00
2026-06-26 19:06:09.625,994.06,994.05,-0.46,-0.90,0.00,2.09,0.12,9.55,0.00,0.00,-0.00,0.00
2026-06-26 19:06:09.629,994.06,994.05,-0.46,-0.90,0.00,2.07,0.11,9.55,0.00,0.00,-0.00,0.00
2026-06-26 19:06:09.668,994.06,994.06,-0.25,-0.67,0.00,2.09,0.12,9.56,0.00,0.00,0.00,0.00
2026-06-26 19:06:09.670,994.06,994.06,-0.25,-0.67,0.00,2.09,0.12,9.56,0.00,0.00,0.00,0.00
2026-06-26 19:06:09.714,994.06,994.06,-0.56,-0.99,0.00,2.09,0.10,9.55,0.00,-0.00,0.00,0.00
2026-06-26 19:06:09.716,994.06,994.06,-0.56,-0.99,0.00,2.09,0.10,9.55,0.00,-0.00,0.00,0.00
2026-06-26 19:06:09.717,994.06,994.06,-0.56,-0.99,0.00,2.09,0.10,9.55,0.00,-0.00,0.00,0.00
2026-06-26 19:06:09.719,994.06,994.06,-0.56,-0.99,0.00,2.09,0.10,9.55,0.00,-0.00,0.00,0.00
2026-06-26 19:06:09.721,994.06,994.06,-0.56,-0.99,0.00,2.09,0.10,9.55,0.00,-0.00,0.00,0.00
2026-06-26 19:06:09.724,994.06,994.06,-0.56,-0.99,0.00,2.09,0.10,9.55,0.00,0.00,0.00,0.00
2026-06-26 19:06:09.726,994.06,994.06,-0.56,-0.99,0.00,2.08,0.11,9.56,0.00,0.00,0.00,0.00
2026-06-26 19:06:09.732,994.06,994.06,-0.56,-0.99,0.00,2.08,0.11,9.56,0.00,0.00,0.00,0.00
2026-06-26 19:06:09.734,994.06,994.06,-0.56,-0.99,0.00,2.09,0.11,9.54,0.00,0.00,0.00,0.00
2026-06-26 19:06:09.736,994.06,994.06,-0.56,-0.99,0.00,2.09,0.11,9.54,0.00,0.00,0.00,0.00
2026-06-26 19:06:09.737,994.06,994.06,-0.56,-0.99,0.00,2.09,0.11,9.54,0.00,0.00,0.00,0.00
2026-06-26 19:06:09.743,994.06,994.06,-0.56,-0.99,0.00,2.09,0.11,9.54,0.00,0.00,0.00,0.00
2026-06-26 19:06:09.745,994.06,994.06,-0.56,-0.99,0.00,2.09,0.12,9.53,0.00,0.00,0.00,0.00
2026-06-26 19:06:09.746,994.06,994.06,-0.56,-0.99,0.00,2.09,0.12,9.53,0.00,0.00,0.00,0.00
2026-06-26 19:06:09.748,994.06,994.06,-0.56,-0.99,0.00,2.09,0.12,9.53,0.00,0.00,0.00,0.00
2026-06-26 19:06:09.753,994.06,994.06,-0.56,-0.99,0.00,2.09,0.12,9.53,0.00,-0.00,0.00,0.00
2026-06-26 19:06:09.763,994.06,994.06,-0.56,-0.99,0.00,2.08,0.12,9.55,0.00,-0.00,0.00,0.00
2026-06-26 19:06:09.765,994.06,994.06,-0.56,-0.99,0.00,2.08,0.10,9.55,0.00,0.00,0.00,0.00
2026-06-26 19:06:09.766,994.06,994.06,-0.56,-0.99,0.00,2.08,0.10,9.55,0.00,0.00,0.00,0.00
2026-06-26 19:06:09.814,994.06,994.05,-0.92,-1.27,0.00,2.09,0.10,9.53,0.00,-0.00,0.00,0.00
2026-06-26 19:06:09.856,994.06,994.05,-0.51,-0.94,0.00,2.10,0.10,9.52,0.00,-0.00,0.00,0.00
2026-06-26 19:06:09.859,994.06,994.05,-0.51,-0.94,0.00,2.11,0.13,9.54,0.00,-0.00,0.00,0.00
2026-06-26 19:06:09.864,994.06,994.05,-0.51,-0.94,0.00,2.11,0.13,9.54,0.00,0.00,0.00,0.00
2026-06-26 19:06:09.866,994.06,994.05,-0.51,-0.94,0.00,2.09,0.11,9.56,0.00,0.00,0.00,0.00
2026-06-26 19:06:09.867,994.06,994.05,-0.51,-0.94,0.00,2.09,0.11,9.56,0.00,0.00,0.00,0.00
2026-06-26 19:06:09.869,994.06,994.05,-0.51,-0.94,0.00,2.09,0.11,9.56,0.00,0.00,0.00,0.00
2026-06-26 19:06:09.871,994.06,994.05,-0.51,-0.94,0.00,2.09,0.11,9.56,0.00,0.00,0.00,0.00
2026-06-26 19:06:09.875,994.06,994.05,-0.51,-0.94,0.00,2.10,0.11,9.53,0.00,0.00,-0.00,0.00
2026-06-26 19:06:09.877,994.06,994.05,-0.51,-0.94,0.00,2.10,0.11,9.53,0.00,0.00,-0.00,0.00
2026-06-26 19:06:09.884,994.06,994.05,-0.51,-0.94,0.00,2.10,0.11,9.53,0.00,0.00,-0.00,0.00
2026-06-26 19:06:09.885,994.06,994.05,-0.51,-0.94,0.00,2.08,0.10,9.54,-0.00,0.00,0.00,0.00
2026-06-26 19:06:09.887,994.06,994.05,-0.51,-0.94,0.00,2.08,0.10,9.54,-0.00,0.00,0.00,0.00
2026-06-26 19:06:09.893,994.06,994.05,-0.51,-0.94,0.00,2.08,0.10,9.54,-0.00,0.00,0.00,0.00
2026-06-26 19:06:09.895,994.06,994.05,-0.51,-0.94,0.00,2.09,0.11,9.54,0.00,0.00,-0.00,0.00
2026-06-26 19:06:09.897,994.06,994.05,-0.51,-0.94,0.00,2.09,0.11,9.54,0.00,0.00,-0.00,0.00
2026-06-26 19:06:09.904,994.06,994.05,-0.51,-0.94,0.00,2.09,0.11,9.54,-0.00,0.00,-0.00,0.00
2026-06-26 19:06:09.906,994.06,994.05,-0.51,-0.94,0.00,2.08,0.13,9.55,-0.00,0.00,-0.00,0.00
2026-06-26 19:06:09.907,994.06,994.05,-0.51,-0.94,0.00,2.08,0.13,9.55,-0.00,0.00,-0.00,0.00
2026-06-26 19:06:09.912,994.06,994.05,-0.51,-0.94,0.00,2.08,0.13,9.55,-0.00,0.00,-0.00,0.00
2026-06-26 19:06:09.003,994.06,994.05,-0.86,-1.23,0.00,2.09,0.11,9.54,0.00,0.00,-0.00,0.00
2026-06-26 19:06:10.007,994.06,994.05,-0.86,-1.23,0.00,2.09,0.11,9.53,0.00,0.00,-0.00,0.00
2026-06-26 19:06:10.012,994.06,994.05,-0.86,-1.23,0.00,2.09,0.11,9.53,0.00,0.00,-0.00,0.00
2026-06-26 19:06:10.015,994.06,994.05,-0.86,-1.23,0.00,2.06,0.12,9.56,0.00,0.00,0.00,0.00
2026-06-26 19:06:10.016,994.06,994.05,-0.86,-1.23,0.00,2.06,0.12,9.56,0.00,0.00,0.00,0.00
2026-06-26 19:06:10.018,994.06,994.05,-0.86,-1.23,0.00,2.06,0.12,9.56,0.00,0.00,0.00,0.00
2026-06-26 19:06:10.021,994.06,994.05,-0.86,-1.23,0.00,2.06,0.12,9.56,0.00,0.00,0.00,0.00
2026-06-26 19:06:10.025,994.06,994.05,-0.86,-1.23,0.00,2.06,0.12,9.56,0.00,-0.00,0.00,0.00
2026-06-26 19:06:10.028,994.06,994.05,-0.86,-1.23,0.00,2.09,0.13,9.56,0.00,-0.00,0.00,0.00
2026-06-26 19:06:10.036,994.06,994.05,-0.86,-1.23,0.00,2.09,0.13,9.56,0.00,0.00,0.00,0.00
2026-06-26 19:06:10.038,994.06,994.05,-0.86,-1.23,0.00,2.09,0.12,9.53,0.00,0.00,0.00,0.00
2026-06-26 19:06:10.044,994.06,994.05,-0.86,-1.23,0.00,2.09,0.12,9.53,0.00,0.00,0.00,0.00
2026-06-26 19:06:10.045,994.06,994.05,-0.86,-1.23,0.00,2.09,0.09,9.54,0.00,0.00,0.00,0.00
2026-06-26 19:06:10.047,994.06,994.05,-0.86,-1.23,0.00,2.09,0.09,9.54,0.00,0.00,0.00,0.00
2026-06-26 19:06:10.048,994.06,994.05,-0.86,-1.23,0.00,2.09,0.09,9.54,0.00,0.00,0.00,0.00
2026-06-26 19:06:10.054,994.06,994.05,-0.86,-1.23,0.00,2.09,0.09,9.54,0.00,0.00,0.00,0.00
2026-06-26 19:06:10.098,994.06,994.05,-0.82,-1.20,0.00,2.10,0.12,9.54,0.00,-0.00,0.00,0.00
2026-06-26 19:06:10.136,994.06,994.05,-0.92,-1.27,0.00,2.09,0.09,9.57,0.00,0.00,0.00,0.00
2026-06-26 19:06:10.138,994.06,994.05,-0.92,-1.27,0.00,2.09,0.09,9.57,0.00,0.00,0.00,0.00
2026-06-26 19:06:10.144,994.06,994.05,-0.92,-1.27,0.00,2.09,0.09,9.57,0.00,0.00,0.00,0.00
2026-06-26 19:06:10.146,994.06,994.05,-0.92,-1.27,0.00,2.10,0.10,9.53,0.00,-0.00,0.00,0.00
2026-06-26 19:06:10.148,994.06,994.05,-0.92,-1.27,0.00,2.10,0.10,9.53,0.00,-0.00,0.00,0.00
2026-06-26 19:06:10.151,994.06,994.05,-0.92,-1.27,0.00,2.10,0.10,9.53,0.00,-0.00,0.00,0.00
2026-06-26 19:06:10.155,994.06,994.05,-0.92,-1.27,0.00,2.10,0.10,9.53,0.00,0.00,0.00,0.00
2026-06-26 19:06:10.156,994.06,994.05,-0.92,-1.27,0.00,2.09,0.12,9.55,0.00,0.00,0.00,0.00
2026-06-26 19:06:10.158,994.06,994.05,-0.92,-1.27,0.00,2.09,0.12,9.55,0.00,0.00,0.00,0.00
2026-06-26 19:06:10.163,994.06,994.05,-0.92,-1.27,0.00,2.09,0.12,9.55,0.00,0.00,0.00,0.00
2026-06-26 19:06:10.165,994.06,994.05,-0.92,-1.27,0.00,2.06,0.11,9.52,-0.00,-0.00,0.00,0.00
2026-06-26 19:06:10.167,994.06,994.05,-0.92,-1.27,0.00,2.06,0.11,9.52,-0.00,-0.00,0.00,0.00
2026-06-26 19:06:10.168,994.06,994.05,-0.92,-1.27,0.00,2.06,0.11,9.52,-0.00,-0.00,0.00,0.00
2026-06-26 19:06:10.170,994.06,994.05,-0.92,-1.27,0.00,2.06,0.11,9.52,-0.00,-0.00,0.00,0.00
2026-06-26 19:06:10.171,994.06,994.05,-0.92,-1.27,0.00,2.06,0.11,9.52,-0.00,-0.00,0.00,0.00
2026-06-26 19:06:10.174,994.06,994.05,-0.92,-1.27,0.00,2.06,0.11,9.52,-0.00,-0.00,0.00,0.00
2026-06-26 19:06:10.175,994.06,994.05,-0.92,-1.27,0.00,2.08,0.09,9.59,0.00,-0.01,0.00,0.00
2026-06-26 19:06:10.177,994.06,994.05,-0.92,-1.27,0.00,2.08,0.09,9.59,0.00,-0.01,0.00,0.00
2026-06-26 19:06:10.178,994.06,994.05,-0.92,-1.27,0.00,2.08,0.09,9.59,0.00,-0.01,0.00,0.00
2026-06-26 19:06:10.185,994.06,994.05,-0.92,-1.27,0.00,2.08,0.09,9.59,0.00,0.00,-0.00,0.00
2026-06-26 19:06:10.187,994.06,994.05,-0.92,-1.27,0.00,2.08,0.10,9.54,0.00,0.00,-0.00,0.00
2026-06-26 19:06:10.191,994.06,994.05,-0.92,-1.27,0.00,2.08,0.10,9.54,0.00,0.00,-0.00,0.00
2026-06-26 19:06:10.196,994.06,994.05,-0.92,-1.27,0.00,2.08,0.10,9.54,0.00,-0.00,0.00,0.00
2026-06-26 19:06:10.285,994.06,994.05,-0.65,-1.07,0.00,2.08,0.08,9.57,-0.00,-0.00,0.00,0.00
2026-06-26 19:06:10.287,994.06,994.05,-0.65,-1.07,0.00,2.09,0.10,9.59,-0.00,-0.00,0.00,0.00
2026-06-26 19:06:10.288,994.06,994.05,-0.65,-1.07,0.00,2.09,0.10,9.59,-0.00,-0.00,0.00,0.00
2026-06-26 19:06:10.297,994.06,994.05,-0.65,-1.07,0.00,2.09,0.10,9.59,-0.00,0.00,0.00,0.00
2026-06-26 19:06:10.304,994.06,994.05,-0.65,-1.07,0.00,2.07,0.10,9.54,-0.00,0.00,0.00,0.00
2026-06-26 19:06:10.306,994.06,994.05,-0.65,-1.07,0.00,2.08,0.13,9.54,-0.00,0.00,-0.00,0.00
2026-06-26 19:06:10.308,994.06,994.05,-0.65,-1.07,0.00,2.08,0.13,9.54,-0.00,0.00,-0.00,0.00
2026-06-26 19:06:10.315,994.06,994.05,-0.65,-1.07,0.00,2.08,0.13,9.54,-0.00,0.00,-0.00,0.00
2026-06-26 19:06:10.316,994.06,994.05,-0.65,-1.07,0.00,2.09,0.10,9.58,0.00,0.00,-0.00,0.00
2026-06-26 19:06:10.318,994.06,994.05,-0.65,-1.07,0.00,2.09,0.10,9.58,0.00,0.00,-0.00,0.00
2026-06-26 19:06:10.320,994.06,994.05,-0.65,-1.07,0.00,2.09,0.10,9.58,0.00,0.00,-0.00,0.00
2026-06-26 19:06:10.322,994.06,994.05,-0.65,-1.07,0.00,2.09,0.10,9.58,0.00,0.00,-0.00,0.00
2026-06-26 19:06:10.328,994.06,994.05,-0.65,-1.07,0.00,2.08,0.12,9.55,-0.00,0.00,-0.00,0.00
2026-06-26 19:06:10.334,994.06,994.05,-0.65,-1.07,0.00,2.08,0.12,9.55,-0.00,0.00,-0.00,0.00
2026-06-26 19:06:10.336,994.06,994.05,-0.65,-1.07,0.00,2.08,0.09,9.55,0.00,-0.00,0.00,0.00
2026-06-26 19:06:10.338,994.06,994.05,-0.65,-1.07,0.00,2.08,0.09,9.55,0.00,-0.00,0.00,0.00
2026-06-26 19:06:10.340,994.06,994.05,-0.65,-1.07,0.00,2.08,0.09,9.55,0.00,-0.00,0.00,0.00
2026-06-26 19:06:10.385,994.06,994.05,-0.59,-1.02,0.00,2.09,0.12,9.53,-0.00,0.00,0.00,0.00
2026-06-26 19:06:10.425,994.06,994.05,-1.20,-1.45,0.00,2.09,0.10,9.57,-0.00,-0.00,0.00,0.00
2026-06-26 19:06:10.427,994.06,994.05,-1.20,-1.45,0.00,2.06,0.08,9.56,-0.00,-0.00,0.00,0.00
2026-06-26 19:06:10.430,994.06,994.05,-1.20,-1.45,0.00,2.06,0.08,9.56,-0.00,-0.00,0.00,0.00
2026-06-26 19:06:10.435,994.06,994.05,-1.20,-1.45,0.00,2.06,0.08,9.56,-0.00,-0.00,0.00,0.00
2026-06-26 19:06:10.437,994.06,994.05,-1.20,-1.45,0.00,2.08,0.10,9.54,-0.00,-0.00,0.00,0.00
2026-06-26 19:06:10.439,994.06,994.05,-1.20,-1.45,0.00,2.08,0.10,9.54,-0.00,-0.00,0.00,0.00
2026-06-26 19:06:10.445,994.06,994.05,-1.20,-1.45,0.00,2.08,0.10,9.54,-0.00,-0.00,0.00,0.00
2026-06-26 19:06:10.446,994.06,994.05,-1.20,-1.45,0.00,2.09,0.11,9.55,0.00,-0.00,-0.00,0.00
2026-06-26 19:06:10.448,994.06,994.05,-1.20,-1.45,0.00,2.09,0.11,9.55,0.00,-0.00,-0.00,0.00
2026-06-26 19:06:10.449,994.06,994.05,-1.20,-1.45,0.00,2.09,0.11,9.55,0.00,-0.00,-0.00,0.00
2026-06-26 19:06:10.455,994.06,994.05,-1.20,-1.45,0.00,2.09,0.11,9.55,0.00,-0.00,-0.00,0.00
2026-06-26 19:06:10.457,994.06,994.05,-1.20,-1.45,0.00,2.09,0.11,9.57,-0.00,0.00,-0.00,0.00
2026-06-26 19:06:10.458,994.06,994.05,-1.20,-1.45,0.00,2.09,0.11,9.57,-0.00,0.00,-0.00,0.00
2026-06-26 19:06:10.463,994.06,994.05,-1.20,-1.45,0.00,2.09,0.11,9.57,-0.00,0.00,-0.00,0.00
2026-06-26 19:06:10.466,994.06,994.05,-1.20,-1.45,0.00,2.09,0.14,9.53,-0.00,-0.00,0.00,0.00
2026-06-26 19:06:10.467,994.06,994.05,-1.20,-1.45,0.00,2.09,0.14,9.53,-0.00,-0.00,0.00,0.00
2026-06-26 19:06:10.469,994.06,994.05,-1.20,-1.45,0.00,2.09,0.14,9.53,-0.00,-0.00,0.00,0.00
2026-06-26 19:06:10.470,994.06,994.05,-1.20,-1.45,0.00,2.09,0.14,9.53,-0.00,-0.00,0.00,0.00
2026-06-26 19:06:10.472,994.06,994.05,-1.20,-1.45,0.00,2.09,0.14,9.53,-0.00,-0.00,0.00,0.00
2026-06-26 19:06:10.476,994.06,994.05,-1.20,-1.45,0.00,2.09,0.14,9.53,-0.00,-0.00,-0.00,0.00
2026-06-26 19:06:10.478,994.06,994.05,-1.20,-1.45,0.00,2.07,0.11,9.56,-0.00,-0.00,-0.00,0.00
2026-06-26 19:06:10.479,994.06,994.05,-1.20,-1.45,0.00,2.07,0.11,9.56,-0.00,-0.00,-0.00,0.00
2026-06-26 19:06:10.485,994.06,994.05,-1.20,-1.45,0.00,2.07,0.11,9.56,-0.00,-0.00,-0.00,0.00
2026-06-26 19:06:10.570,994.07,994.05,-1.48,-1.61,0.00,2.10,0.10,9.55,0.00,0.00,-0.00,0.00
2026-06-26 19:06:10.575,994.07,994.05,-1.48,-1.61,0.00,2.10,0.10,9.55,0.00,0.00,-0.00,0.00
2026-06-26 19:06:10.577,994.07,994.05,-1.48,-1.61,0.00,2.08,0.10,9.59,0.00,0.00,-0.00,0.00
2026-06-26 19:06:10.578,994.07,994.05,-1.48,-1.61,0.00,2.08,0.10,9.59,0.00,0.00,-0.00,0.00
2026-06-26 19:06:10.581,994.07,994.05,-1.48,-1.61,0.00,2.08,0.10,9.59,0.00,0.00,-0.00,0.00
2026-06-26 19:06:10.587,994.07,994.05,-1.48,-1.61,0.00,2.08,0.10,9.59,0.00,-0.00,-0.00,0.00
2026-06-26 19:06:10.588,994.07,994.05,-1.48,-1.61,0.00,2.07,0.11,9.58,0.00,-0.00,-0.00,0.00
2026-06-26 19:06:10.594,994.07,994.05,-1.48,-1.61,0.00,2.07,0.11,9.58,0.00,-0.00,-0.00,0.00
2026-06-26 19:06:10.596,994.07,994.05,-1.48,-1.61,0.00,2.08,0.10,9.53,0.00,0.00,-0.00,0.00
2026-06-26 19:06:10.598,994.07,994.05,-1.48,-1.61,0.00,2.08,0.10,9.53,0.00,0.00,-0.00,0.00
2026-06-26 19:06:10.604,994.07,994.05,-1.48,-1.61,0.00,2.08,0.10,9.53,0.00,0.00,-0.00,0.00
2026-06-26 19:06:10.606,994.07,994.05,-1.48,-1.61,0.00,2.09,0.11,9.55,0.00,-0.00,0.00,0.00
2026-06-26 19:06:10.607,994.07,994.05,-1.48,-1.61,0.00,2.09,0.11,9.55,0.00,-0.00,0.00,0.00
2026-06-26 19:06:10.609,994.07,994.05,-1.48,-1.61,0.00,2.09,0.11,9.55,0.00,-0.00,0.00,0.00
2026-06-26 19:06:10.615,994.07,994.05,-1.48,-1.61,0.00,2.09,0.11,9.55,0.00,-0.00,0.00,0.00
2026-06-26 19:06:10.617,994.07,994.05,-1.48,-1.61,0.00,2.08,0.10,9.55,-0.00,0.00,0.00,0.00
2026-06-26 19:06:10.618,994.07,994.05,-1.48,-1.61,0.00,2.08,0.10,9.55,-0.00,0.00,0.00,0.00
2026-06-26 19:06:10.619,994.07,994.05,-1.48,-1.61,0.00,2.08,0.10,9.55,-0.00,0.00,0.00,0.00
2026-06-26 19:06:10.621,994.07,994.05,-1.48,-1.61,0.00,2.08,0.10,9.55,-0.00,0.00,0.00,0.00
2026-06-26 19:06:10.622,994.07,994.05,-1.48,-1.61,0.00,2.08,0.10,9.55,-0.00,0.00,0.00,0.00
2026-06-26 19:06:10.627,994.07,994.05,-1.48,-1.61,0.00,2.08,0.10,9.55,-0.00,-0.00,0.00,0.00
2026-06-26 19:06:10.629,994.07,994.05,-1.48,-1.61,0.00,2.08,0.13,9.56,-0.00,-0.00,0.00,0.00
2026-06-26 19:06:10.716,994.07,994.05,-1.30,-1.51,0.00,2.08,0.12,9.56,-0.00,-0.00,-0.00,0.00
2026-06-26 19:06:10.717,994.07,994.05,-1.30,-1.51,0.00,2.08,0.13,9.58,-0.00,-0.00,-0.00,0.00
2026-06-26 19:06:10.719,994.07,994.05,-1.30,-1.51,0.00,2.08,0.13,9.58,-0.00,-0.00,-0.00,0.00
2026-06-26 19:06:10.720,994.07,994.05,-1.30,-1.51,0.00,2.08,0.13,9.58,-0.00,-0.00,-0.00,0.00
2026-06-26 19:06:10.722,994.07,994.05,-1.30,-1.51,0.00,2.08,0.13,9.58,-0.00,-0.00,-0.00,0.00
2026-06-26 19:06:10.725,994.07,994.05,-1.30,-1.51,0.00,2.08,0.13,9.58,-0.00,-0.00,-0.00,0.00
2026-06-26 19:06:10.727,994.07,994.05,-1.30,-1.51,0.00,2.09,0.09,9.56,-0.00,0.00,0.00,0.00
2026-06-26 19:06:10.728,994.07,994.05,-1.30,-1.51,0.00,2.09,0.09,9.56,-0.00,0.00,0.00,0.00
2026-06-26 19:06:10.730,994.07,994.05,-1.30,-1.51,0.00,2.09,0.09,9.56,-0.00,0.00,0.00,0.00
2026-06-26 19:06:10.736,994.07,994.05,-1.30,-1.51,0.00,2.09,0.09,9.56,0.00,0.00,-0.00,0.00
2026-06-26 19:06:10.738,994.07,994.05,-1.30,-1.51,0.00,2.07,0.11,9.52,0.00,0.00,-0.00,0.00
2026-06-26 19:06:10.739,994.07,994.05,-1.30,-1.51,0.00,2.07,0.11,9.52,0.00,0.00,-0.00,0.00
2026-06-26 19:06:10.745,994.07,994.05,-1.30,-1.51,0.00,2.07,0.11,9.52,0.00,0.00,-0.00,0.00
2026-06-26 19:06:10.747,994.07,994.05,-1.30,-1.51,0.00,2.07,0.09,9.53,0.00,0.00,-0.00,0.00
2026-06-26 19:06:10.749,994.07,994.05,-1.30,-1.51,0.00,2.07,0.09,9.53,0.00,0.00,-0.00,0.00
2026-06-26 19:06:10.750,994.07,994.05,-1.30,-1.51,0.00,2.07,0.09,9.53,0.00,0.00,-0.00,0.00
2026-06-26 19:06:10.755,994.07,994.05,-1.30,-1.51,0.00,2.07,0.09,9.53,0.00,0.00,-0.00,0.00
2026-06-26 19:06:10.759,994.07,994.05,-1.30,-1.51,0.00,2.10,0.11,9.53,-0.00,0.00,0.00,0.00
2026-06-26 19:06:10.766,994.07,994.05,-1.30,-1.51,0.00,2.10,0.11,9.53,-0.00,0.00,0.00,0.00
2026-06-26 19:06:10.767,994.07,994.05,-1.30,-1.51,0.00,2.09,0.10,9.59,-0.00,0.00,0.00,0.00
2026-06-26 19:06:10.769,994.07,994.05,-1.30,-1.51,0.00,2.09,0.10,9.59,-0.00,0.00,0.00,0.00
2026-06-26 19:06:10.771,994.07,994.05,-1.30,-1.51,0.00,2.09,0.10,9.59,-0.00,0.00,0.00,0.00
2026-06-26 19:06:10.857,994.06,994.05,-1.31,-1.52,0.00,2.08,0.11,9.55,-0.00,-0.00,0.00,0.00
2026-06-26 19:06:10.858,994.06,994.05,-1.31,-1.52,0.00,2.08,0.11,9.55,-0.00,-0.00,0.00,0.00
2026-06-26 19:06:10.860,994.06,994.05,-1.31,-1.52,0.00,2.08,0.11,9.55,-0.00,-0.00,0.00,0.00
2026-06-26 19:06:10.866,994.06,994.05,-1.31,-1.52,0.00,2.08,0.11,9.55,0.00,0.00,0.00,0.00
2026-06-26 19:06:10.868,994.06,994.05,-1.31,-1.52,0.00,2.09,0.11,9.56,0.00,0.00,0.00,0.00
2026-06-26 19:06:10.872,994.06,994.05,-1.31,-1.52,0.00,2.09,0.11,9.56,0.00,0.00,0.00,0.00
2026-06-26 19:06:10.876,994.06,994.05,-1.31,-1.52,0.00,2.09,0.11,9.56,-0.00,-0.00,0.00,0.00
2026-06-26 19:06:10.878,994.06,994.05,-1.31,-1.52,0.00,2.09,0.09,9.55,-0.00,-0.00,0.00,0.00
2026-06-26 19:06:10.879,994.06,994.05,-1.31,-1.52,0.00,2.09,0.09,9.55,-0.00,-0.00,0.00,0.00
2026-06-26 19:06:10.882,994.06,994.05,-1.31,-1.52,0.00,2.09,0.09,9.55,-0.00,-0.00,0.00,0.00
2026-06-26 19:06:10.886,994.06,994.05,-1.31,-1.52,0.00,2.09,0.09,9.55,-0.00,0.00,-0.00,0.00
2026-06-26 19:06:10.887,994.06,994.05,-1.31,-1.52,0.00,2.08,0.10,9.57,-0.00,0.00,-0.00,0.00
2026-06-26 19:06:10.889,994.06,994.05,-1.31,-1.52,0.00,2.08,0.10,9.57,-0.00,0.00,-0.00,0.00
2026-06-26 19:06:10.895,994.06,994.05,-1.31,-1.52,0.00,2.08,0.10,9.57,-0.00,0.00,-0.00,0.00
2026-06-26 19:06:10.897,994.06,994.05,-1.31,-1.52,0.00,2.10,0.11,9.53,0.00,0.00,0.00,0.00
2026-06-26 19:06:10.898,994.06,994.05,-1.31,-1.52,0.00,2.10,0.11,9.53,0.00,0.00,0.00,0.00
2026-06-26 19:06:10.900,994.06,994.05,-1.31,-1.52,0.00,2.10,0.11,9.53,0.00,0.00,0.00,0.00
2026-06-26 19:06:10.906,994.06,994.05,-1.31,-1.52,0.00,2.10,0.11,9.53,0.00,0.00,0.00,0.00
2026-06-26 19:06:10.907,994.06,994.05,-1.31,-1.52,0.00,2.08,0.12,9.55,-0.00,-0.00,0.00,0.00
2026-06-26 19:06:10.909,994.06,994.05,-1.31,-1.52,0.00,2.08,0.12,9.55,-0.00,-0.00,0.00,0.00
2026-06-26 19:06:10.910,994.06,994.05,-1.31,-1.52,0.00,2.08,0.12,9.55,-0.00,-0.00,0.00,0.00
2026-06-26 19:06:10.916,994.06,994.05,-1.31,-1.52,0.00,2.08,0.12,9.55,-0.00,-0.00,0.00,0.00
2026-06-26 19:06:11.006,994.06,994.06,-0.79,-1.18,0.00,2.09,0.11,9.53,-0.00,0.00,0.00,0.00
2026-06-26 19:06:11.007,994.06,994.06,-0.79,-1.18,0.00,2.07,0.12,9.53,0.00,0.00,0.00,0.00
2026-06-26 19:06:11.009,994.06,994.06,-0.79,-1.18,0.00,2.07,0.12,9.53,0.00,0.00,0.00,0.00
2026-06-26 19:06:11.012,994.06,994.06,-0.79,-1.18,0.00,2.07,0.12,9.53,0.00,0.00,0.00,0.00
2026-06-26 19:06:11.016,994.06,994.06,-0.79,-1.18,0.00,2.07,0.12,9.53,-0.00,0.00,0.00,0.00
2026-06-26 19:06:11.018,994.06,994.06,-0.79,-1.18,0.00,2.09,0.12,9.56,-0.00,0.00,0.00,0.00
2026-06-26 19:06:11.019,994.06,994.06,-0.79,-1.18,0.00,2.09,0.12,9.56,-0.00,0.00,0.00,0.00
2026-06-26 19:06:11.021,994.06,994.06,-0.79,-1.18,0.00,2.09,0.12,9.56,-0.00,0.00,0.00,0.00
2026-06-26 19:06:11.022,994.06,994.06,-0.79,-1.18,0.00,2.09,0.12,9.56,-0.00,0.00,0.00,0.00
2026-06-26 19:06:11.024,994.06,994.06,-0.79,-1.18,0.00,2.09,0.12,9.56,-0.00,0.00,0.00,0.00
2026-06-26 19:06:11.027,994.06,994.06,-0.79,-1.18,0.00,2.09,0.12,9.56,-0.00,0.00,-0.00,0.00
2026-06-26 19:06:11.028,994.06,994.06,-0.79,-1.18,0.00,2.09,0.10,9.53,-0.00,0.00,-0.00,0.00
2026-06-26 19:06:11.036,994.06,994.06,-0.79,-1.18,0.00,2.09,0.10,9.53,-0.00,0.00,-0.00,0.00
2026-06-26 19:06:11.038,994.06,994.06,-0.79,-1.18,0.00,2.06,0.06,9.53,-0.00,-0.00,0.00,0.00
2026-06-26 19:06:11.039,994.06,994.06,-0.79,-1.18,0.00,2.06,0.06,9.53,-0.00,-0.00,0.00,0.00
2026-06-26 19:06:11.043,994.06,994.06,-0.79,-1.18,0.00,2.06,0.06,9.53,-0.00,-0.00,0.00,0.00
2026-06-26 19:06:11.049,994.06,994.06,-0.79,-1.18,0.00,2.06,0.06,9.53,-0.00,0.01,-0.00,0.00
2026-06-26 19:06:11.053,994.06,994.06,-0.79,-1.18,0.00,2.08,0.00,9.51,-0.00,0.01,-0.00,0.00
2026-06-26 19:06:11.057,994.06,994.06,-0.79,-1.18,0.00,2.08,0.00,9.51,-0.00,0.00,0.00,0.00
2026-06-26 19:06:11.066,994.06,994.06,-0.79,-1.18,0.00,2.15,-0.03,9.52,-0.00,0.00,0.00,0.00
2026-06-26 19:06:11.147,994.06,994.05,-0.97,-1.30,0.00,3.13,0.71,9.68,0.00,0.03,0.01,0.00
2026-06-26 19:06:11.149,994.06,994.05,-0.97,-1.30,0.00,3.13,0.71,9.68,0.00,0.03,0.01,0.00
2026-06-26 19:06:11.150,994.06,994.05,-0.97,-1.30,0.00,3.13,0.71,9.68,0.00,0.03,0.01,0.00
2026-06-26 19:06:11.155,994.06,994.05,-0.97,-1.30,0.00,3.13,0.71,9.68,0.00,0.03,0.01,0.00
2026-06-26 19:06:11.157,994.06,994.05,-0.97,-1.30,0.00,2.49,0.96,9.39,-0.00,0.02,0.03,0.00
2026-06-26 19:06:11.159,994.06,994.05,-0.97,-1.30,0.00,2.49,0.96,9.39,-0.00,0.02,0.03,0.00
2026-06-26 19:06:11.160,994.06,994.05,-0.97,-1.30,0.00,2.49,0.96,9.39,-0.00,0.02,0.03,0.00
2026-06-26 19:06:11.166,994.06,994.05,-0.97,-1.30,0.00,2.49,0.96,9.39,-0.00,0.02,0.03,0.00
2026-06-26 19:06:11.168,994.06,994.05,-0.97,-1.30,0.00,1.96,0.75,9.49,0.00,0.00,0.04,0.00
2026-06-26 19:06:11.170,994.06,994.05,-0.97,-1.30,0.00,1.96,0.75,9.49,0.00,0.00,0.04,0.00
2026-06-26 19:06:11.173,994.06,994.05,-0.97,-1.30,0.00,1.96,0.75,9.49,0.00,0.00,0.04,0.00
2026-06-26 19:06:11.175,994.06,994.05,-0.97,-1.30,0.00,1.96,0.75,9.49,0.00,0.00,0.04,0.00
2026-06-26 19:06:11.177,994.06,994.05,-0.97,-1.30,0.00,1.96,0.75,9.49,0.01,0.02,0.04,0.00
2026-06-26 19:06:11.179,994.06,994.05,-0.97,-1.30,0.00,2.05,0.45,9.55,0.01,0.02,0.04,0.00
2026-06-26 19:06:11.182,994.06,994.05,-0.97,-1.30,0.00,2.05,0.45,9.55,0.01,0.02,0.04,0.00
2026-06-26 19:06:11.184,994.06,994.05,-0.97,-1.30,0.00,2.05,0.45,9.55,0.01,0.02,0.04,0.00
2026-06-26 19:06:11.187,994.06,994.05,-0.97,-1.30,0.00,2.05,0.45,9.55,0.01,0.03,0.03,0.00
2026-06-26 19:06:11.189,994.06,994.05,-0.97,-1.30,0.00,2.59,0.34,9.71,0.01,0.03,0.03,0.00
2026-06-26 19:06:11.190,994.06,994.05,-0.97,-1.30,0.00,2.59,0.34,9.71,0.01,0.03,0.03,0.00
2026-06-26 19:06:11.196,994.06,994.05,-0.97,-1.30,0.00,2.59,0.34,9.71,0.01,0.03,0.03,0.00
2026-06-26 19:06:11.199,994.06,994.05,-0.97,-1.30,0.00,2.41,0.57,9.48,-0.00,0.02,0.03,0.00
2026-06-26 19:06:11.202,994.06,994.05,-0.97,-1.30,0.00,2.41,0.57,9.48,-0.00,0.02,0.03,0.00
2026-06-26 19:06:11.207,994.06,994.05,-0.97,-1.30,0.00,2.41,0.57,9.48,-0.00,-0.01,0.04,0.00
2026-06-26 19:06:11.208,994.06,994.05,-0.97,-1.30,0.00,1.78,0.47,9.29,-0.00,-0.01,0.04,0.00
2026-06-26 19:06:11.288,994.06,994.05,-1.03,-1.35,0.00,2.76,0.33,9.57,-0.00,-0.03,0.07,0.00
2026-06-26 19:06:11.290,994.06,994.05,-1.03,-1.35,0.00,2.76,0.33,9.57,-0.00,-0.03,0.07,0.00
2026-06-26 19:06:11.297,994.06,994.05,-1.03,-1.35,0.00,2.76,0.33,9.57,-0.00,-0.03,0.07,0.00
2026-06-26 19:06:11.298,994.06,994.05,-1.03,-1.35,0.00,2.58,0.45,9.42,0.00,-0.03,0.07,0.00
2026-06-26 19:06:11.300,994.06,994.05,-1.03,-1.35,0.00,2.58,0.45,9.42,0.00,-0.03,0.07,0.00
2026-06-26 19:06:11.304,994.06,994.05,-1.03,-1.35,0.00,2.58,0.45,9.42,0.00,-0.03,0.07,0.00
2026-06-26 19:06:11.307,994.06,994.05,-1.03,-1.35,0.00,2.58,0.45,9.42,0.00,-0.03,0.10,0.00
2026-06-26 19:06:11.309,994.06,994.05,-1.03,-1.35,0.00,2.20,0.42,9.34,0.00,-0.03,0.10,0.00
2026-06-26 19:06:11.310,994.06,994.05,-1.03,-1.35,0.00,2.20,0.42,9.34,0.00,-0.03,0.10,0.00
2026-06-26 19:06:11.316,994.06,994.05,-1.03,-1.35,0.00,2.20,0.42,9.34,0.00,-0.03,0.10,0.00
2026-06-26 19:06:11.318,994.06,994.05,-1.03,-1.35,0.00,2.18,0.36,9.48,0.01,-0.02,0.12,0.00
2026-06-26 19:06:11.319,994.06,994.05,-1.03,-1.35,0.00,2.18,0.36,9.48,0.01,-0.02,0.12,0.00
2026-06-26 19:06:11.321,994.06,994.05,-1.03,-1.35,0.00,2.18,0.36,9.48,0.01,-0.02,0.12,0.00
2026-06-26 19:06:11.322,994.06,994.05,-1.03,-1.35,0.00,2.18,0.36,9.48,0.01,-0.02,0.12,0.00
2026-06-26 19:06:11.324,994.06,994.05,-1.03,-1.35,0.00,2.18,0.36,9.48,0.01,-0.02,0.12,0.00
2026-06-26 19:06:11.325,994.06,994.05,-1.03,-1.35,0.00,2.18,0.36,9.48,0.01,-0.02,0.12,0.00
2026-06-26 19:06:11.327,994.06,994.05,-1.03,-1.35,0.00,2.18,0.36,9.48,0.01,-0.02,0.12,0.00
2026-06-26 19:06:11.328,994.06,994.05,-1.03,-1.35,0.00,2.42,0.32,9.57,0.01,-0.01,0.14,0.00
2026-06-26 19:06:11.330,994.06,994.05,-1.03,-1.35,0.00,2.42,0.32,9.57,0.01,-0.01,0.14,0.00
2026-06-26 19:06:11.331,994.06,994.05,-1.03,-1.35,0.00,2.42,0.32,9.57,0.01,-0.01,0.14,0.00
2026-06-26 19:06:11.333,994.06,994.05,-1.03,-1.35,0.00,2.42,0.32,9.57,0.01,-0.01,0.14,0.00
2026-06-26 19:06:11.334,994.06,994.05,-1.03,-1.35,0.00,2.42,0.32,9.57,0.01,-0.01,0.14,0.00
2026-06-26 19:06:11.336,994.06,994.05,-1.03,-1.35,0.00,2.42,0.32,9.57,0.01,-0.01,0.14,0.00
2026-06-26 19:06:11.337,994.06,994.05,-1.03,-1.35,0.00,2.42,0.32,9.57,0.01,-0.00,0.14,0.00
2026-06-26 19:06:11.339,994.06,994.05,-1.03,-1.35,0.00,2.73,0.18,9.50,0.01,-0.00,0.14,0.00
2026-06-26 19:06:11.341,994.06,994.05,-1.03,-1.35,0.00,2.73,0.18,9.50,0.01,-0.00,0.14,0.00
2026-06-26 19:06:11.344,994.06,994.05,-1.03,-1.35,0.00,2.73,0.18,9.50,0.01,-0.00,0.14,0.00
2026-06-26 19:06:11.347,994.06,994.05,-1.03,-1.35,0.00,2.73,0.18,9.50,0.01,-0.01,0.14,0.00
2026-06-26 19:06:11.349,994.06,994.05,-1.03,-1.35,0.00,2.51,0.18,9.45,0.01,-0.01,0.14,0.00
2026-06-26 19:06:11.350,994.06,994.05,-1.03,-1.35,0.00,2.51,0.18,9.45,0.01,-0.01,0.14,0.00
2026-06-26 19:06:11.430,994.06,994.05,-0.98,-1.31,0.00,2.23,0.10,9.48,0.02,-0.00,0.15,0.00
2026-06-26 19:06:11.431,994.06,994.05,-0.98,-1.31,0.00,2.23,0.10,9.48,0.02,-0.00,0.15,0.00
2026-06-26 19:06:11.433,994.06,994.05,-0.98,-1.31,0.00,2.23,0.10,9.48,0.02,-0.00,0.15,0.00
2026-06-26 19:06:11.434,994.06,994.05,-0.98,-1.31,0.00,2.23,0.10,9.48,0.02,-0.00,0.15,0.00
2026-06-26 19:06:11.436,994.06,994.05,-0.98,-1.31,0.00,2.23,0.10,9.48,0.02,-0.00,0.15,0.00
2026-06-26 19:06:11.438,994.06,994.05,-0.98,-1.31,0.00,2.16,0.11,9.55,0.02,0.00,0.15,0.00
2026-06-26 19:06:11.439,994.06,994.05,-0.98,-1.31,0.00,2.16,0.11,9.55,0.02,0.00,0.15,0.00
2026-06-26 19:06:11.441,994.06,994.05,-0.98,-1.31,0.00,2.16,0.11,9.55,0.02,0.00,0.15,0.00
2026-06-26 19:06:11.442,994.06,994.05,-0.98,-1.31,0.00,2.16,0.11,9.55,0.02,0.00,0.15,0.00
2026-06-26 19:06:11.446,994.06,994.05,-0.98,-1.31,0.00,2.16,0.11,9.55,0.02,0.00,0.15,0.00
2026-06-26 19:06:11.448,994.06,994.05,-0.98,-1.31,0.00,2.32,0.04,9.53,0.03,0.01,0.15,0.00
2026-06-26 19:06:11.450,994.06,994.05,-0.98,-1.31,0.00,2.32,0.04,9.53,0.03,0.01,0.15,0.00
2026-06-26 19:06:11.455,994.06,994.05,-0.98,-1.31,0.00,2.32,0.04,9.53,0.03,0.01,0.15,0.00
2026-06-26 19:06:11.457,994.06,994.05,-0.98,-1.31,0.00,2.27,0.06,9.45,0.02,0.02,0.15,0.00
2026-06-26 19:06:11.459,994.06,994.05,-0.98,-1.31,0.00,2.27,0.06,9.45,0.02,0.02,0.15,0.00
2026-06-26 19:06:11.461,994.06,994.05,-0.98,-1.31,0.00,2.27,0.06,9.45,0.02,0.02,0.15,0.00
2026-06-26 19:06:11.463,994.06,994.05,-0.98,-1.31,0.00,2.27,0.06,9.45,0.02,0.02,0.15,0.00
2026-06-26 19:06:11.467,994.06,994.05,-0.98,-1.31,0.00,2.27,0.06,9.45,0.03,0.02,0.16,0.00
2026-06-26 19:06:11.471,994.06,994.05,-0.98,-1.31,0.00,2.26,0.04,9.38,0.03,0.02,0.16,0.00
2026-06-26 19:06:11.473,994.06,994.05,-0.98,-1.31,0.00,2.26,0.04,9.38,0.03,0.02,0.16,0.00
2026-06-26 19:06:11.475,994.06,994.05,-0.98,-1.31,0.00,2.26,0.04,9.38,0.03,0.02,0.16,0.00
2026-06-26 19:06:11.477,994.06,994.05,-0.98,-1.31,0.00,2.26,0.04,9.38,0.03,0.02,0.16,0.00
2026-06-26 19:06:11.478,994.06,994.05,-0.98,-1.31,0.00,2.17,0.08,9.44,0.03,0.02,0.16,0.00
2026-06-26 19:06:11.480,994.06,994.05,-0.98,-1.31,0.00,2.17,0.08,9.44,0.03,0.02,0.16,0.00
2026-06-26 19:06:11.482,994.06,994.05,-0.98,-1.31,0.00,2.17,0.08,9.44,0.03,0.02,0.16,0.00
2026-06-26 19:06:11.483,994.06,994.05,-0.98,-1.31,0.00,2.17,0.08,9.44,0.03,0.02,0.16,0.00
2026-06-26 19:06:11.487,994.06,994.05,-0.98,-1.31,0.00,2.17,0.08,9.44,0.03,0.02,0.16,0.00
2026-06-26 19:06:11.489,994.06,994.05,-0.98,-1.31,0.00,2.07,0.03,9.52,0.03,0.01,0.16,0.00
2026-06-26 19:06:11.529,994.06,994.05,-0.98,-1.31,0.00,2.22,0.10,9.29,0.03,0.02,0.15,0.00
2026-06-26 19:06:11.572,994.06,994.05,-0.98,-1.31,0.00,1.77,0.40,10.98,0.05,0.09,0.18,0.00
2026-06-26 19:06:11.576,994.06,994.05,-0.98,-1.31,0.00,1.77,0.40,10.98,0.05,0.09,0.18,0.00
2026-06-26 19:06:11.579,994.06,994.05,-0.98,-1.31,0.00,2.20,-0.36,10.84,0.05,0.18,0.11,0.00
2026-06-26 19:06:11.581,994.06,994.05,-0.98,-1.31,0.00,2.20,-0.36,10.84,0.05,0.18,0.11,0.00
2026-06-26 19:06:11.582,994.06,994.05,-0.98,-1.31,0.00,2.20,-0.36,10.84,0.05,0.18,0.11,0.00
2026-06-26 19:06:11.584,994.06,994.05,-0.98,-1.31,0.00,2.20,-0.36,10.84,0.05,0.18,0.11,0.00
2026-06-26 19:06:11.585,994.06,994.05,-0.98,-1.31,0.00,2.20,-0.36,10.84,0.05,0.18,0.11,0.00
2026-06-26 19:06:11.587,994.06,994.05,-0.98,-1.31,0.00,2.20,-0.36,10.84,0.05,0.18,0.11,0.00
2026-06-26 19:06:11.588,994.06,994.05,-0.98,-1.31,0.00,2.99,-1.11,9.63,0.04,0.23,0.01,0.00
2026-06-26 19:06:11.590,994.06,994.05,-0.98,-1.31,0.00,2.99,-1.11,9.63,0.04,0.23,0.01,0.00
2026-06-26 19:06:11.591,994.06,994.05,-0.98,-1.31,0.00,2.99,-1.11,9.63,0.04,0.23,0.01,0.00
2026-06-26 19:06:11.594,994.06,994.05,-0.98,-1.31,0.00,2.99,-1.11,9.63,0.04,0.23,0.01,0.00
2026-06-26 19:06:11.598,994.06,994.05,-0.98,-1.31,0.00,2.99,-1.11,9.63,0.03,0.28,-0.09,0.00
2026-06-26 19:06:11.599,994.06,994.05,-0.98,-1.31,0.00,4.57,-0.72,9.41,0.03,0.28,-0.09,0.00
2026-06-26 19:06:11.601,994.06,994.05,-0.98,-1.31,0.00,4.57,-0.72,9.41,0.03,0.28,-0.09,0.00
2026-06-26 19:06:11.605,994.06,994.05,-0.98,-1.31,0.00,4.57,-0.72,9.41,0.03,0.28,-0.09,0.00
2026-06-26 19:06:11.608,994.06,994.05,-0.98,-1.31,0.00,4.57,-0.72,9.41,0.02,0.30,-0.16,0.00
2026-06-26 19:06:11.610,994.06,994.05,-0.98,-1.31,0.00,4.22,-0.53,9.07,0.02,0.30,-0.16,0.00
2026-06-26 19:06:11.611,994.06,994.05,-0.98,-1.31,0.00,4.22,-0.53,9.07,0.02,0.30,-0.16,0.00
2026-06-26 19:06:11.617,994.06,994.05,-0.98,-1.31,0.00,4.22,-0.53,9.07,0.02,0.30,-0.16,0.00
2026-06-26 19:06:11.619,994.06,994.05,-0.98,-1.31,0.00,1.24,-1.12,8.78,0.04,0.27,-0.15,0.00
2026-06-26 19:06:11.623,994.06,994.05,-0.98,-1.31,0.00,1.24,-1.12,8.78,0.04,0.27,-0.15,0.00
2026-06-26 19:06:11.625,994.06,994.05,-0.98,-1.31,0.00,1.24,-1.12,8.78,0.04,0.27,-0.15,0.00
2026-06-26 19:06:11.626,994.06,994.05,-0.98,-1.31,0.00,1.24,-1.12,8.78,0.04,0.27,-0.15,0.00
2026-06-26 19:06:11.630,994.06,994.05,-0.98,-1.31,0.00,-0.42,-1.45,9.97,0.06,0.27,-0.11,0.00
2026-06-26 19:06:11.718,994.06,994.05,-1.49,-1.62,0.00,2.33,-0.05,9.15,0.04,0.22,0.02,0.00
2026-06-26 19:06:11.720,994.06,994.05,-1.49,-1.62,0.00,3.06,-0.21,8.90,0.04,0.22,0.02,0.00
2026-06-26 19:06:11.721,994.06,994.05,-1.49,-1.62,0.00,3.06,-0.21,8.90,0.04,0.22,0.02,0.00
2026-06-26 19:06:11.723,994.06,994.05,-1.49,-1.62,0.00,3.06,-0.21,8.90,0.04,0.22,0.02,0.00
2026-06-26 19:06:11.725,994.06,994.05,-1.49,-1.62,0.00,3.06,-0.21,8.90,0.04,0.22,0.02,0.00
2026-06-26 19:06:11.726,994.06,994.05,-1.49,-1.62,0.00,3.06,-0.21,8.90,0.04,0.22,0.02,0.00
2026-06-26 19:06:11.728,994.06,994.05,-1.49,-1.62,0.00,3.06,-0.21,8.90,0.04,0.22,0.02,0.00
2026-06-26 19:06:11.730,994.06,994.05,-1.49,-1.62,0.00,1.67,0.03,9.69,0.03,0.16,0.03,0.00
2026-06-26 19:06:11.731,994.06,994.05,-1.49,-1.62,0.00,1.67,0.03,9.69,0.03,0.16,0.03,0.00
2026-06-26 19:06:11.733,994.06,994.05,-1.49,-1.62,0.00,1.67,0.03,9.69,0.03,0.16,0.03,0.00
2026-06-26 19:06:11.734,994.06,994.05,-1.49,-1.62,0.00,1.67,0.03,9.69,0.03,0.16,0.03,0.00
2026-06-26 19:06:11.736,994.06,994.05,-1.49,-1.62,0.00,1.67,0.03,9.69,0.03,0.16,0.03,0.00
2026-06-26 19:06:11.737,994.06,994.05,-1.49,-1.62,0.00,1.67,0.03,9.69,0.03,0.16,0.03,0.00
2026-06-26 19:06:11.739,994.06,994.05,-1.49,-1.62,0.00,0.71,-0.17,10.04,0.02,0.11,0.04,0.00
2026-06-26 19:06:11.741,994.06,994.05,-1.49,-1.62,0.00,0.71,-0.17,10.04,0.02,0.11,0.04,0.00
2026-06-26 19:06:11.746,994.06,994.05,-1.49,-1.62,0.00,0.71,-0.17,10.04,0.02,0.11,0.04,0.00
2026-06-26 19:06:11.749,994.06,994.05,-1.49,-1.62,0.00,-0.05,-0.32,10.11,0.03,0.09,0.03,0.00
2026-06-26 19:06:11.750,994.06,994.05,-1.49,-1.62,0.00,-0.05,-0.32,10.11,0.03,0.09,0.03,0.00
2026-06-26 19:06:11.752,994.06,994.05,-1.49,-1.62,0.00,-0.05,-0.32,10.11,0.03,0.09,0.03,0.00
2026-06-26 19:06:11.757,994.06,994.05,-1.49,-1.62,0.00,-0.05,-0.32,10.11,0.03,0.09,0.03,0.00
2026-06-26 19:06:11.759,994.06,994.05,-1.49,-1.62,0.00,0.04,-0.44,10.05,0.03,0.10,0.02,0.00
2026-06-26 19:06:11.761,994.06,994.05,-1.49,-1.62,0.00,0.04,-0.44,10.05,0.03,0.10,0.02,0.00
2026-06-26 19:06:11.765,994.06,994.05,-1.49,-1.62,0.00,0.04,-0.44,10.05,0.03,0.10,0.02,0.00
2026-06-26 19:06:11.768,994.06,994.05,-1.49,-1.62,0.00,0.04,-0.44,10.05,0.03,0.13,0.02,0.00
2026-06-26 19:06:11.770,994.06,994.05,-1.49,-1.62,0.00,2.77,0.11,9.54,0.03,0.13,0.02,0.00
2026-06-26 19:06:11.771,994.06,994.05,-1.49,-1.62,0.00,2.77,0.11,9.54,0.03,0.13,0.02,0.00
2026-06-26 19:06:11.773,994.06,994.05,-1.49,-1.62,0.00,2.77,0.11,9.54,0.03,0.13,0.02,0.00
2026-06-26 19:06:11.822,994.06,994.05,-1.25,-1.48,0.00,0.47,-0.04,10.21,0.02,0.07,0.04,0.00
2026-06-26 19:06:11.868,994.06,994.05,-1.14,-1.42,0.00,1.70,-0.17,9.82,0.02,0.09,0.01,0.00
2026-06-26 19:06:11.870,994.06,994.05,-1.14,-1.42,0.00,1.25,-0.04,10.06,0.02,0.09,-0.01,0.00
2026-06-26 19:06:11.872,994.06,994.05,-1.14,-1.42,0.00,1.25,-0.04,10.06,0.02,0.09,-0.01,0.00
2026-06-26 19:06:11.873,994.06,994.05,-1.14,-1.42,0.00,1.25,-0.04,10.06,0.02,0.09,-0.01,0.00
2026-06-26 19:06:11.875,994.06,994.05,-1.14,-1.42,0.00,1.25,-0.04,10.06,0.02,0.09,-0.01,0.00
2026-06-26 19:06:11.876,994.06,994.05,-1.14,-1.42,0.00,1.25,-0.04,10.06,0.02,0.09,-0.01,0.00
2026-06-26 19:06:11.878,994.06,994.05,-1.14,-1.42,0.00,1.25,-0.04,10.06,0.02,0.11,-0.02,0.00
2026-06-26 19:06:11.880,994.06,994.05,-1.14,-1.42,0.00,0.93,0.32,9.77,0.02,0.11,-0.02,0.00
2026-06-26 19:06:11.881,994.06,994.05,-1.14,-1.42,0.00,0.93,0.32,9.77,0.02,0.11,-0.02,0.00
2026-06-26 19:06:11.883,994.06,994.05,-1.14,-1.42,0.00,0.93,0.32,9.77,0.02,0.11,-0.02,0.00
2026-06-26 19:06:11.885,994.06,994.05,-1.14,-1.42,0.00,0.93,0.32,9.77,0.02,0.11,-0.02,0.00
2026-06-26 19:06:11.889,994.06,994.05,-1.14,-1.42,0.00,0.93,0.32,9.77,0.02,0.14,-0.03,0.00
2026-06-26 19:06:11.890,994.06,994.05,-1.14,-1.42,0.00,1.79,0.30,9.40,0.02,0.14,-0.03,0.00
2026-06-26 19:06:11.892,994.06,994.05,-1.14,-1.42,0.00,1.79,0.30,9.40,0.02,0.14,-0.03,0.00
2026-06-26 19:06:11.894,994.06,994.05,-1.14,-1.42,0.00,1.79,0.30,9.40,0.02,0.14,-0.03,0.00
2026-06-26 19:06:11.898,994.06,994.05,-1.14,-1.42,0.00,1.79,0.30,9.40,0.03,0.16,-0.03,0.00
2026-06-26 19:06:11.900,994.06,994.05,-1.14,-1.42,0.00,2.48,0.35,9.35,0.03,0.16,-0.03,0.00
2026-06-26 19:06:11.901,994.06,994.05,-1.14,-1.42,0.00,2.48,0.35,9.35,0.03,0.16,-0.03,0.00
2026-06-26 19:06:11.905,994.06,994.05,-1.14,-1.42,0.00,2.48,0.35,9.35,0.03,0.16,-0.03,0.00
2026-06-26 19:06:11.908,994.06,994.05,-1.14,-1.42,0.00,2.48,0.35,9.35,0.02,0.16,-0.02,0.00
2026-06-26 19:06:11.910,994.06,994.05,-1.14,-1.42,0.00,1.82,0.39,9.56,0.02,0.16,-0.02,0.00
2026-06-26 19:06:11.911,994.06,994.05,-1.14,-1.42,0.00,1.82,0.39,9.56,0.02,0.16,-0.02,0.00
2026-06-26 19:06:11.917,994.06,994.05,-1.14,-1.42,0.00,1.82,0.39,9.56,0.02,0.16,-0.02,0.00
2026-06-26 19:06:11.958,994.06,994.05,-1.03,-1.34,0.00,1.99,0.09,9.80,0.02,0.22,-0.07,0.00
2026-06-26 19:06:11.960,994.06,994.05,-1.03,-1.34,0.00,2.29,0.15,9.53,0.02,0.22,-0.07,0.00
2026-06-26 19:06:11.961,994.06,994.05,-1.03,-1.34,0.00,2.29,0.15,9.53,0.02,0.22,-0.07,0.00
2026-06-26 19:06:11.965,994.06,994.05,-1.03,-1.34,0.00,2.29,0.15,9.53,0.02,0.22,-0.07,0.00
2026-06-26 19:06:12.009,994.06,994.05,-0.89,-1.25,0.00,1.04,0.39,9.71,0.03,0.25,-0.08,0.00
2026-06-26 19:06:12.011,994.06,994.05,-0.89,-1.25,0.00,1.04,0.39,9.71,0.03,0.25,-0.08,0.00
2026-06-26 19:06:12.012,994.06,994.05,-0.89,-1.25,0.00,1.04,0.39,9.71,0.03,0.25,-0.08,0.00
2026-06-26 19:06:12.018,994.06,994.05,-0.89,-1.25,0.00,1.04,0.39,9.71,0.02,0.24,-0.08,0.00
2026-06-26 19:06:12.020,994.06,994.05,-0.89,-1.25,0.00,1.81,0.28,9.57,0.02,0.24,-0.08,0.00
2026-06-26 19:06:12.021,994.06,994.05,-0.89,-1.25,0.00,1.81,0.28,9.57,0.02,0.24,-0.08,0.00
2026-06-26 19:06:12.023,994.06,994.05,-0.89,-1.25,0.00,1.81,0.28,9.57,0.02,0.24,-0.08,0.00
2026-06-26 19:06:12.024,994.06,994.05,-0.89,-1.25,0.00,1.81,0.28,9.57,0.02,0.24,-0.08,0.00
2026-06-26 19:06:12.026,994.06,994.05,-0.89,-1.25,0.00,1.81,0.28,9.57,0.02,0.24,-0.08,0.00
2026-06-26 19:06:12.029,994.06,994.05,-0.89,-1.25,0.00,1.81,0.28,9.57,0.03,0.24,-0.08,0.00
2026-06-26 19:06:12.031,994.06,994.05,-0.89,-1.25,0.00,1.49,0.27,9.63,0.03,0.24,-0.08,0.00
2026-06-26 19:06:12.032,994.06,994.05,-0.89,-1.25,0.00,1.49,0.27,9.63,0.03,0.24,-0.08,0.00
2026-06-26 19:06:12.034,994.06,994.05,-0.89,-1.25,0.00,1.49,0.27,9.63,0.03,0.24,-0.08,0.00
2026-06-26 19:06:12.035,994.06,994.05,-0.89,-1.25,0.00,1.49,0.27,9.63,0.03,0.24,-0.08,0.00
2026-06-26 19:06:12.037,994.06,994.05,-0.89,-1.25,0.00,1.49,0.27,9.63,0.03,0.24,-0.08,0.00
2026-06-26 19:06:12.039,994.06,994.05,-0.89,-1.25,0.00,1.27,0.18,9.68,0.02,0.23,-0.09,0.00
2026-06-26 19:06:12.041,994.06,994.05,-0.89,-1.25,0.00,1.27,0.18,9.68,0.02,0.23,-0.09,0.00
2026-06-26 19:06:12.042,994.06,994.05,-0.89,-1.25,0.00,1.27,0.18,9.68,0.02,0.23,-0.09,0.00
2026-06-26 19:06:12.044,994.06,994.05,-0.89,-1.25,0.00,1.27,0.18,9.68,0.02,0.23,-0.09,0.00
2026-06-26 19:06:12.048,994.06,994.05,-0.89,-1.25,0.00,1.27,0.18,9.68,0.02,0.23,-0.09,0.00
2026-06-26 19:06:12.052,994.06,994.05,-0.89,-1.25,0.00,1.14,0.12,9.78,0.03,0.24,-0.10,0.00
2026-06-26 19:06:12.058,994.06,994.05,-0.89,-1.25,0.00,1.14,0.12,9.78,0.03,0.24,-0.10,0.00
2026-06-26 19:06:12.102,994.06,994.05,-1.07,-1.37,0.00,0.89,0.40,9.68,0.02,0.24,-0.11,0.00
2026-06-26 19:06:12.105,994.06,994.05,-1.07,-1.37,0.00,0.89,0.40,9.68,0.02,0.24,-0.11,0.00
2026-06-26 19:06:12.109,994.06,994.05,-1.07,-1.37,0.00,0.89,0.40,9.68,0.02,0.23,-0.10,0.00
2026-06-26 19:06:12.152,994.06,994.05,-0.90,-1.25,0.00,1.12,0.36,9.64,0.02,0.21,-0.08,0.00
2026-06-26 19:06:12.154,994.06,994.05,-0.90,-1.25,0.00,1.12,0.36,9.64,0.02,0.21,-0.08,0.00
2026-06-26 19:06:12.158,994.06,994.05,-0.90,-1.25,0.00,1.12,0.36,9.64,0.02,0.20,-0.09,0.00
2026-06-26 19:06:12.160,994.06,994.05,-0.90,-1.25,0.00,0.75,0.40,9.77,0.02,0.20,-0.09,0.00
2026-06-26 19:06:12.161,994.06,994.05,-0.90,-1.25,0.00,0.75,0.40,9.77,0.02,0.20,-0.09,0.00
2026-06-26 19:06:12.163,994.06,994.05,-0.90,-1.25,0.00,0.75,0.40,9.77,0.02,0.20,-0.09,0.00
2026-06-26 19:06:12.167,994.06,994.05,-0.90,-1.25,0.00,0.75,0.40,9.77,0.02,0.20,-0.09,0.00
2026-06-26 19:06:12.171,994.06,994.05,-0.90,-1.25,0.00,0.68,0.36,9.74,0.02,0.18,-0.08,0.00
2026-06-26 19:06:12.174,994.06,994.05,-0.90,-1.25,0.00,0.68,0.36,9.74,0.02,0.18,-0.08,0.00
2026-06-26 19:06:12.175,994.06,994.05,-0.90,-1.25,0.00,0.68,0.36,9.74,0.02,0.18,-0.08,0.00
2026-06-26 19:06:12.177,994.06,994.05,-0.90,-1.25,0.00,0.68,0.36,9.74,0.02,0.18,-0.08,0.00
2026-06-26 19:06:12.181,994.06,994.05,-0.90,-1.25,0.00,0.62,0.36,9.74,0.02,0.18,-0.07,0.00
2026-06-26 19:06:12.182,994.06,994.05,-0.90,-1.25,0.00,0.62,0.36,9.74,0.02,0.18,-0.07,0.00
2026-06-26 19:06:12.184,994.06,994.05,-0.90,-1.25,0.00,0.62,0.36,9.74,0.02,0.18,-0.07,0.00
2026-06-26 19:06:12.186,994.06,994.05,-0.90,-1.25,0.00,0.62,0.36,9.74,0.02,0.18,-0.07,0.00
2026-06-26 19:06:12.187,994.06,994.05,-0.90,-1.25,0.00,0.62,0.36,9.74,0.02,0.18,-0.07,0.00
2026-06-26 19:06:12.189,994.06,994.05,-0.90,-1.25,0.00,0.62,0.36,9.74,0.02,0.17,-0.07,0.00
2026-06-26 19:06:12.190,994.06,994.05,-0.90,-1.25,0.00,0.67,0.37,9.73,0.02,0.17,-0.07,0.00
2026-06-26 19:06:12.192,994.06,994.05,-0.90,-1.25,0.00,0.67,0.37,9.73,0.02,0.17,-0.07,0.00
2026-06-26 19:06:12.193,994.06,994.05,-0.90,-1.25,0.00,0.67,0.37,9.73,0.02,0.17,-0.07,0.00
2026-06-26 19:06:12.199,994.06,994.05,-0.90,-1.25,0.00,0.67,0.37,9.73,0.02,0.17,-0.07,0.00
2026-06-26 19:06:12.201,994.06,994.05,-0.90,-1.25,0.00,0.82,0.34,9.64,0.02,0.16,-0.06,0.00
2026-06-26 19:06:12.239,994.06,994.05,-0.67,-1.09,0.00,0.61,0.28,9.77,0.01,0.10,-0.04,0.00
2026-06-26 19:06:12.241,994.06,994.05,-0.67,-1.09,0.00,0.61,0.30,9.76,0.01,0.10,-0.04,0.00
2026-06-26 19:06:12.243,994.06,994.05,-0.67,-1.09,0.00,0.61,0.30,9.76,0.01,0.10,-0.04,0.00
2026-06-26 19:06:12.244,994.06,994.05,-0.67,-1.09,0.00,0.61,0.30,9.76,0.01,0.10,-0.04,0.00
2026-06-26 19:06:12.248,994.06,994.05,-0.67,-1.09,0.00,0.61,0.30,9.76,0.01,0.10,-0.04,0.00
2026-06-26 19:06:12.250,994.06,994.05,-0.67,-1.09,0.00,0.67,0.34,9.74,0.01,0.09,-0.03,0.00
2026-06-26 19:06:12.251,994.06,994.05,-0.67,-1.09,0.00,0.67,0.34,9.74,0.01,0.09,-0.03,0.00
2026-06-26 19:06:12.291,994.06,994.05,-0.30,-0.72,0.00,0.33,0.36,9.74,0.00,0.03,0.00,0.00
2026-06-26 19:06:12.292,994.06,994.05,-0.30,-0.72,0.00,0.33,0.36,9.74,0.00,0.03,0.00,0.00
2026-06-26 19:06:12.298,994.06,994.05,-0.30,-0.72,0.00,0.33,0.36,9.74,0.00,0.03,0.00,0.00
2026-06-26 19:06:12.300,994.06,994.05,-0.30,-0.72,0.00,0.43,0.35,9.71,0.00,0.01,0.01,0.00
2026-06-26 19:06:12.302,994.06,994.05,-0.30,-0.72,0.00,0.43,0.35,9.71,0.00,0.01,0.01,0.00
2026-06-26 19:06:12.307,994.06,994.05,-0.30,-0.72,0.00,0.43,0.35,9.71,0.00,0.01,0.01,0.00
2026-06-26 19:06:12.309,994.06,994.05,-0.30,-0.72,0.00,0.29,0.26,9.82,-0.00,-0.01,0.02,0.00
2026-06-26 19:06:12.313,994.06,994.05,-0.30,-0.72,0.00,0.29,0.26,9.82,-0.00,-0.01,0.02,0.00
2026-06-26 19:06:12.319,994.06,994.05,-0.30,-0.72,0.00,0.29,0.26,9.82,-0.00,-0.01,0.02,0.00
2026-06-26 19:06:12.320,994.06,994.05,-0.30,-0.72,0.00,0.28,0.28,9.77,-0.00,-0.02,0.02,0.00
2026-06-26 19:06:12.322,994.06,994.05,-0.30,-0.72,0.00,0.28,0.28,9.77,-0.00,-0.02,0.02,0.00
2026-06-26 19:06:12.323,994.06,994.05,-0.30,-0.72,0.00,0.28,0.28,9.77,-0.00,-0.02,0.02,0.00
2026-06-26 19:06:12.325,994.06,994.05,-0.30,-0.72,0.00,0.28,0.28,9.77,-0.00,-0.02,0.02,0.00
2026-06-26 19:06:12.326,994.06,994.05,-0.30,-0.72,0.00,0.28,0.28,9.77,-0.00,-0.02,0.02,0.00
2026-06-26 19:06:12.328,994.06,994.05,-0.30,-0.72,0.00,0.28,0.28,9.77,-0.00,-0.02,0.02,0.00
2026-06-26 19:06:12.329,994.06,994.05,-0.30,-0.72,0.00,0.28,0.28,9.77,-0.00,-0.04,0.01,0.00
2026-06-26 19:06:12.331,994.06,994.05,-0.30,-0.72,0.00,0.44,0.26,9.85,-0.00,-0.04,0.01,0.00
2026-06-26 19:06:12.333,994.06,994.05,-0.30,-0.72,0.00,0.44,0.26,9.85,-0.00,-0.04,0.01,0.00
2026-06-26 19:06:12.335,994.06,994.05,-0.30,-0.72,0.00,0.44,0.26,9.85,-0.00,-0.04,0.01,0.00
2026-06-26 19:06:12.337,994.06,994.05,-0.30,-0.72,0.00,0.44,0.26,9.85,-0.00,-0.04,0.01,0.00
2026-06-26 19:06:12.341,994.06,994.05,-0.30,-0.72,0.00,0.44,0.26,9.85,-0.01,-0.07,0.00,0.00
2026-06-26 19:06:12.384,994.06,994.05,-0.19,-0.57,0.00,0.21,0.63,9.70,-0.03,-0.17,0.05,0.00
2026-06-26 19:06:12.385,994.06,994.05,-0.19,-0.57,0.00,0.21,0.63,9.70,-0.03,-0.17,0.05,0.00
2026-06-26 19:06:12.387,994.06,994.05,-0.19,-0.57,0.00,0.21,0.63,9.70,-0.03,-0.17,0.05,0.00
2026-06-26 19:06:12.390,994.06,994.05,-0.19,-0.57,0.00,0.21,0.63,9.70,-0.03,-0.20,0.07,0.00
2026-06-26 19:06:12.433,994.06,994.05,-0.19,-0.57,0.00,0.77,0.44,9.75,-0.04,-0.25,0.04,0.00
2026-06-26 19:06:12.434,994.06,994.05,-0.19,-0.57,0.00,0.77,0.44,9.75,-0.04,-0.25,0.04,0.00
2026-06-26 19:06:12.436,994.06,994.05,-0.19,-0.57,0.00,0.77,0.44,9.75,-0.04,-0.25,0.04,0.00
2026-06-26 19:06:12.438,994.06,994.05,-0.19,-0.57,0.00,0.77,0.44,9.75,-0.04,-0.25,0.04,0.00
2026-06-26 19:06:12.442,994.06,994.05,-0.19,-0.57,0.00,0.94,0.60,9.74,-0.04,-0.25,0.03,0.00
2026-06-26 19:06:12.447,994.06,994.05,-0.19,-0.57,0.00,0.94,0.60,9.74,-0.04,-0.25,0.03,0.00
2026-06-26 19:06:12.450,994.06,994.05,-0.19,-0.57,0.00,1.16,0.83,9.59,-0.04,-0.25,0.03,0.00
2026-06-26 19:06:12.452,994.06,994.05,-0.19,-0.57,0.00,1.16,0.83,9.59,-0.04,-0.25,0.03,0.00
2026-06-26 19:06:12.458,994.06,994.05,-0.19,-0.57,0.00,1.16,0.83,9.59,-0.04,-0.25,0.03,0.00
2026-06-26 19:06:12.460,994.06,994.05,-0.19,-0.57,0.00,1.26,0.94,9.54,-0.04,-0.25,0.04,0.00
2026-06-26 19:06:12.462,994.06,994.05,-0.19,-0.57,0.00,1.26,0.94,9.54,-0.04,-0.25,0.04,0.00
2026-06-26 19:06:12.468,994.06,994.05,-0.19,-0.57,0.00,1.26,0.94,9.54,-0.04,-0.25,0.04,0.00
2026-06-26 19:06:12.470,994.06,994.05,-0.19,-0.57,0.00,1.49,1.02,9.57,-0.04,-0.23,0.05,0.00
2026-06-26 19:06:12.472,994.06,994.05,-0.19,-0.57,0.00,1.49,1.02,9.57,-0.04,-0.23,0.05,0.00
2026-06-26 19:06:12.473,994.06,994.05,-0.19,-0.57,0.00,1.49,1.02,9.57,-0.04,-0.23,0.05,0.00
2026-06-26 19:06:12.475,994.06,994.05,-0.19,-0.57,0.00,1.49,1.02,9.57,-0.04,-0.23,0.05,0.00
2026-06-26 19:06:12.477,994.06,994.05,-0.19,-0.57,0.00,1.49,1.02,9.57,-0.04,-0.23,0.05,0.00
2026-06-26 19:06:12.478,994.06,994.05,-0.19,-0.57,0.00,1.49,1.02,9.57,-0.04,-0.23,0.05,0.00
2026-06-26 19:06:12.480,994.06,994.05,-0.19,-0.57,0.00,1.92,0.97,9.66,-0.03,-0.22,0.06,0.00
2026-06-26 19:06:12.481,994.06,994.05,-0.19,-0.57,0.00,1.92,0.97,9.66,-0.03,-0.22,0.06,0.00
2026-06-26 19:06:12.483,994.06,994.05,-0.19,-0.57,0.00,1.92,0.97,9.66,-0.03,-0.22,0.06,0.00
2026-06-26 19:06:12.524,994.06,994.05,-0.25,-0.66,0.00,2.73,0.62,9.80,-0.01,-0.06,-0.01,0.00
2026-06-26 19:06:12.525,994.06,994.05,-0.25,-0.66,0.00,2.73,0.62,9.80,-0.01,-0.06,-0.01,0.00
2026-06-26 19:06:12.527,994.06,994.05,-0.25,-0.66,0.00,2.73,0.62,9.80,-0.01,-0.06,-0.01,0.00
2026-06-26 19:06:12.529,994.06,994.05,-0.25,-0.66,0.00,2.73,0.62,9.80,-0.01,-0.06,-0.01,0.00
2026-06-26 19:06:12.530,994.06,994.05,-0.25,-0.66,0.00,2.70,0.68,9.72,-0.01,-0.00,-0.05,0.00
2026-06-26 19:06:12.532,994.06,994.05,-0.25,-0.66,0.00,2.70,0.68,9.72,-0.01,-0.00,-0.05,0.00
2026-06-26 19:06:12.570,994.06,994.05,-0.36,-0.79,0.00,2.25,0.60,9.66,0.02,0.19,-0.11,0.00
2026-06-26 19:06:12.572,994.06,994.05,-0.36,-0.79,0.00,2.25,0.60,9.66,0.02,0.19,-0.11,0.00
2026-06-26 19:06:12.574,994.06,994.05,-0.36,-0.79,0.00,2.25,0.60,9.66,0.02,0.19,-0.11,0.00
2026-06-26 19:06:12.575,994.06,994.05,-0.36,-0.79,0.00,2.25,0.60,9.66,0.02,0.19,-0.11,0.00
2026-06-26 19:06:12.577,994.06,994.05,-0.36,-0.79,0.00,2.25,0.60,9.66,0.02,0.19,-0.11,0.00
2026-06-26 19:06:12.578,994.06,994.05,-0.36,-0.79,0.00,2.25,0.60,9.66,0.02,0.19,-0.11,0.00
2026-06-26 19:06:12.580,994.06,994.05,-0.36,-0.79,0.00,2.25,0.60,9.66,0.02,0.22,-0.11,0.00
2026-06-26 19:06:12.583,994.06,994.05,-0.36,-0.79,0.00,2.20,0.63,9.62,0.02,0.22,-0.11,0.00
2026-06-26 19:06:12.584,994.06,994.05,-0.36,-0.79,0.00,2.20,0.63,9.62,0.02,0.22,-0.11,0.00
2026-06-26 19:06:12.586,994.06,994.05,-0.36,-0.79,0.00,2.20,0.63,9.62,0.02,0.22,-0.11,0.00
2026-06-26 19:06:12.589,994.06,994.05,-0.36,-0.79,0.00,2.20,0.63,9.62,0.02,0.22,-0.11,0.00
2026-06-26 19:06:12.594,994.06,994.05,-0.36,-0.79,0.00,1.79,0.64,9.60,0.03,0.25,-0.11,0.00
2026-06-26 19:06:12.600,994.06,994.05,-0.36,-0.79,0.00,1.79,0.64,9.60,0.03,0.27,-0.11,0.00
2026-06-26 19:06:12.602,994.06,994.05,-0.36,-0.79,0.00,1.60,0.55,9.58,0.03,0.27,-0.11,0.00
2026-06-26 19:06:12.605,994.06,994.05,-0.36,-0.79,0.00,1.60,0.55,9.58,0.03,0.27,-0.11,0.00
2026-06-26 19:06:12.609,994.06,994.05,-0.36,-0.79,0.00,1.60,0.55,9.58,0.03,0.29,-0.10,0.00
2026-06-26 19:06:12.611,994.06,994.05,-0.36,-0.79,0.00,1.54,0.55,9.65,0.03,0.29,-0.10,0.00
2026-06-26 19:06:12.612,994.06,994.05,-0.36,-0.79,0.00,1.54,0.55,9.65,0.03,0.29,-0.10,0.00
2026-06-26 19:06:12.616,994.06,994.05,-0.36,-0.79,0.00,1.54,0.55,9.65,0.03,0.29,-0.10,0.00
2026-06-26 19:06:12.620,994.06,994.05,-0.36,-0.79,0.00,1.54,0.55,9.65,0.04,0.30,-0.10,0.00
2026-06-26 19:06:12.622,994.06,994.05,-0.36,-0.79,0.00,1.44,0.51,9.67,0.04,0.30,-0.10,0.00
2026-06-26 19:06:12.671,994.06,994.06,-0.00,-0.08,0.00,-0.02,0.18,9.86,0.03,0.26,-0.14,0.00
2026-06-26 19:06:12.719,994.06,994.06,-0.00,-0.08,0.00,-1.20,0.12,9.82,0.00,0.04,-0.04,0.00
2026-06-26 19:06:12.721,994.06,994.06,-0.00,-0.08,0.00,-1.12,0.07,9.80,-0.01,-0.02,-0.01,0.00
2026-06-26 19:06:12.723,994.06,994.06,-0.00,-0.08,0.00,-1.12,0.07,9.80,-0.01,-0.02,-0.01,0.00
2026-06-26 19:06:12.724,994.06,994.06,-0.00,-0.08,0.00,-1.12,0.07,9.80,-0.01,-0.02,-0.01,0.00
2026-06-26 19:06:12.728,994.06,994.06,-0.00,-0.08,0.00,-1.12,0.07,9.80,-0.01,-0.02,-0.01,0.00
2026-06-26 19:06:12.731,994.06,994.06,-0.00,-0.08,0.00,-0.62,0.04,9.85,-0.01,-0.09,0.01,0.00
2026-06-26 19:06:12.733,994.06,994.06,-0.00,-0.08,0.00,-0.62,0.04,9.85,-0.01,-0.09,0.01,0.00
2026-06-26 19:06:12.734,994.06,994.06,-0.00,-0.08,0.00,-0.62,0.04,9.85,-0.01,-0.09,0.01,0.00
2026-06-26 19:06:12.736,994.06,994.06,-0.00,-0.08,0.00,-0.62,0.04,9.85,-0.01,-0.09,0.01,0.00
2026-06-26 19:06:12.737,994.06,994.06,-0.00,-0.08,0.00,-0.62,0.04,9.85,-0.01,-0.09,0.01,0.00
2026-06-26 19:06:12.741,994.06,994.06,-0.00,-0.08,0.00,-0.46,0.10,9.85,-0.02,-0.15,0.02,0.00
2026-06-26 19:06:12.743,994.06,994.06,-0.00,-0.08,0.00,-0.46,0.10,9.85,-0.02,-0.15,0.02,0.00
2026-06-26 19:06:12.744,994.06,994.06,-0.00,-0.08,0.00,-0.46,0.10,9.85,-0.02,-0.15,0.02,0.00
2026-06-26 19:06:12.749,994.06,994.06,-0.00,-0.08,0.00,-0.46,0.10,9.85,-0.02,-0.15,0.02,0.00
2026-06-26 19:06:12.751,994.06,994.06,-0.00,-0.08,0.00,-0.35,0.04,9.76,-0.03,-0.21,0.03,0.00
2026-06-26 19:06:12.752,994.06,994.06,-0.00,-0.08,0.00,-0.35,0.04,9.76,-0.03,-0.21,0.03,0.00
2026-06-26 19:06:12.759,994.06,994.06,-0.00,-0.08,0.00,-0.35,0.04,9.76,-0.03,-0.21,0.03,0.00
2026-06-26 19:06:12.761,994.06,994.06,-0.00,-0.08,0.00,-0.22,-0.06,9.74,-0.03,-0.25,0.05,0.00
2026-06-26 19:06:12.763,994.06,994.06,-0.00,-0.08,0.00,-0.22,-0.06,9.74,-0.03,-0.25,0.05,0.00
2026-06-26 19:06:12.766,994.06,994.06,-0.00,-0.08,0.00,-0.22,-0.06,9.74,-0.03,-0.25,0.05,0.00
2026-06-26 19:06:12.810,994.06,994.06,-0.00,-0.08,0.00,1.02,0.26,9.64,-0.05,-0.36,0.09,0.00
2026-06-26 19:06:12.811,994.06,994.06,-0.00,-0.08,0.00,1.16,0.23,9.66,-0.05,-0.37,0.10,0.00
2026-06-26 19:06:12.813,994.06,994.06,-0.00,-0.08,0.00,1.16,0.23,9.66,-0.05,-0.37,0.10,0.00
2026-06-26 19:06:12.820,994.06,994.06,-0.00,-0.08,0.00,1.16,0.23,9.66,-0.05,-0.37,0.10,0.00
2026-06-26 19:06:12.863,994.06,994.06,-0.35,-0.78,0.00,2.00,0.18,9.70,-0.04,-0.31,0.09,0.00
2026-06-26 19:06:12.870,994.06,994.06,-0.35,-0.78,0.00,2.12,0.16,9.73,-0.04,-0.31,0.09,0.00
2026-06-26 19:06:12.871,994.06,994.06,-0.35,-0.78,0.00,2.16,0.14,9.70,-0.04,-0.28,0.08,0.00
2026-06-26 19:06:12.873,994.06,994.06,-0.35,-0.78,0.00,2.16,0.14,9.70,-0.04,-0.28,0.08,0.00
2026-06-26 19:06:12.874,994.06,994.06,-0.35,-0.78,0.00,2.16,0.14,9.70,-0.04,-0.28,0.08,0.00
2026-06-26 19:06:12.876,994.06,994.06,-0.35,-0.78,0.00,2.16,0.14,9.70,-0.04,-0.28,0.08,0.00
2026-06-26 19:06:12.879,994.06,994.06,-0.35,-0.78,0.00,2.16,0.14,9.70,-0.04,-0.28,0.08,0.00
2026-06-26 19:06:12.881,994.06,994.06,-0.35,-0.78,0.00,2.19,0.11,9.70,-0.03,-0.24,0.06,0.00
2026-06-26 19:06:12.882,994.06,994.06,-0.35,-0.78,0.00,2.19,0.11,9.70,-0.03,-0.24,0.06,0.00
2026-06-26 19:06:12.884,994.06,994.06,-0.35,-0.78,0.00,2.19,0.11,9.70,-0.03,-0.24,0.06,0.00
2026-06-26 19:06:12.885,994.06,994.06,-0.35,-0.78,0.00,2.19,0.11,9.70,-0.03,-0.24,0.06,0.00
2026-06-26 19:06:12.886,994.06,994.06,-0.35,-0.78,0.00,2.19,0.11,9.70,-0.03,-0.24,0.06,0.00
2026-06-26 19:06:12.888,994.06,994.06,-0.35,-0.78,0.00,2.19,0.11,9.70,-0.03,-0.24,0.06,0.00
2026-06-26 19:06:12.890,994.06,994.06,-0.35,-0.78,0.00,2.19,0.11,9.70,-0.03,-0.24,0.06,0.00
2026-06-26 19:06:12.891,994.06,994.06,-0.35,-0.78,0.00,2.28,0.08,9.69,-0.03,-0.20,0.04,0.00
2026-06-26 19:06:12.893,994.06,994.06,-0.35,-0.78,0.00,2.28,0.08,9.69,-0.03,-0.20,0.04,0.00
2026-06-26 19:06:12.894,994.06,994.06,-0.35,-0.78,0.00,2.28,0.08,9.69,-0.03,-0.20,0.04,0.00
2026-06-26 19:06:12.895,994.06,994.06,-0.35,-0.78,0.00,2.28,0.08,9.69,-0.03,-0.20,0.04,0.00
2026-06-26 19:06:12.899,994.06,994.06,-0.35,-0.78,0.00,2.28,0.08,9.69,-0.03,-0.20,0.04,0.00
2026-06-26 19:06:12.901,994.06,994.06,-0.35,-0.78,0.00,2.75,0.20,9.75,-0.02,-0.15,0.03,0.00
2026-06-26 19:06:12.902,994.06,994.06,-0.35,-0.78,0.00,2.75,0.20,9.75,-0.02,-0.15,0.03,0.00
2026-06-26 19:06:12.904,994.06,994.06,-0.35,-0.78,0.00,2.75,0.20,9.75,-0.02,-0.15,0.03,0.00
2026-06-26 19:06:12.950,994.06,994.06,-0.20,-0.60,0.00,2.65,-1.91,9.91,0.02,0.05,0.00,0.00
2026-06-26 19:06:12.952,994.06,994.06,-0.20,-0.60,0.00,0.83,-1.57,9.83,0.02,0.05,0.00,0.00
2026-06-26 19:06:12.953,994.06,994.06,-0.20,-0.60,0.00,0.83,-1.57,9.83,0.02,0.05,0.00,0.00
2026-06-26 19:06:12.955,994.06,994.06,-0.20,-0.60,0.00,0.83,-1.57,9.83,0.02,0.05,0.00,0.00
2026-06-26 19:06:12.960,994.06,994.06,-0.20,-0.60,0.00,0.83,-1.57,9.83,0.02,0.05,0.00,0.00
2026-06-26 19:06:12.002,994.06,994.06,-0.31,-0.74,0.00,0.39,0.44,10.20,0.02,0.18,-0.07,0.00
2026-06-26 19:06:13.004,994.06,994.06,-0.31,-0.74,0.00,0.39,0.44,10.20,0.02,0.18,-0.07,0.00
2026-06-26 19:06:13.010,994.06,994.06,-0.31,-0.74,0.00,0.39,0.44,10.20,0.02,0.18,-0.07,0.00
2026-06-26 19:06:13.011,994.06,994.06,-0.31,-0.74,0.00,0.49,0.54,10.33,0.02,0.18,-0.06,0.00
2026-06-26 19:06:13.013,994.06,994.06,-0.31,-0.74,0.00,0.49,0.54,10.33,0.02,0.18,-0.06,0.00
2026-06-26 19:06:13.014,994.06,994.06,-0.31,-0.74,0.00,0.49,0.54,10.33,0.02,0.18,-0.06,0.00
2026-06-26 19:06:13.020,994.06,994.06,-0.31,-0.74,0.00,0.49,0.54,10.33,0.02,0.18,-0.06,0.00
2026-06-26 19:06:13.021,994.06,994.06,-0.31,-0.74,0.00,1.08,0.13,9.26,0.03,0.18,-0.06,0.00
2026-06-26 19:06:13.023,994.06,994.06,-0.31,-0.74,0.00,1.08,0.13,9.26,0.03,0.18,-0.06,0.00
2026-06-26 19:06:13.024,994.06,994.06,-0.31,-0.74,0.00,1.08,0.13,9.26,0.03,0.18,-0.06,0.00
2026-06-26 19:06:13.026,994.06,994.06,-0.31,-0.74,0.00,1.08,0.13,9.26,0.03,0.18,-0.06,0.00
2026-06-26 19:06:13.027,994.06,994.06,-0.31,-0.74,0.00,1.08,0.13,9.26,0.03,0.18,-0.06,0.00
2026-06-26 19:06:13.031,994.06,994.06,-0.31,-0.74,0.00,1.08,0.13,9.26,0.03,0.15,-0.05,0.00
2026-06-26 19:06:13.032,994.06,994.06,-0.31,-0.74,0.00,1.17,0.22,9.20,0.03,0.15,-0.05,0.00
2026-06-26 19:06:13.034,994.06,994.06,-0.31,-0.74,0.00,1.17,0.22,9.20,0.03,0.15,-0.05,0.00
2026-06-26 19:06:13.035,994.06,994.06,-0.31,-0.74,0.00,1.17,0.22,9.20,0.03,0.15,-0.05,0.00
2026-06-26 19:06:13.037,994.06,994.06,-0.31,-0.74,0.00,1.17,0.22,9.20,0.03,0.15,-0.05,0.00
2026-06-26 19:06:13.038,994.06,994.06,-0.31,-0.74,0.00,1.17,0.22,9.20,0.03,0.15,-0.05,0.00
2026-06-26 19:06:13.040,994.06,994.06,-0.31,-0.74,0.00,1.17,0.22,9.20,0.03,0.15,-0.05,0.00
2026-06-26 19:06:13.042,994.06,994.06,-0.31,-0.74,0.00,0.73,0.33,9.55,0.02,0.11,-0.03,0.00
2026-06-26 19:06:13.043,994.06,994.06,-0.31,-0.74,0.00,0.73,0.33,9.55,0.02,0.11,-0.03,0.00
2026-06-26 19:06:13.045,994.06,994.06,-0.31,-0.74,0.00,0.73,0.33,9.55,0.02,0.11,-0.03,0.00
2026-06-26 19:06:13.046,994.06,994.06,-0.31,-0.74,0.00,0.73,0.33,9.55,0.02,0.11,-0.03,0.00
2026-06-26 19:06:13.091,994.06,994.06,-0.63,-1.05,0.00,0.63,0.11,9.50,-0.00,-0.01,0.05,0.00
2026-06-26 19:06:13.093,994.06,994.06,-0.63,-1.05,0.00,1.63,0.48,9.78,-0.00,-0.01,0.05,0.00
2026-06-26 19:06:13.095,994.06,994.06,-0.63,-1.05,0.00,1.63,0.48,9.78,-0.00,-0.01,0.05,0.00
2026-06-26 19:06:13.100,994.06,994.06,-0.63,-1.05,0.00,1.63,0.48,9.78,-0.00,-0.01,0.05,0.00
2026-06-26 19:06:13.102,994.06,994.06,-0.63,-1.05,0.00,1.32,0.50,9.74,-0.00,-0.03,0.05,0.00
2026-06-26 19:06:13.148,994.06,994.06,-0.70,-1.11,0.00,1.66,0.53,9.83,0.00,0.01,0.02,0.00
2026-06-26 19:06:13.151,994.06,994.06,-0.70,-1.11,0.00,1.66,0.53,9.83,0.01,0.02,0.00,0.00
2026-06-26 19:06:13.153,994.06,994.06,-0.70,-1.11,0.00,1.86,0.30,9.57,0.01,0.02,0.00,0.00
2026-06-26 19:06:13.154,994.06,994.06,-0.70,-1.11,0.00,1.86,0.30,9.57,0.01,0.02,0.00,0.00
2026-06-26 19:06:13.160,994.06,994.06,-0.70,-1.11,0.00,1.86,0.30,9.57,0.01,0.02,0.00,0.00
2026-06-26 19:06:13.162,994.06,994.06,-0.70,-1.11,0.00,1.87,0.03,9.75,0.01,0.04,-0.02,0.00
2026-06-26 19:06:13.164,994.06,994.06,-0.70,-1.11,0.00,1.87,0.03,9.75,0.01,0.04,-0.02,0.00
2026-06-26 19:06:13.170,994.06,994.06,-0.70,-1.11,0.00,1.87,0.03,9.75,0.01,0.04,-0.02,0.00
2026-06-26 19:06:13.172,994.06,994.06,-0.70,-1.11,0.00,1.48,0.19,9.81,0.00,0.05,-0.04,0.00
2026-06-26 19:06:13.173,994.06,994.06,-0.70,-1.11,0.00,1.48,0.19,9.81,0.00,0.05,-0.04,0.00
2026-06-26 19:06:13.175,994.06,994.06,-0.70,-1.11,0.00,1.48,0.19,9.81,0.00,0.05,-0.04,0.00
2026-06-26 19:06:13.177,994.06,994.06,-0.70,-1.11,0.00,1.48,0.19,9.81,0.00,0.05,-0.04,0.00
2026-06-26 19:06:13.178,994.06,994.06,-0.70,-1.11,0.00,1.48,0.19,9.81,0.00,0.05,-0.04,0.00
2026-06-26 19:06:13.180,994.06,994.06,-0.70,-1.11,0.00,1.48,0.19,9.81,0.00,0.05,-0.04,0.00
2026-06-26 19:06:13.182,994.06,994.06,-0.70,-1.11,0.00,1.25,0.22,9.76,0.01,0.07,-0.04,0.00
2026-06-26 19:06:13.183,994.06,994.06,-0.70,-1.11,0.00,1.25,0.22,9.76,0.01,0.07,-0.04,0.00
2026-06-26 19:06:13.187,994.06,994.06,-0.70,-1.11,0.00,1.25,0.22,9.76,0.01,0.07,-0.04,0.00
2026-06-26 19:06:13.189,994.06,994.06,-0.70,-1.11,0.00,1.25,0.22,9.76,0.01,0.07,-0.04,0.00
2026-06-26 19:06:13.233,994.06,994.06,-0.70,-1.11,0.00,1.02,0.24,9.63,0.02,0.12,-0.01,0.00
2026-06-26 19:06:13.235,994.06,994.06,-0.70,-1.11,0.00,1.02,0.24,9.63,0.02,0.12,-0.01,0.00
2026-06-26 19:06:13.237,994.06,994.06,-0.70,-1.11,0.00,1.02,0.24,9.63,0.02,0.12,-0.01,0.00
2026-06-26 19:06:13.239,994.06,994.06,-0.70,-1.11,0.00,1.02,0.24,9.63,0.02,0.12,-0.01,0.00
2026-06-26 19:06:13.242,994.06,994.06,-0.70,-1.11,0.00,0.62,0.08,9.79,0.02,0.11,0.00,0.00
2026-06-26 19:06:13.244,994.06,994.06,-0.70,-1.11,0.00,0.62,0.08,9.79,0.02,0.11,0.00,0.00
2026-06-26 19:06:13.288,994.06,994.06,-0.67,-1.08,0.00,1.15,0.19,9.57,0.02,0.13,-0.01,0.00
2026-06-26 19:06:13.291,994.06,994.06,-0.67,-1.08,0.00,1.15,0.19,9.57,0.02,0.13,-0.01,0.00
2026-06-26 19:06:13.292,994.06,994.06,-0.67,-1.08,0.00,1.07,0.15,9.66,0.02,0.12,-0.02,0.00
2026-06-26 19:06:13.294,994.06,994.06,-0.67,-1.08,0.00,1.07,0.15,9.66,0.02,0.12,-0.02,0.00
2026-06-26 19:06:13.297,994.06,994.06,-0.67,-1.08,0.00,1.07,0.15,9.66,0.02,0.12,-0.02,0.00
2026-06-26 19:06:13.301,994.06,994.06,-0.67,-1.08,0.00,1.07,0.15,9.66,0.02,0.11,-0.02,0.00
2026-06-26 19:06:13.303,994.06,994.06,-0.67,-1.08,0.00,0.45,0.37,9.82,0.02,0.11,-0.02,0.00
2026-06-26 19:06:13.304,994.06,994.06,-0.67,-1.08,0.00,0.45,0.37,9.82,0.02,0.11,-0.02,0.00
2026-06-26 19:06:13.309,994.06,994.06,-0.67,-1.08,0.00,0.45,0.37,9.82,0.02,0.11,-0.02,0.00
2026-06-26 19:06:13.314,994.06,994.06,-0.67,-1.08,0.00,0.58,0.34,9.71,0.02,0.11,-0.01,0.00
2026-06-26 19:06:13.321,994.06,994.06,-0.67,-1.08,0.00,0.58,0.34,9.71,0.02,0.11,-0.01,0.00
2026-06-26 19:06:13.324,994.06,994.06,-0.67,-1.08,0.00,0.84,0.30,9.63,0.02,0.10,0.00,0.00
2026-06-26 19:06:13.326,994.06,994.06,-0.67,-1.08,0.00,0.84,0.30,9.63,0.02,0.10,0.00,0.00
2026-06-26 19:06:13.328,994.06,994.06,-0.67,-1.08,0.00,0.84,0.30,9.63,0.02,0.10,0.00,0.00
2026-06-26 19:06:13.331,994.06,994.06,-0.67,-1.08,0.00,0.84,0.30,9.63,0.02,0.10,0.00,0.00
2026-06-26 19:06:13.332,994.06,994.06,-0.67,-1.08,0.00,0.90,0.33,9.60,0.02,0.09,0.02,0.00
2026-06-26 19:06:13.375,994.06,994.05,-1.02,-1.34,0.00,0.24,0.45,9.72,0.01,0.02,0.06,0.00
2026-06-26 19:06:13.377,994.06,994.05,-1.02,-1.34,0.00,0.24,0.45,9.72,0.01,0.02,0.06,0.00
2026-06-26 19:06:13.378,994.06,994.05,-1.02,-1.34,0.00,0.24,0.45,9.72,0.01,0.02,0.06,0.00
2026-06-26 19:06:13.380,994.06,994.05,-1.02,-1.34,0.00,0.24,0.45,9.72,0.01,0.02,0.06,0.00
2026-06-26 19:06:13.382,994.06,994.05,-1.02,-1.34,0.00,0.70,0.45,10.15,0.01,0.01,0.06,0.00
2026-06-26 19:06:13.383,994.06,994.05,-1.02,-1.34,0.00,0.70,0.45,10.15,0.01,0.01,0.06,0.00
2026-06-26 19:06:13.385,994.06,994.05,-1.02,-1.34,0.00,0.70,0.45,10.15,0.01,0.01,0.06,0.00
2026-06-26 19:06:13.386,994.06,994.05,-1.02,-1.34,0.00,0.70,0.45,10.15,0.01,0.01,0.06,0.00
2026-06-26 19:06:13.432,994.06,994.05,-0.89,-1.25,0.00,1.00,-0.14,9.74,-0.00,0.00,-0.04,0.00
2026-06-26 19:06:13.435,994.06,994.05,-0.89,-1.25,0.00,1.00,-0.14,9.74,-0.00,0.00,-0.04,0.00
2026-06-26 19:06:13.438,994.06,994.05,-0.89,-1.25,0.00,1.00,-0.14,9.74,-0.00,0.00,-0.04,0.00
2026-06-26 19:06:13.441,994.06,994.05,-0.89,-1.25,0.00,1.00,-0.14,9.74,-0.00,0.00,-0.04,0.00
2026-06-26 19:06:13.442,994.06,994.05,-0.89,-1.25,0.00,0.64,-0.16,9.54,-0.01,-0.01,-0.03,0.00
2026-06-26 19:06:13.444,994.06,994.05,-0.89,-1.25,0.00,0.64,-0.16,9.54,-0.01,-0.01,-0.03,0.00
2026-06-26 19:06:13.448,994.06,994.05,-0.89,-1.25,0.00,0.64,-0.16,9.54,-0.01,-0.01,-0.03,0.00
2026-06-26 19:06:13.451,994.06,994.05,-0.89,-1.25,0.00,0.64,-0.16,9.54,-0.01,-0.01,-0.01,0.00
2026-06-26 19:06:13.453,994.06,994.05,-0.89,-1.25,0.00,0.47,-0.01,9.67,-0.01,-0.01,-0.01,0.00
2026-06-26 19:06:13.454,994.06,994.05,-0.89,-1.25,0.00,0.47,-0.01,9.67,-0.01,-0.01,-0.01,0.00
2026-06-26 19:06:13.456,994.06,994.05,-0.89,-1.25,0.00,0.47,-0.01,9.67,-0.01,-0.01,-0.01,0.00
2026-06-26 19:06:13.461,994.06,994.05,-0.89,-1.25,0.00,0.47,-0.01,9.67,-0.01,-0.01,-0.01,0.00
2026-06-26 19:06:13.462,994.06,994.05,-0.89,-1.25,0.00,0.65,-0.01,9.76,-0.00,-0.02,0.02,0.00
2026-06-26 19:06:13.464,994.06,994.05,-0.89,-1.25,0.00,0.65,-0.01,9.76,-0.00,-0.02,0.02,0.00
2026-06-26 19:06:13.468,994.06,994.05,-0.89,-1.25,0.00,0.65,-0.01,9.76,-0.00,-0.02,0.02,0.00
2026-06-26 19:06:13.472,994.06,994.05,-0.89,-1.25,0.00,1.04,-0.01,9.93,0.00,-0.01,0.03,0.00
2026-06-26 19:06:13.514,994.06,994.05,-0.65,-1.07,0.00,1.34,0.43,9.79,-0.00,-0.01,-0.02,0.00
2026-06-26 19:06:13.521,994.06,994.05,-0.65,-1.07,0.00,1.34,0.43,9.79,-0.00,-0.01,-0.02,0.00
2026-06-26 19:06:13.526,994.06,994.05,-0.65,-1.07,0.00,0.95,0.48,9.68,-0.00,0.00,-0.02,0.00
2026-06-26 19:06:13.527,994.06,994.05,-0.65,-1.07,0.00,0.95,0.48,9.68,-0.00,0.00,-0.02,0.00
2026-06-26 19:06:13.531,994.06,994.05,-0.65,-1.07,0.00,0.95,0.48,9.68,0.00,0.02,-0.01,0.00
2026-06-26 19:06:13.572,994.06,994.05,-0.61,-1.04,0.00,1.49,0.17,9.58,0.01,0.05,0.02,0.00
2026-06-26 19:06:13.573,994.06,994.05,-0.61,-1.04,0.00,1.35,0.03,9.69,0.01,0.05,0.02,0.00
2026-06-26 19:06:13.575,994.06,994.05,-0.61,-1.04,0.00,1.35,0.03,9.69,0.01,0.05,0.02,0.00
2026-06-26 19:06:13.577,994.06,994.05,-0.61,-1.04,0.00,1.35,0.03,9.69,0.01,0.05,0.02,0.00
2026-06-26 19:06:13.580,994.06,994.05,-0.61,-1.04,0.00,1.35,0.03,9.69,0.01,0.05,0.02,0.00
2026-06-26 19:06:13.582,994.06,994.05,-0.61,-1.04,0.00,1.09,0.12,9.84,0.01,0.06,0.01,0.00
2026-06-26 19:06:13.584,994.06,994.05,-0.61,-1.04,0.00,1.09,0.12,9.84,0.01,0.06,0.01,0.00
2026-06-26 19:06:13.585,994.06,994.05,-0.61,-1.04,0.00,1.09,0.12,9.84,0.01,0.06,0.01,0.00
2026-06-26 19:06:13.588,994.06,994.05,-0.61,-1.04,0.00,1.09,0.12,9.84,0.01,0.06,0.01,0.00
2026-06-26 19:06:13.590,994.06,994.05,-0.61,-1.04,0.00,1.09,0.12,9.84,0.01,0.06,0.01,0.00
2026-06-26 19:06:13.592,994.06,994.05,-0.61,-1.04,0.00,1.31,0.29,9.77,0.01,0.08,0.01,0.00
2026-06-26 19:06:13.594,994.06,994.05,-0.61,-1.04,0.00,1.31,0.29,9.77,0.01,0.08,0.01,0.00
2026-06-26 19:06:13.595,994.06,994.05,-0.61,-1.04,0.00,1.31,0.29,9.77,0.01,0.08,0.01,0.00
2026-06-26 19:06:13.597,994.06,994.05,-0.61,-1.04,0.00,1.31,0.29,9.77,0.01,0.08,0.01,0.00
2026-06-26 19:06:13.599,994.06,994.05,-0.61,-1.04,0.00,1.31,0.29,9.77,0.01,0.08,0.01,0.00
2026-06-26 19:06:13.602,994.06,994.05,-0.61,-1.04,0.00,1.31,0.29,9.77,0.02,0.10,0.00,0.00
2026-06-26 19:06:13.604,994.06,994.05,-0.61,-1.04,0.00,1.49,0.28,9.64,0.02,0.10,0.00,0.00
2026-06-26 19:06:13.606,994.06,994.05,-0.61,-1.04,0.00,1.49,0.28,9.64,0.02,0.10,0.00,0.00
2026-06-26 19:06:13.611,994.06,994.05,-0.61,-1.04,0.00,1.49,0.28,9.64,0.02,0.10,0.00,0.00
2026-06-26 19:06:13.612,994.06,994.05,-0.61,-1.04,0.00,1.34,0.30,9.63,0.02,0.11,-0.00,0.00
2026-06-26 19:06:13.614,994.06,994.05,-0.61,-1.04,0.00,1.34,0.30,9.63,0.02,0.11,-0.00,0.00
2026-06-26 19:06:13.658,994.06,994.06,-0.44,-0.88,0.00,0.68,0.50,9.69,0.02,0.13,-0.02,0.00
2026-06-26 19:06:13.663,994.06,994.06,-0.44,-0.88,0.00,0.89,0.50,9.69,0.02,0.14,-0.02,0.00
2026-06-26 19:06:13.665,994.06,994.06,-0.44,-0.88,0.00,0.89,0.50,9.69,0.02,0.14,-0.02,0.00
2026-06-26 19:06:13.672,994.06,994.06,-0.44,-0.88,0.00,0.89,0.50,9.69,0.02,0.14,-0.02,0.00
2026-06-26 19:06:13.715,994.06,994.06,0.04,0.25,0.00,0.30,0.16,9.79,0.01,0.09,0.00,0.00
2026-06-26 19:06:13.721,994.06,994.06,0.04,0.25,0.00,0.30,0.16,9.79,0.01,0.09,0.00,0.00
2026-06-26 19:06:13.723,994.06,994.06,0.04,0.25,0.00,0.42,0.12,9.78,0.02,0.08,0.01,0.00
2026-06-26 19:06:13.725,994.06,994.06,0.04,0.25,0.00,0.42,0.12,9.78,0.02,0.08,0.01,0.00
2026-06-26 19:06:13.726,994.06,994.06,0.04,0.25,0.00,0.42,0.12,9.78,0.02,0.08,0.01,0.00
2026-06-26 19:06:13.728,994.06,994.06,0.04,0.25,0.00,0.42,0.12,9.78,0.02,0.08,0.01,0.00
2026-06-26 19:06:13.729,994.06,994.06,0.04,0.25,0.00,0.42,0.12,9.78,0.02,0.08,0.01,0.00
2026-06-26 19:06:13.731,994.06,994.06,0.04,0.25,0.00,0.42,0.12,9.78,0.02,0.08,0.01,0.00
2026-06-26 19:06:13.734,994.06,994.06,0.04,0.25,0.00,0.65,0.17,9.78,0.01,0.06,0.01,0.00
2026-06-26 19:06:13.737,994.06,994.06,0.04,0.25,0.00,0.65,0.17,9.78,0.01,0.06,0.01,0.00
2026-06-26 19:06:13.739,994.06,994.06,0.04,0.25,0.00,0.65,0.17,9.78,0.01,0.06,0.01,0.00
2026-06-26 19:06:13.741,994.06,994.06,0.04,0.25,0.00,0.65,0.17,9.78,0.01,0.06,0.01,0.00
2026-06-26 19:06:13.743,994.06,994.06,0.04,0.25,0.00,0.53,0.20,9.78,0.01,0.05,0.02,0.00
2026-06-26 19:06:13.744,994.06,994.06,0.04,0.25,0.00,0.53,0.20,9.78,0.01,0.05,0.02,0.00
2026-06-26 19:06:13.746,994.06,994.06,0.04,0.25,0.00,0.53,0.20,9.78,0.01,0.05,0.02,0.00
2026-06-26 19:06:13.748,994.06,994.06,0.04,0.25,0.00,0.53,0.20,9.78,0.01,0.05,0.02,0.00
2026-06-26 19:06:13.752,994.06,994.06,0.04,0.25,0.00,0.53,0.20,9.78,0.01,0.03,0.02,0.00
2026-06-26 19:06:13.759,994.06,994.06,0.04,0.25,0.00,0.48,0.24,9.74,0.01,0.03,0.02,0.00
2026-06-26 19:06:13.805,994.06,994.05,-0.20,-0.60,0.00,0.76,0.30,9.76,0.00,0.01,0.03,0.00
2026-06-26 19:06:13.808,994.06,994.05,-0.20,-0.60,0.00,0.76,0.30,9.76,0.00,0.01,0.03,0.00
2026-06-26 19:06:13.812,994.06,994.05,-0.20,-0.60,0.00,0.76,0.30,9.76,0.00,0.00,0.02,0.00
2026-06-26 19:06:13.814,994.06,994.05,-0.20,-0.60,0.00,0.65,0.34,9.80,0.00,0.00,0.02,0.00
2026-06-26 19:06:13.862,994.05,994.05,-0.10,-0.43,0.00,0.85,0.29,9.71,0.00,0.02,0.01,0.00
2026-06-26 19:06:13.864,994.05,994.05,-0.10,-0.43,0.00,0.80,0.27,9.75,0.00,0.02,0.00,0.00
2026-06-26 19:06:13.865,994.05,994.05,-0.10,-0.43,0.00,0.80,0.27,9.75,0.00,0.02,0.00,0.00
2026-06-26 19:06:13.869,994.05,994.05,-0.10,-0.43,0.00,0.80,0.27,9.75,0.00,0.02,0.00,0.00
2026-06-26 19:06:13.873,994.05,994.05,-0.10,-0.43,0.00,0.80,0.27,9.75,0.00,0.02,-0.01,0.00
2026-06-26 19:06:13.874,994.05,994.05,-0.10,-0.43,0.00,0.75,0.36,9.78,0.00,0.02,-0.01,0.00
2026-06-26 19:06:13.876,994.05,994.05,-0.10,-0.43,0.00,0.75,0.36,9.78,0.00,0.02,-0.01,0.00
2026-06-26 19:06:13.878,994.05,994.05,-0.10,-0.43,0.00,0.75,0.36,9.78,0.00,0.02,-0.01,0.00
2026-06-26 19:06:13.879,994.05,994.05,-0.10,-0.43,0.00,0.75,0.36,9.78,0.00,0.02,-0.01,0.00
2026-06-26 19:06:13.881,994.05,994.05,-0.10,-0.43,0.00,0.75,0.36,9.78,0.00,0.02,-0.01,0.00
2026-06-26 19:06:13.883,994.05,994.05,-0.10,-0.43,0.00,0.73,0.43,9.79,0.00,0.03,-0.01,0.00
2026-06-26 19:06:13.884,994.05,994.05,-0.10,-0.43,0.00,0.73,0.43,9.79,0.00,0.03,-0.01,0.00
2026-06-26 19:06:13.886,994.05,994.05,-0.10,-0.43,0.00,0.73,0.43,9.79,0.00,0.03,-0.01,0.00
2026-06-26 19:06:13.887,994.05,994.05,-0.10,-0.43,0.00,0.73,0.43,9.79,0.00,0.03,-0.01,0.00
2026-06-26 19:06:13.889,994.05,994.05,-0.10,-0.43,0.00,0.73,0.43,9.79,0.00,0.03,-0.01,0.00
2026-06-26 19:06:13.890,994.05,994.05,-0.10,-0.43,0.00,0.73,0.43,9.79,0.00,0.03,-0.01,0.00
2026-06-26 19:06:13.892,994.05,994.05,-0.10,-0.43,0.00,0.73,0.43,9.79,0.00,0.03,-0.01,0.00
2026-06-26 19:06:13.896,994.05,994.05,-0.10,-0.43,0.00,0.78,0.39,9.73,0.00,0.03,-0.01,0.00
2026-06-26 19:06:13.899,994.05,994.05,-0.10,-0.43,0.00,0.78,0.39,9.73,0.00,0.03,-0.01,0.00
2026-06-26 19:06:13.902,994.05,994.05,-0.10,-0.43,0.00,0.78,0.39,9.73,0.00,0.03,-0.01,0.00
2026-06-26 19:06:13.903,994.05,994.05,-0.10,-0.43,0.00,0.86,0.37,9.66,0.00,0.04,-0.01,0.00
2026-06-26 19:06:13.943,994.05,994.05,-0.14,-0.49,0.00,0.59,0.28,9.82,0.00,0.02,-0.00,0.00
2026-06-26 19:06:13.945,994.05,994.05,-0.14,-0.49,0.00,0.59,0.28,9.82,0.00,0.02,-0.00,0.00
