timestamp,pressure_bag,pressure_bme,diff_pressure,v_wind_est,speed,accel_x,accel_y,accel_z,gyro_x,gyro_y,gyro_z,power
2026-06-26 19:41:38.214,994.31,994.30,-1.38,-1.56,0.00,1.06,0.23,9.30,-0.00,-0.00,-0.00,0.00
2026-06-26 19:41:38.216,994.31,994.30,-1.38,-1.56,0.00,1.06,0.23,9.30,-0.00,-0.00,-0.00,0.00
2026-06-26 19:41:38.222,994.31,994.30,-1.38,-1.56,0.00,1.06,0.23,9.30,-0.00,-0.00,-0.00,0.00
2026-06-26 19:41:38.224,994.31,994.30,-1.38,-1.56,0.00,1.06,0.23,9.28,0.00,-0.00,0.00,0.00
2026-06-26 19:41:38.226,994.31,994.30,-1.38,-1.56,0.00,1.06,0.23,9.28,0.00,-0.00,0.00,0.00
2026-06-26 19:41:38.229,994.31,994.30,-1.38,-1.56,0.00,1.06,0.23,9.28,0.00,-0.00,0.00,0.00
2026-06-26 19:41:38.233,994.31,994.30,-1.38,-1.56,0.00,1.06,0.23,9.28,-0.00,-0.00,0.00,0.00
2026-06-26 19:41:38.235,994.31,994.30,-1.38,-1.56,0.00,1.06,0.23,9.27,-0.00,-0.00,0.00,0.00
2026-06-26 19:41:38.239,994.31,994.30,-1.38,-1.56,0.00,1.06,0.23,9.27,-0.00,-0.00,0.00,0.00
2026-06-26 19:41:38.243,994.31,994.30,-1.38,-1.56,0.00,1.06,0.23,9.27,0.00,-0.00,0.00,0.00
2026-06-26 19:41:38.244,994.31,994.30,-1.38,-1.56,0.00,1.06,0.24,9.25,0.00,-0.00,0.00,0.00
2026-06-26 19:41:38.246,994.31,994.30,-1.38,-1.56,0.00,1.06,0.24,9.25,0.00,-0.00,0.00,0.00
2026-06-26 19:41:38.247,994.31,994.30,-1.38,-1.56,0.00,1.06,0.24,9.25,0.00,-0.00,0.00,0.00
2026-06-26 19:41:38.383,994.33,994.32,-0.58,-1.00,0.00,1.04,0.23,9.27,-0.00,0.00,0.00,0.00
2026-06-26 19:41:38.384,994.33,994.32,-0.58,-1.00,0.00,1.06,0.25,9.28,-0.00,0.00,0.00,0.00
2026-06-26 19:41:38.386,994.33,994.32,-0.58,-1.00,0.00,1.06,0.25,9.28,-0.00,0.00,0.00,0.00
2026-06-26 19:41:38.387,994.33,994.32,-0.58,-1.00,0.00,1.06,0.25,9.28,-0.00,0.00,0.00,0.00
2026-06-26 19:41:38.390,994.33,994.32,-0.58,-1.00,0.00,1.06,0.25,9.28,-0.00,0.00,0.00,0.00
2026-06-26 19:41:38.393,994.33,994.32,-0.58,-1.00,0.00,1.06,0.25,9.28,-0.00,0.00,-0.00,0.00
2026-06-26 19:41:38.396,994.33,994.32,-0.58,-1.00,0.00,1.04,0.25,9.27,-0.00,0.00,-0.00,0.00
2026-06-26 19:41:38.397,994.33,994.32,-0.58,-1.00,0.00,1.04,0.25,9.27,-0.00,0.00,-0.00,0.00
2026-06-26 19:41:38.398,994.33,994.32,-0.58,-1.00,0.00,1.04,0.25,9.27,-0.00,0.00,-0.00,0.00
2026-06-26 19:41:38.401,994.33,994.32,-0.58,-1.00,0.00,1.04,0.25,9.27,-0.00,0.00,-0.00,0.00
2026-06-26 19:41:38.403,994.33,994.32,-0.58,-1.00,0.00,1.06,0.24,9.27,0.00,-0.00,-0.00,0.00
2026-06-26 19:41:38.405,994.33,994.32,-0.58,-1.00,0.00,1.06,0.24,9.27,0.00,-0.00,-0.00,0.00
2026-06-26 19:41:38.406,994.33,994.32,-0.58,-1.00,0.00,1.06,0.24,9.27,0.00,-0.00,-0.00,0.00
2026-06-26 19:41:38.407,994.33,994.32,-0.58,-1.00,0.00,1.06,0.24,9.27,0.00,-0.00,-0.00,0.00
2026-06-26 19:41:38.412,994.33,994.32,-0.58,-1.00,0.00,1.06,0.24,9.27,0.00,-0.00,-0.00,0.00
2026-06-26 19:41:38.413,994.33,994.32,-0.58,-1.00,0.00,1.07,0.24,9.28,-0.00,0.00,-0.00,0.00
2026-06-26 19:41:38.415,994.33,994.32,-0.58,-1.00,0.00,1.07,0.24,9.28,-0.00,0.00,-0.00,0.00
2026-06-26 19:41:38.416,994.33,994.32,-0.58,-1.00,0.00,1.07,0.24,9.28,-0.00,0.00,-0.00,0.00
2026-06-26 19:41:38.417,994.33,994.32,-0.58,-1.00,0.00,1.07,0.24,9.28,-0.00,0.00,-0.00,0.00
2026-06-26 19:41:38.422,994.33,994.32,-0.58,-1.00,0.00,1.07,0.24,9.28,-0.00,0.00,-0.00,0.00
2026-06-26 19:41:38.563,994.34,994.32,-1.92,-1.83,0.00,1.05,0.25,9.27,-0.00,0.00,-0.00,0.00
2026-06-26 19:41:38.565,994.34,994.32,-1.92,-1.83,0.00,1.04,0.22,9.31,-0.00,0.00,-0.00,0.00
2026-06-26 19:41:38.566,994.34,994.32,-1.92,-1.83,0.00,1.04,0.22,9.31,-0.00,0.00,-0.00,0.00
2026-06-26 19:41:38.567,994.34,994.32,-1.92,-1.83,0.00,1.04,0.22,9.31,-0.00,0.00,-0.00,0.00
2026-06-26 19:41:38.571,994.34,994.32,-1.92,-1.83,0.00,1.04,0.22,9.31,-0.00,0.00,-0.00,0.00
2026-06-26 19:41:38.573,994.34,994.32,-1.92,-1.83,0.00,1.04,0.22,9.31,-0.00,0.00,0.00,0.00
2026-06-26 19:41:38.575,994.34,994.32,-1.92,-1.83,0.00,1.07,0.23,9.25,-0.00,0.00,0.00,0.00
2026-06-26 19:41:38.576,994.34,994.32,-1.92,-1.83,0.00,1.07,0.23,9.25,-0.00,0.00,0.00,0.00
2026-06-26 19:41:38.577,994.34,994.32,-1.92,-1.83,0.00,1.07,0.23,9.25,-0.00,0.00,0.00,0.00
2026-06-26 19:41:38.580,994.34,994.32,-1.92,-1.83,0.00,1.07,0.23,9.25,-0.00,0.00,0.00,0.00
2026-06-26 19:41:38.584,994.34,994.32,-1.92,-1.83,0.00,1.07,0.23,9.25,-0.00,0.00,0.00,0.00
2026-06-26 19:41:38.585,994.34,994.32,-1.92,-1.83,0.00,1.06,0.22,9.27,-0.00,0.00,0.00,0.00
2026-06-26 19:41:38.587,994.34,994.32,-1.92,-1.83,0.00,1.06,0.22,9.27,-0.00,0.00,0.00,0.00
2026-06-26 19:41:38.590,994.34,994.32,-1.92,-1.83,0.00,1.06,0.22,9.27,-0.00,0.00,0.00,0.00
2026-06-26 19:41:38.594,994.34,994.32,-1.92,-1.83,0.00,1.06,0.22,9.27,-0.00,0.00,-0.00,0.00
2026-06-26 19:41:38.595,994.34,994.32,-1.92,-1.83,0.00,1.08,0.23,9.26,-0.00,0.00,-0.00,0.00
2026-06-26 19:41:38.598,994.34,994.32,-1.92,-1.83,0.00,1.08,0.23,9.26,-0.00,0.00,-0.00,0.00
2026-06-26 19:41:38.744,994.32,994.31,-0.81,-1.19,0.00,1.08,0.24,9.27,0.00,0.00,-0.00,0.00
2026-06-26 19:41:38.745,994.32,994.31,-0.81,-1.19,0.00,1.06,0.24,9.27,-0.00,-0.00,0.00,0.00
2026-06-26 19:41:38.746,994.32,994.31,-0.81,-1.19,0.00,1.06,0.24,9.27,-0.00,-0.00,0.00,0.00
2026-06-26 19:41:38.748,994.32,994.31,-0.81,-1.19,0.00,1.06,0.24,9.27,-0.00,-0.00,0.00,0.00
2026-06-26 19:41:38.750,994.32,994.31,-0.81,-1.19,0.00,1.06,0.24,9.27,-0.00,-0.00,0.00,0.00
2026-06-26 19:41:38.751,994.32,994.31,-0.81,-1.19,0.00,1.06,0.24,9.27,-0.00,-0.00,0.00,0.00
2026-06-26 19:41:38.754,994.32,994.31,-0.81,-1.19,0.00,1.06,0.22,9.27,0.00,0.00,0.00,0.00
2026-06-26 19:41:38.756,994.32,994.31,-0.81,-1.19,0.00,1.06,0.22,9.27,0.00,0.00,0.00,0.00
2026-06-26 19:41:38.759,994.32,994.31,-0.81,-1.19,0.00,1.06,0.22,9.27,0.00,0.00,0.00,0.00
2026-06-26 19:41:38.764,994.32,994.31,-0.81,-1.19,0.00,1.06,0.22,9.27,0.00,0.00,0.00,0.00
2026-06-26 19:41:38.766,994.32,994.31,-0.81,-1.19,0.00,1.07,0.23,9.26,0.00,0.00,0.00,0.00
2026-06-26 19:41:38.767,994.32,994.31,-0.81,-1.19,0.00,1.07,0.23,9.26,0.00,0.00,0.00,0.00
2026-06-26 19:41:38.773,994.32,994.31,-0.81,-1.19,0.00,1.07,0.23,9.26,0.00,0.00,0.00,0.00
2026-06-26 19:41:38.774,994.32,994.31,-0.81,-1.19,0.00,1.06,0.25,9.27,-0.00,0.00,0.00,0.00
2026-06-26 19:41:38.914,994.32,994.31,-0.95,-1.29,0.00,1.07,0.22,9.31,0.00,-0.00,0.00,0.00
2026-06-26 19:41:38.915,994.32,994.31,-0.95,-1.29,0.00,1.06,0.24,9.27,0.00,-0.00,0.00,0.00
2026-06-26 19:41:38.917,994.32,994.31,-0.95,-1.29,0.00,1.06,0.24,9.27,0.00,-0.00,0.00,0.00
2026-06-26 19:41:38.918,994.32,994.31,-0.95,-1.29,0.00,1.06,0.24,9.27,0.00,-0.00,0.00,0.00
2026-06-26 19:41:38.920,994.32,994.31,-0.95,-1.29,0.00,1.06,0.24,9.27,0.00,-0.00,0.00,0.00
2026-06-26 19:41:38.924,994.32,994.31,-0.95,-1.29,0.00,1.06,0.24,9.27,0.00,-0.00,0.00,0.00
2026-06-26 19:41:38.925,994.32,994.31,-0.95,-1.29,0.00,1.05,0.22,9.25,0.00,-0.00,0.00,0.00
2026-06-26 19:41:38.926,994.32,994.31,-0.95,-1.29,0.00,1.05,0.22,9.25,0.00,-0.00,0.00,0.00
2026-06-26 19:41:38.928,994.32,994.31,-0.95,-1.29,0.00,1.05,0.22,9.25,0.00,-0.00,0.00,0.00
2026-06-26 19:41:38.929,994.32,994.31,-0.95,-1.29,0.00,1.05,0.22,9.25,0.00,-0.00,0.00,0.00
2026-06-26 19:41:38.932,994.32,994.31,-0.95,-1.29,0.00,1.05,0.22,9.25,0.00,-0.00,0.00,0.00
2026-06-26 19:41:38.934,994.32,994.31,-0.95,-1.29,0.00,1.05,0.22,9.25,0.00,-0.01,-0.00,0.00
2026-06-26 19:41:38.935,994.32,994.31,-0.95,-1.29,0.00,1.07,0.23,9.27,0.00,-0.01,-0.00,0.00
2026-06-26 19:41:38.937,994.32,994.31,-0.95,-1.29,0.00,1.07,0.23,9.27,0.00,-0.01,-0.00,0.00
2026-06-26 19:41:38.938,994.32,994.31,-0.95,-1.29,0.00,1.07,0.23,9.27,0.00,-0.01,-0.00,0.00
2026-06-26 19:41:38.943,994.32,994.31,-0.95,-1.29,0.00,1.07,0.23,9.27,0.00,-0.01,-0.00,0.00
2026-06-26 19:41:38.945,994.32,994.31,-0.95,-1.29,0.00,1.05,0.24,9.24,0.00,-0.01,0.00,0.00
2026-06-26 19:41:38.946,994.32,994.31,-0.95,-1.29,0.00,1.05,0.24,9.24,0.00,-0.01,0.00,0.00
2026-06-26 19:41:39.086,994.33,994.31,-1.52,-1.63,0.00,1.05,0.25,9.27,0.00,-0.00,0.00,0.00
2026-06-26 19:41:39.087,994.33,994.31,-1.52,-1.63,0.00,1.05,0.25,9.27,0.00,-0.00,0.00,0.00
2026-06-26 19:41:39.088,994.33,994.31,-1.52,-1.63,0.00,1.05,0.25,9.27,0.00,-0.00,0.00,0.00
2026-06-26 19:41:39.092,994.33,994.31,-1.52,-1.63,0.00,1.05,0.25,9.27,0.00,-0.00,0.00,0.00
2026-06-26 19:41:39.095,994.33,994.31,-1.52,-1.63,0.00,1.05,0.25,9.27,-0.00,-0.00,-0.00,0.00
2026-06-26 19:41:39.096,994.33,994.31,-1.52,-1.63,0.00,1.04,0.28,9.28,-0.00,-0.00,-0.00,0.00
2026-06-26 19:41:39.097,994.33,994.31,-1.52,-1.63,0.00,1.04,0.28,9.28,-0.00,-0.00,-0.00,0.00
2026-06-26 19:41:39.098,994.33,994.31,-1.52,-1.63,0.00,1.04,0.28,9.28,-0.00,-0.00,-0.00,0.00
2026-06-26 19:41:39.100,994.33,994.31,-1.52,-1.63,0.00,1.04,0.28,9.28,-0.00,-0.00,-0.00,0.00
2026-06-26 19:41:39.101,994.33,994.31,-1.52,-1.63,0.00,1.04,0.28,9.28,-0.00,-0.00,-0.00,0.00
2026-06-26 19:41:39.102,994.33,994.31,-1.52,-1.63,0.00,1.04,0.28,9.28,-0.00,-0.00,-0.00,0.00
2026-06-26 19:41:39.104,994.33,994.31,-1.52,-1.63,0.00,1.04,0.28,9.28,0.00,-0.00,0.00,0.00
2026-06-26 19:41:39.105,994.33,994.31,-1.52,-1.63,0.00,1.07,0.22,9.27,0.00,-0.00,0.00,0.00
2026-06-26 19:41:39.107,994.33,994.31,-1.52,-1.63,0.00,1.07,0.22,9.27,0.00,-0.00,0.00,0.00
2026-06-26 19:41:39.108,994.33,994.31,-1.52,-1.63,0.00,1.07,0.22,9.27,0.00,-0.00,0.00,0.00
2026-06-26 19:41:39.109,994.33,994.31,-1.52,-1.63,0.00,1.07,0.22,9.27,0.00,-0.00,0.00,0.00
2026-06-26 19:41:39.114,994.33,994.31,-1.52,-1.63,0.00,1.07,0.22,9.27,0.00,-0.00,0.00,0.00
2026-06-26 19:41:39.116,994.33,994.31,-1.52,-1.63,0.00,1.07,0.22,9.27,-0.00,-0.00,0.00,0.00
2026-06-26 19:41:39.117,994.33,994.31,-1.52,-1.63,0.00,1.07,0.22,9.27,-0.00,-0.00,0.00,0.00
2026-06-26 19:41:39.119,994.33,994.31,-1.52,-1.63,0.00,1.07,0.22,9.27,-0.00,-0.00,0.00,0.00
2026-06-26 19:41:39.124,994.33,994.31,-1.52,-1.63,0.00,1.07,0.22,9.27,-0.00,-0.00,0.00,0.00
2026-06-26 19:41:39.267,994.33,994.32,-1.72,-1.73,0.00,1.08,0.24,9.27,0.00,0.00,-0.00,0.00
2026-06-26 19:41:39.269,994.33,994.32,-1.72,-1.73,0.00,1.08,0.24,9.27,0.00,0.00,-0.00,0.00
2026-06-26 19:41:39.275,994.33,994.32,-1.72,-1.73,0.00,1.08,0.24,9.27,0.00,0.00,0.00,0.00
2026-06-26 19:41:39.277,994.33,994.32,-1.72,-1.73,0.00,1.07,0.25,9.30,0.00,0.00,0.00,0.00
2026-06-26 19:41:39.279,994.33,994.32,-1.72,-1.73,0.00,1.07,0.25,9.30,0.00,0.00,0.00,0.00
2026-06-26 19:41:39.284,994.33,994.32,-1.72,-1.73,0.00,1.07,0.25,9.30,0.00,0.00,0.00,0.00
2026-06-26 19:41:39.286,994.33,994.32,-1.72,-1.73,0.00,1.06,0.24,9.27,-0.00,0.00,0.00,0.00
2026-06-26 19:41:39.288,994.33,994.32,-1.72,-1.73,0.00,1.06,0.24,9.27,-0.00,0.00,0.00,0.00
2026-06-26 19:41:39.294,994.33,994.32,-1.72,-1.73,0.00,1.06,0.24,9.27,-0.00,0.00,0.00,0.00
2026-06-26 19:41:39.296,994.33,994.32,-1.72,-1.73,0.00,1.08,0.22,9.27,0.00,-0.00,0.00,0.00
2026-06-26 19:41:39.297,994.33,994.32,-1.72,-1.73,0.00,1.08,0.22,9.27,0.00,-0.00,0.00,0.00
2026-06-26 19:41:39.298,994.33,994.32,-1.72,-1.73,0.00,1.08,0.22,9.27,0.00,-0.00,0.00,0.00
2026-06-26 19:41:39.299,994.33,994.32,-1.72,-1.73,0.00,1.08,0.22,9.27,0.00,-0.00,0.00,0.00
2026-06-26 19:41:39.301,994.33,994.32,-1.72,-1.73,0.00,1.08,0.22,9.27,0.00,-0.00,0.00,0.00
2026-06-26 19:41:39.445,994.35,994.32,-2.59,-2.13,0.00,1.06,0.23,9.24,-0.00,-0.00,0.00,0.00
2026-06-26 19:41:39.447,994.35,994.32,-2.59,-2.13,0.00,1.06,0.22,9.30,-0.00,-0.00,0.00,0.00
2026-06-26 19:41:39.449,994.35,994.32,-2.59,-2.13,0.00,1.06,0.22,9.30,-0.00,-0.00,0.00,0.00
2026-06-26 19:41:39.450,994.35,994.32,-2.59,-2.13,0.00,1.06,0.22,9.30,-0.00,-0.00,0.00,0.00
2026-06-26 19:41:39.451,994.35,994.32,-2.59,-2.13,0.00,1.06,0.22,9.30,-0.00,-0.00,0.00,0.00
2026-06-26 19:41:39.453,994.35,994.32,-2.59,-2.13,0.00,1.06,0.22,9.30,-0.00,-0.00,0.00,0.00
2026-06-26 19:41:39.455,994.35,994.32,-2.59,-2.13,0.00,1.06,0.22,9.30,0.00,-0.00,0.00,0.00
2026-06-26 19:41:39.456,994.35,994.32,-2.59,-2.13,0.00,1.06,0.22,9.26,0.00,-0.00,0.00,0.00
2026-06-26 19:41:39.458,994.35,994.32,-2.59,-2.13,0.00,1.06,0.22,9.26,0.00,-0.00,0.00,0.00
2026-06-26 19:41:39.459,994.35,994.32,-2.59,-2.13,0.00,1.06,0.22,9.26,0.00,-0.00,0.00,0.00
2026-06-26 19:41:39.464,994.35,994.32,-2.59,-2.13,0.00,1.06,0.22,9.26,0.00,-0.00,0.00,0.00
2026-06-26 19:41:39.466,994.35,994.32,-2.59,-2.13,0.00,1.07,0.22,9.30,0.00,0.00,0.00,0.00
2026-06-26 19:41:39.467,994.35,994.32,-2.59,-2.13,0.00,1.07,0.22,9.30,0.00,0.00,0.00,0.00
2026-06-26 19:41:39.468,994.35,994.32,-2.59,-2.13,0.00,1.07,0.22,9.30,0.00,0.00,0.00,0.00
2026-06-26 19:41:39.469,994.35,994.32,-2.59,-2.13,0.00,1.07,0.22,9.30,0.00,0.00,0.00,0.00
2026-06-26 19:41:39.475,994.35,994.32,-2.59,-2.13,0.00,1.07,0.22,9.30,0.00,0.00,0.00,0.00
2026-06-26 19:41:39.476,994.35,994.32,-2.59,-2.13,0.00,1.05,0.22,9.28,0.00,-0.00,0.00,0.00
2026-06-26 19:41:39.477,994.35,994.32,-2.59,-2.13,0.00,1.05,0.22,9.28,0.00,-0.00,0.00,0.00
2026-06-26 19:41:39.616,994.34,994.33,-0.61,-1.03,0.00,1.04,0.24,9.28,0.00,-0.00,-0.00,0.00
2026-06-26 19:41:39.617,994.34,994.33,-0.61,-1.03,0.00,1.07,0.23,9.26,0.00,-0.00,-0.00,0.00
2026-06-26 19:41:39.618,994.34,994.33,-0.61,-1.03,0.00,1.07,0.23,9.26,0.00,-0.00,-0.00,0.00
2026-06-26 19:41:39.620,994.34,994.33,-0.61,-1.03,0.00,1.07,0.23,9.26,0.00,-0.00,-0.00,0.00
2026-06-26 19:41:39.625,994.34,994.33,-0.61,-1.03,0.00,1.07,0.23,9.26,0.00,-0.00,-0.00,0.00
2026-06-26 19:41:39.627,994.34,994.33,-0.61,-1.03,0.00,1.08,0.22,9.27,0.00,-0.00,-0.00,0.00
2026-06-26 19:41:39.628,994.34,994.33,-0.61,-1.03,0.00,1.08,0.22,9.27,0.00,-0.00,-0.00,0.00
2026-06-26 19:41:39.630,994.34,994.33,-0.61,-1.03,0.00,1.08,0.22,9.27,0.00,-0.00,-0.00,0.00
2026-06-26 19:41:39.632,994.34,994.33,-0.61,-1.03,0.00,1.08,0.22,9.27,0.00,-0.00,-0.00,0.00
2026-06-26 19:41:39.636,994.34,994.33,-0.61,-1.03,0.00,1.08,0.22,9.27,-0.00,-0.00,0.00,0.00
2026-06-26 19:41:39.637,994.34,994.33,-0.61,-1.03,0.00,1.08,0.21,9.27,-0.00,-0.00,0.00,0.00
2026-06-26 19:41:39.638,994.34,994.33,-0.61,-1.03,0.00,1.08,0.21,9.27,-0.00,-0.00,0.00,0.00
2026-06-26 19:41:39.639,994.34,994.33,-0.61,-1.03,0.00,1.08,0.21,9.27,-0.00,-0.00,0.00,0.00
2026-06-26 19:41:39.642,994.34,994.33,-0.61,-1.03,0.00,1.08,0.21,9.27,-0.00,-0.00,0.00,0.00
2026-06-26 19:41:39.646,994.34,994.33,-0.61,-1.03,0.00,1.08,0.21,9.27,0.00,0.00,-0.00,0.00
2026-06-26 19:41:39.647,994.34,994.33,-0.61,-1.03,0.00,1.06,0.22,9.26,0.00,0.00,-0.00,0.00
2026-06-26 19:41:39.648,994.34,994.33,-0.61,-1.03,0.00,1.06,0.22,9.26,0.00,0.00,-0.00,0.00
2026-06-26 19:41:39.649,994.34,994.33,-0.61,-1.03,0.00,1.06,0.22,9.26,0.00,0.00,-0.00,0.00
2026-06-26 19:41:39.651,994.34,994.33,-0.61,-1.03,0.00,1.06,0.22,9.26,0.00,0.00,-0.00,0.00
2026-06-26 19:41:39.653,994.34,994.33,-0.61,-1.03,0.00,1.06,0.22,9.26,0.00,0.00,-0.00,0.00
2026-06-26 19:41:39.796,994.32,994.34,1.63,1.69,0.00,1.07,0.25,9.27,-0.00,0.00,-0.00,0.00
2026-06-26 19:41:39.797,994.32,994.34,1.63,1.69,0.00,1.04,0.23,9.30,-0.00,-0.00,0.00,0.00
2026-06-26 19:41:39.799,994.32,994.34,1.63,1.69,0.00,1.04,0.23,9.30,-0.00,-0.00,0.00,0.00
2026-06-26 19:41:39.801,994.32,994.34,1.63,1.69,0.00,1.04,0.23,9.30,-0.00,-0.00,0.00,0.00
2026-06-26 19:41:39.802,994.32,994.34,1.63,1.69,0.00,1.04,0.23,9.30,-0.00,-0.00,0.00,0.00
2026-06-26 19:41:39.803,994.32,994.34,1.63,1.69,0.00,1.04,0.23,9.30,-0.00,-0.00,0.00,0.00
2026-06-26 19:41:39.806,994.32,994.34,1.63,1.69,0.00,1.04,0.23,9.30,0.00,-0.00,-0.00,0.00
2026-06-26 19:41:39.807,994.32,994.34,1.63,1.69,0.00,1.06,0.25,9.28,0.00,-0.00,-0.00,0.00
2026-06-26 19:41:39.808,994.32,994.34,1.63,1.69,0.00,1.06,0.25,9.28,0.00,-0.00,-0.00,0.00
2026-06-26 19:41:39.809,994.32,994.34,1.63,1.69,0.00,1.06,0.25,9.28,0.00,-0.00,-0.00,0.00
2026-06-26 19:41:39.812,994.32,994.34,1.63,1.69,0.00,1.06,0.25,9.28,0.00,-0.00,-0.00,0.00
2026-06-26 19:41:39.816,994.32,994.34,1.63,1.69,0.00,1.06,0.25,9.28,0.00,-0.00,0.00,0.00
2026-06-26 19:41:39.817,994.32,994.34,1.63,1.69,0.00,1.06,0.24,9.30,0.00,-0.00,0.00,0.00
2026-06-26 19:41:39.819,994.32,994.34,1.63,1.69,0.00,1.06,0.24,9.30,0.00,-0.00,0.00,0.00
2026-06-26 19:41:39.826,994.32,994.34,1.63,1.69,0.00,1.06,0.24,9.30,0.00,-0.00,0.00,0.00
2026-06-26 19:41:39.828,994.32,994.34,1.63,1.69,0.00,1.08,0.24,9.25,0.00,0.00,-0.00,0.00
2026-06-26 19:41:39.969,994.34,994.32,-1.98,-1.86,0.00,1.08,0.24,9.27,0.00,-0.00,-0.00,0.00
2026-06-26 19:41:39.971,994.34,994.32,-1.98,-1.86,0.00,1.08,0.24,9.27,0.00,-0.00,-0.00,0.00
2026-06-26 19:41:39.976,994.34,994.32,-1.98,-1.86,0.00,1.08,0.24,9.27,0.00,-0.00,-0.00,0.00
2026-06-26 19:41:39.979,994.34,994.32,-1.98,-1.86,0.00,1.05,0.22,9.26,-0.00,0.00,0.00,0.00
2026-06-26 19:41:39.983,994.34,994.32,-1.98,-1.86,0.00,1.05,0.22,9.26,-0.00,0.00,0.00,0.00
2026-06-26 19:41:39.987,994.34,994.32,-1.98,-1.86,0.00,1.05,0.22,9.26,0.00,-0.00,-0.00,0.00
2026-06-26 19:41:39.988,994.34,994.32,-1.98,-1.86,0.00,1.06,0.22,9.30,0.00,-0.00,-0.00,0.00
2026-06-26 19:41:39.989,994.34,994.32,-1.98,-1.86,0.00,1.06,0.22,9.30,0.00,-0.00,-0.00,0.00
2026-06-26 19:41:39.990,994.34,994.32,-1.98,-1.86,0.00,1.06,0.22,9.30,0.00,-0.00,-0.00,0.00
2026-06-26 19:41:39.996,994.34,994.32,-1.98,-1.86,0.00,1.06,0.22,9.30,0.00,-0.00,-0.00,0.00
2026-06-26 19:41:39.997,994.34,994.32,-1.98,-1.86,0.00,1.07,0.23,9.27,0.00,0.00,-0.00,0.00
2026-06-26 19:41:39.999,994.34,994.32,-1.98,-1.86,0.00,1.07,0.23,9.27,0.00,0.00,-0.00,0.00
2026-06-26 19:41:39.000,994.34,994.32,-1.98,-1.86,0.00,1.07,0.23,9.27,0.00,0.00,-0.00,0.00
2026-06-26 19:41:39.001,994.34,994.32,-1.98,-1.86,0.00,1.07,0.23,9.27,0.00,0.00,-0.00,0.00
2026-06-26 19:41:40.003,994.34,994.32,-1.98,-1.86,0.00,1.07,0.23,9.27,0.00,0.00,-0.00,0.00
2026-06-26 19:41:40.007,994.34,994.32,-1.98,-1.86,0.00,1.07,0.23,9.27,0.00,0.00,0.00,0.00
2026-06-26 19:41:40.150,994.34,994.33,-0.40,-0.84,0.00,1.08,0.25,9.27,0.00,0.00,0.00,0.00
2026-06-26 19:41:40.151,994.34,994.33,-0.40,-0.84,0.00,1.08,0.25,9.27,0.00,0.00,0.00,0.00
2026-06-26 19:41:40.152,994.34,994.33,-0.40,-0.84,0.00,1.08,0.25,9.27,0.00,0.00,0.00,0.00
2026-06-26 19:41:40.154,994.34,994.33,-0.40,-0.84,0.00,1.08,0.25,9.27,0.00,0.00,0.00,0.00
2026-06-26 19:41:40.157,994.34,994.33,-0.40,-0.84,0.00,1.08,0.25,9.27,0.00,0.00,0.00,0.00
2026-06-26 19:41:40.158,994.34,994.33,-0.40,-0.84,0.00,1.08,0.22,9.28,0.00,0.00,0.00,0.00
2026-06-26 19:41:40.159,994.34,994.33,-0.40,-0.84,0.00,1.08,0.22,9.28,0.00,0.00,0.00,0.00
2026-06-26 19:41:40.160,994.34,994.33,-0.40,-0.84,0.00,1.08,0.22,9.28,0.00,0.00,0.00,0.00
2026-06-26 19:41:40.164,994.34,994.33,-0.40,-0.84,0.00,1.08,0.22,9.28,0.00,0.00,0.00,0.00
2026-06-26 19:41:40.167,994.34,994.33,-0.40,-0.84,0.00,1.08,0.22,9.28,0.00,-0.00,0.00,0.00
2026-06-26 19:41:40.168,994.34,994.33,-0.40,-0.84,0.00,1.08,0.23,9.25,0.00,-0.00,0.00,0.00
2026-06-26 19:41:40.169,994.34,994.33,-0.40,-0.84,0.00,1.08,0.23,9.25,0.00,-0.00,0.00,0.00
2026-06-26 19:41:40.171,994.34,994.33,-0.40,-0.84,0.00,1.08,0.23,9.25,0.00,-0.00,0.00,0.00
2026-06-26 19:41:40.174,994.34,994.33,-0.40,-0.84,0.00,1.08,0.23,9.25,0.00,-0.00,0.00,0.00
2026-06-26 19:41:40.177,994.34,994.33,-0.40,-0.84,0.00,1.08,0.23,9.25,-0.00,0.00,0.00,0.00
2026-06-26 19:41:40.178,994.34,994.33,-0.40,-0.84,0.00,1.07,0.22,9.23,-0.00,0.00,0.00,0.00
2026-06-26 19:41:40.179,994.34,994.33,-0.40,-0.84,0.00,1.07,0.22,9.23,-0.00,0.00,0.00,0.00
2026-06-26 19:41:40.181,994.34,994.33,-0.40,-0.84,0.00,1.07,0.22,9.23,-0.00,0.00,0.00,0.00
2026-06-26 19:41:40.186,994.34,994.33,-0.40,-0.84,0.00,1.07,0.22,9.23,-0.00,0.00,0.00,0.00
2026-06-26 19:41:40.327,994.34,994.31,-2.47,-2.08,0.00,1.08,0.22,9.29,0.00,-0.00,0.00,0.00
2026-06-26 19:41:40.328,994.34,994.31,-2.47,-2.08,0.00,1.05,0.23,9.25,0.00,-0.00,0.00,0.00
2026-06-26 19:41:40.330,994.34,994.31,-2.47,-2.08,0.00,1.05,0.23,9.25,0.00,-0.00,0.00,0.00
2026-06-26 19:41:40.331,994.34,994.31,-2.47,-2.08,0.00,1.05,0.23,9.25,0.00,-0.00,0.00,0.00
2026-06-26 19:41:40.332,994.34,994.31,-2.47,-2.08,0.00,1.05,0.23,9.25,0.00,-0.00,0.00,0.00
2026-06-26 19:41:40.337,994.34,994.31,-2.47,-2.08,0.00,1.05,0.23,9.25,0.00,-0.00,0.00,0.00
2026-06-26 19:41:40.338,994.34,994.31,-2.47,-2.08,0.00,1.07,0.23,9.27,0.00,-0.00,0.00,0.00
2026-06-26 19:41:40.341,994.34,994.31,-2.47,-2.08,0.00,1.07,0.23,9.27,0.00,-0.00,0.00,0.00
2026-06-26 19:41:40.346,994.34,994.31,-2.47,-2.08,0.00,1.07,0.23,9.27,0.00,-0.00,0.00,0.00
2026-06-26 19:41:40.348,994.34,994.31,-2.47,-2.08,0.00,1.10,0.24,9.28,0.00,-0.00,-0.00,0.00
2026-06-26 19:41:40.350,994.34,994.31,-2.47,-2.08,0.00,1.10,0.24,9.28,0.00,-0.00,-0.00,0.00
2026-06-26 19:41:40.352,994.34,994.31,-2.47,-2.08,0.00,1.10,0.24,9.28,0.00,-0.00,-0.00,0.00
2026-06-26 19:41:40.353,994.34,994.31,-2.47,-2.08,0.00,1.10,0.24,9.28,0.00,-0.00,-0.00,0.00
2026-06-26 19:41:40.354,994.34,994.31,-2.47,-2.08,0.00,1.10,0.24,9.28,0.00,-0.00,-0.00,0.00
2026-06-26 19:41:40.357,994.34,994.31,-2.47,-2.08,0.00,1.10,0.24,9.28,0.00,-0.00,-0.00,0.00
2026-06-26 19:41:40.358,994.34,994.31,-2.47,-2.08,0.00,1.06,0.23,9.29,0.00,-0.00,-0.00,0.00
2026-06-26 19:41:40.500,994.32,994.33,0.82,1.20,0.00,1.07,0.23,9.26,0.00,0.00,0.00,0.00
2026-06-26 19:41:40.503,994.32,994.33,0.82,1.20,0.00,1.07,0.23,9.26,0.00,0.00,0.00,0.00
2026-06-26 19:41:40.505,994.32,994.33,0.82,1.20,0.00,1.07,0.23,9.26,0.00,0.00,0.00,0.00
2026-06-26 19:41:40.508,994.32,994.33,0.82,1.20,0.00,1.07,0.23,9.26,-0.00,-0.00,0.00,0.00
2026-06-26 19:41:40.509,994.32,994.33,0.82,1.20,0.00,1.06,0.22,9.27,-0.00,-0.00,0.00,0.00
2026-06-26 19:41:40.516,994.32,994.33,0.82,1.20,0.00,1.06,0.22,9.27,-0.00,-0.00,0.00,0.00
2026-06-26 19:41:40.518,994.32,994.33,0.82,1.20,0.00,1.07,0.23,9.27,0.00,-0.00,0.00,0.00
2026-06-26 19:41:40.520,994.32,994.33,0.82,1.20,0.00,1.07,0.23,9.27,0.00,-0.00,0.00,0.00
2026-06-26 19:41:40.522,994.32,994.33,0.82,1.20,0.00,1.07,0.23,9.27,0.00,-0.00,0.00,0.00
2026-06-26 19:41:40.527,994.32,994.33,0.82,1.20,0.00,1.07,0.23,9.27,0.00,0.00,0.00,0.00
2026-06-26 19:41:40.529,994.32,994.33,0.82,1.20,0.00,1.05,0.23,9.28,0.00,0.00,0.00,0.00
2026-06-26 19:41:40.532,994.32,994.33,0.82,1.20,0.00,1.05,0.23,9.28,0.00,0.00,0.00,0.00
2026-06-26 19:41:40.535,994.32,994.33,0.82,1.20,0.00,1.05,0.23,9.28,0.00,0.00,0.00,0.00
2026-06-26 19:41:40.678,994.33,994.33,-0.52,-0.95,0.00,1.06,0.24,9.27,0.00,-0.00,0.00,0.00
2026-06-26 19:41:40.680,994.33,994.33,-0.52,-0.95,0.00,1.08,0.22,9.26,0.00,-0.00,0.00,0.00
2026-06-26 19:41:40.681,994.33,994.33,-0.52,-0.95,0.00,1.08,0.22,9.26,0.00,-0.00,0.00,0.00
2026-06-26 19:41:40.688,994.33,994.33,-0.52,-0.95,0.00,1.08,0.22,9.26,0.00,-0.00,0.00,0.00
2026-06-26 19:41:40.689,994.33,994.33,-0.52,-0.95,0.00,1.06,0.24,9.25,-0.00,-0.00,0.00,0.00
2026-06-26 19:41:40.691,994.33,994.33,-0.52,-0.95,0.00,1.06,0.24,9.25,-0.00,-0.00,0.00,0.00
2026-06-26 19:41:40.696,994.33,994.33,-0.52,-0.95,0.00,1.06,0.24,9.25,-0.00,-0.00,0.00,0.00
2026-06-26 19:41:40.698,994.33,994.33,-0.52,-0.95,0.00,1.06,0.24,9.25,0.00,-0.00,0.00,0.00
2026-06-26 19:41:40.700,994.33,994.33,-0.52,-0.95,0.00,1.07,0.23,9.27,0.00,-0.00,0.00,0.00
2026-06-26 19:41:40.702,994.33,994.33,-0.52,-0.95,0.00,1.07,0.23,9.27,0.00,-0.00,0.00,0.00
2026-06-26 19:41:40.703,994.33,994.33,-0.52,-0.95,0.00,1.07,0.23,9.27,0.00,-0.00,0.00,0.00
2026-06-26 19:41:40.705,994.33,994.33,-0.52,-0.95,0.00,1.07,0.23,9.27,0.00,-0.00,0.00,0.00
2026-06-26 19:41:40.711,994.33,994.33,-0.52,-0.95,0.00,1.07,0.23,9.27,0.00,-0.01,-0.00,0.00
2026-06-26 19:41:40.854,994.35,994.34,-1.65,-1.70,0.00,1.07,0.24,9.28,-0.00,-0.00,0.00,0.00
2026-06-26 19:41:40.858,994.35,994.34,-1.65,-1.70,0.00,1.07,0.24,9.28,-0.00,-0.00,0.00,0.00
2026-06-26 19:41:40.860,994.35,994.34,-1.65,-1.70,0.00,1.07,0.23,9.28,0.00,0.00,-0.00,0.00
2026-06-26 19:41:40.862,994.35,994.34,-1.65,-1.70,0.00,1.07,0.23,9.28,0.00,0.00,-0.00,0.00
2026-06-26 19:41:40.868,994.35,994.34,-1.65,-1.70,0.00,1.07,0.23,9.28,0.00,0.00,-0.00,0.00
2026-06-26 19:41:40.870,994.35,994.34,-1.65,-1.70,0.00,1.08,0.24,9.27,-0.00,-0.00,0.00,0.00
2026-06-26 19:41:40.871,994.35,994.34,-1.65,-1.70,0.00,1.08,0.24,9.27,-0.00,-0.00,0.00,0.00
2026-06-26 19:41:40.875,994.35,994.34,-1.65,-1.70,0.00,1.08,0.24,9.27,-0.00,-0.00,0.00,0.00
2026-06-26 19:41:40.878,994.35,994.34,-1.65,-1.70,0.00,1.08,0.24,9.27,0.00,0.00,0.00,0.00
2026-06-26 19:41:40.880,994.35,994.34,-1.65,-1.70,0.00,1.09,0.22,9.25,0.00,0.00,0.00,0.00
2026-06-26 19:41:40.882,994.35,994.34,-1.65,-1.70,0.00,1.09,0.22,9.25,0.00,0.00,0.00,0.00
2026-06-26 19:41:40.887,994.35,994.34,-1.65,-1.70,0.00,1.09,0.22,9.25,0.00,0.00,0.00,0.00
2026-06-26 19:41:40.891,994.35,994.34,-1.65,-1.70,0.00,1.08,0.22,9.25,0.00,-0.00,0.00,0.00
2026-06-26 19:41:41.038,994.33,994.33,-0.13,-0.47,0.00,1.05,0.23,9.28,-0.00,0.00,0.00,0.00
2026-06-26 19:41:41.040,994.33,994.33,-0.13,-0.47,0.00,1.07,0.22,9.26,0.00,0.00,-0.00,0.00
2026-06-26 19:41:41.042,994.33,994.33,-0.13,-0.47,0.00,1.07,0.22,9.26,0.00,0.00,-0.00,0.00
2026-06-26 19:41:41.048,994.33,994.33,-0.13,-0.47,0.00,1.07,0.22,9.26,0.00,0.00,-0.00,0.00
2026-06-26 19:41:41.050,994.33,994.33,-0.13,-0.47,0.00,1.06,0.23,9.27,0.00,0.00,-0.00,0.00
2026-06-26 19:41:41.051,994.33,994.33,-0.13,-0.47,0.00,1.06,0.23,9.27,0.00,0.00,-0.00,0.00
2026-06-26 19:41:41.053,994.33,994.33,-0.13,-0.47,0.00,1.06,0.23,9.27,0.00,0.00,-0.00,0.00
2026-06-26 19:41:41.056,994.33,994.33,-0.13,-0.47,0.00,1.06,0.23,9.27,0.00,0.00,-0.00,0.00
2026-06-26 19:41:41.059,994.33,994.33,-0.13,-0.47,0.00,1.06,0.23,9.27,0.00,0.00,0.00,0.00
2026-06-26 19:41:41.061,994.33,994.33,-0.13,-0.47,0.00,1.07,0.23,9.28,0.00,0.00,0.00,0.00
2026-06-26 19:41:41.062,994.33,994.33,-0.13,-0.47,0.00,1.07,0.23,9.28,0.00,0.00,0.00,0.00
2026-06-26 19:41:41.068,994.33,994.33,-0.13,-0.47,0.00,1.07,0.23,9.28,0.00,0.00,0.00,0.00
2026-06-26 19:41:41.211,994.33,994.30,-2.72,-2.18,0.00,1.09,0.24,9.30,0.00,-0.00,0.00,0.00
2026-06-26 19:41:41.213,994.33,994.30,-2.72,-2.18,0.00,1.09,0.24,9.30,0.00,-0.00,0.00,0.00
2026-06-26 19:41:41.219,994.33,994.30,-2.72,-2.18,0.00,1.09,0.24,9.30,0.00,-0.00,0.00,0.00
2026-06-26 19:41:41.220,994.33,994.30,-2.72,-2.18,0.00,1.10,0.24,9.31,0.00,-0.00,0.00,0.00
2026-06-26 19:41:41.222,994.33,994.30,-2.72,-2.18,0.00,1.10,0.24,9.31,0.00,-0.00,0.00,0.00
2026-06-26 19:41:41.225,994.33,994.30,-2.72,-2.18,0.00,1.10,0.24,9.31,0.00,-0.00,0.00,0.00
2026-06-26 19:41:41.229,994.33,994.30,-2.72,-2.18,0.00,1.10,0.24,9.31,0.00,-0.00,-0.00,0.00
2026-06-26 19:41:41.231,994.33,994.30,-2.72,-2.18,0.00,1.05,0.23,9.25,0.00,-0.00,-0.00,0.00
2026-06-26 19:41:41.233,994.33,994.30,-2.72,-2.18,0.00,1.05,0.23,9.25,0.00,-0.00,-0.00,0.00
2026-06-26 19:41:41.236,994.33,994.30,-2.72,-2.18,0.00,1.05,0.23,9.25,0.00,-0.00,-0.00,0.00
2026-06-26 19:41:41.242,994.33,994.30,-2.72,-2.18,0.00,1.05,0.23,9.25,0.00,0.00,0.00,0.00
2026-06-26 19:41:41.248,994.33,994.30,-2.72,-2.18,0.00,1.08,0.24,9.26,0.00,0.00,0.00,0.00
2026-06-26 19:41:41.391,994.35,994.33,-2.48,-2.08,0.00,1.07,0.23,9.27,0.00,0.00,-0.00,0.00
2026-06-26 19:41:41.392,994.35,994.33,-2.48,-2.08,0.00,1.07,0.23,9.27,0.00,0.00,-0.00,0.00
2026-06-26 19:41:41.395,994.35,994.33,-2.48,-2.08,0.00,1.07,0.23,9.27,0.00,0.00,-0.00,0.00
2026-06-26 19:41:41.400,994.35,994.33,-2.48,-2.08,0.00,1.07,0.23,9.27,-0.00,0.00,0.00,0.00
2026-06-26 19:41:41.401,994.35,994.33,-2.48,-2.08,0.00,1.06,0.22,9.26,-0.00,0.00,0.00,0.00
2026-06-26 19:41:41.403,994.35,994.33,-2.48,-2.08,0.00,1.06,0.22,9.26,-0.00,0.00,0.00,0.00
2026-06-26 19:41:41.404,994.35,994.33,-2.48,-2.08,0.00,1.06,0.22,9.26,-0.00,0.00,0.00,0.00
2026-06-26 19:41:41.406,994.35,994.33,-2.48,-2.08,0.00,1.06,0.22,9.26,-0.00,0.00,0.00,0.00
2026-06-26 19:41:41.407,994.35,994.33,-2.48,-2.08,0.00,1.06,0.22,9.26,-0.00,0.00,0.00,0.00
2026-06-26 19:41:41.410,994.35,994.33,-2.48,-2.08,0.00,1.06,0.22,9.26,-0.00,0.00,0.00,0.00
2026-06-26 19:41:41.411,994.35,994.33,-2.48,-2.08,0.00,1.06,0.22,9.29,-0.00,0.00,0.00,0.00
2026-06-26 19:41:41.414,994.35,994.33,-2.48,-2.08,0.00,1.06,0.22,9.29,-0.00,0.00,0.00,0.00
2026-06-26 19:41:41.419,994.35,994.33,-2.48,-2.08,0.00,1.06,0.22,9.29,-0.00,0.00,0.00,0.00
2026-06-26 19:41:41.421,994.35,994.33,-2.48,-2.08,0.00,1.07,0.27,9.28,-0.00,0.00,0.00,0.00
2026-06-26 19:41:41.422,994.35,994.33,-2.48,-2.08,0.00,1.07,0.27,9.28,-0.00,0.00,0.00,0.00
2026-06-26 19:41:41.424,994.35,994.33,-2.48,-2.08,0.00,1.07,0.27,9.28,-0.00,0.00,0.00,0.00
2026-06-26 19:41:41.430,994.35,994.33,-2.48,-2.08,0.00,1.07,0.27,9.28,-0.00,0.00,-0.00,0.00
2026-06-26 19:41:41.571,994.35,994.33,-2.54,-2.11,0.00,1.07,0.24,9.27,0.00,-0.00,-0.00,0.00
2026-06-26 19:41:41.573,994.35,994.33,-2.54,-2.11,0.00,1.07,0.24,9.27,0.00,-0.00,-0.00,0.00
2026-06-26 19:41:41.574,994.35,994.33,-2.54,-2.11,0.00,1.07,0.24,9.27,0.00,-0.00,-0.00,0.00
2026-06-26 19:41:41.580,994.35,994.33,-2.54,-2.11,0.00,1.07,0.24,9.27,0.00,-0.00,-0.00,0.00
2026-06-26 19:41:41.584,994.35,994.33,-2.54,-2.11,0.00,1.06,0.22,9.26,-0.00,-0.00,-0.00,0.00
2026-06-26 19:41:41.590,994.35,994.33,-2.54,-2.11,0.00,1.06,0.22,9.26,0.00,0.00,0.00,0.00
2026-06-26 19:41:41.592,994.35,994.33,-2.54,-2.11,0.00,1.07,0.25,9.27,0.00,0.00,0.00,0.00
2026-06-26 19:41:41.594,994.35,994.33,-2.54,-2.11,0.00,1.07,0.25,9.27,0.00,0.00,0.00,0.00
2026-06-26 19:41:41.600,994.35,994.33,-2.54,-2.11,0.00,1.07,0.25,9.27,0.00,0.00,0.00,0.00
2026-06-26 19:41:41.602,994.35,994.33,-2.54,-2.11,0.00,1.08,0.23,9.28,0.00,-0.00,-0.00,0.00
2026-06-26 19:41:41.603,994.35,994.33,-2.54,-2.11,0.00,1.08,0.23,9.28,0.00,-0.00,-0.00,0.00
2026-06-26 19:41:41.742,994.35,994.32,-3.45,-2.46,0.00,1.07,0.23,9.26,0.00,-0.00,0.00,0.00
2026-06-26 19:41:41.744,994.35,994.32,-3.45,-2.46,0.00,1.06,0.24,9.27,0.00,-0.00,0.00,0.00
2026-06-26 19:41:41.750,994.35,994.32,-3.45,-2.46,0.00,1.06,0.24,9.27,0.00,-0.00,0.00,0.00
2026-06-26 19:41:41.752,994.35,994.32,-3.45,-2.46,0.00,1.07,0.25,9.27,-0.00,-0.00,0.00,0.00
2026-06-26 19:41:41.753,994.35,994.32,-3.45,-2.46,0.00,1.07,0.25,9.27,-0.00,-0.00,0.00,0.00
2026-06-26 19:41:41.755,994.35,994.32,-3.45,-2.46,0.00,1.07,0.25,9.27,-0.00,-0.00,0.00,0.00
2026-06-26 19:41:41.756,994.35,994.32,-3.45,-2.46,0.00,1.07,0.25,9.27,-0.00,-0.00,0.00,0.00
2026-06-26 19:41:41.757,994.35,994.32,-3.45,-2.46,0.00,1.07,0.25,9.27,-0.00,-0.00,0.00,0.00
2026-06-26 19:41:41.761,994.35,994.32,-3.45,-2.46,0.00,1.07,0.25,9.27,-0.00,-0.00,0.00,0.00
2026-06-26 19:41:41.764,994.35,994.32,-3.45,-2.46,0.00,1.06,0.24,9.31,-0.00,-0.00,0.00,0.00
2026-06-26 19:41:41.770,994.35,994.32,-3.45,-2.46,0.00,1.06,0.24,9.31,-0.00,-0.00,0.00,0.00
2026-06-26 19:41:41.772,994.35,994.32,-3.45,-2.46,0.00,1.06,0.24,9.27,-0.00,0.00,0.00,0.00
2026-06-26 19:41:41.773,994.35,994.32,-3.45,-2.46,0.00,1.06,0.24,9.27,-0.00,0.00,0.00,0.00
2026-06-26 19:41:41.775,994.35,994.32,-3.45,-2.46,0.00,1.06,0.24,9.27,-0.00,0.00,0.00,0.00
2026-06-26 19:41:41.780,994.35,994.32,-3.45,-2.46,0.00,1.06,0.24,9.27,-0.00,0.00,0.00,0.00
2026-06-26 19:41:41.921,994.35,994.33,-1.93,-1.84,0.00,1.07,0.24,9.28,-0.00,-0.00,0.00,0.00
2026-06-26 19:41:41.923,994.35,994.33,-1.93,-1.84,0.00,1.09,0.21,9.28,-0.00,-0.00,0.00,0.00
2026-06-26 19:41:41.924,994.35,994.33,-1.93,-1.84,0.00,1.09,0.21,9.28,-0.00,-0.00,0.00,0.00
2026-06-26 19:41:41.931,994.35,994.33,-1.93,-1.84,0.00,1.09,0.21,9.28,-0.00,-0.00,0.00,0.00
2026-06-26 19:41:41.933,994.35,994.33,-1.93,-1.84,0.00,1.06,0.25,9.24,0.00,-0.00,-0.00,0.00
2026-06-26 19:41:41.935,994.35,994.33,-1.93,-1.84,0.00,1.06,0.25,9.24,0.00,-0.00,-0.00,0.00
2026-06-26 19:41:41.940,994.35,994.33,-1.93,-1.84,0.00,1.06,0.25,9.24,0.00,-0.00,-0.00,0.00
2026-06-26 19:41:41.942,994.35,994.33,-1.93,-1.84,0.00,1.05,0.23,9.27,0.00,0.00,0.00,0.00
2026-06-26 19:41:41.944,994.35,994.33,-1.93,-1.84,0.00,1.05,0.23,9.27,0.00,0.00,0.00,0.00
2026-06-26 19:41:41.948,994.35,994.33,-1.93,-1.84,0.00,1.05,0.23,9.27,0.00,0.00,0.00,0.00
2026-06-26 19:41:41.951,994.35,994.33,-1.93,-1.84,0.00,1.05,0.23,9.27,0.00,0.00,0.00,0.00
2026-06-26 19:41:42.093,994.34,994.31,-3.01,-2.30,0.00,1.08,0.22,9.25,0.00,-0.00,0.00,0.00
2026-06-26 19:41:42.095,994.34,994.31,-3.01,-2.30,0.00,1.06,0.26,9.27,0.00,-0.00,0.00,0.00
2026-06-26 19:41:42.101,994.34,994.31,-3.01,-2.30,0.00,1.06,0.26,9.27,0.00,-0.00,0.00,0.00
2026-06-26 19:41:42.103,994.34,994.31,-3.01,-2.30,0.00,1.06,0.24,9.29,0.00,0.00,0.00,0.00
2026-06-26 19:41:42.121,994.34,994.31,-3.01,-2.30,0.00,1.06,0.24,9.29,0.00,0.00,0.00,0.00
2026-06-26 19:41:42.123,994.34,994.31,-3.01,-2.30,0.00,1.07,0.25,9.26,-0.00,-0.00,0.00,0.00
2026-06-26 19:41:42.262,994.34,994.33,-1.33,-1.52,0.00,1.07,0.23,9.27,0.00,0.00,0.00,0.00
2026-06-26 19:41:42.264,994.34,994.33,-1.33,-1.52,0.00,1.07,0.23,9.27,0.00,0.00,0.00,0.00
2026-06-26 19:41:42.265,994.34,994.33,-1.33,-1.52,0.00,1.07,0.23,9.27,0.00,0.00,0.00,0.00
2026-06-26 19:41:42.271,994.34,994.33,-1.33,-1.52,0.00,1.07,0.23,9.27,0.00,0.00,0.00,0.00
2026-06-26 19:41:42.273,994.34,994.33,-1.33,-1.52,0.00,1.07,0.22,9.26,0.00,0.00,0.00,0.00
2026-06-26 19:41:42.274,994.34,994.33,-1.33,-1.52,0.00,1.07,0.22,9.26,0.00,0.00,0.00,0.00
2026-06-26 19:41:42.277,994.34,994.33,-1.33,-1.52,0.00,1.07,0.22,9.26,0.00,0.00,0.00,0.00
2026-06-26 19:41:42.281,994.34,994.33,-1.33,-1.52,0.00,1.07,0.22,9.26,0.00,0.00,0.00,0.00
2026-06-26 19:41:42.283,994.34,994.33,-1.33,-1.52,0.00,1.07,0.22,9.27,0.00,0.00,0.00,0.00
2026-06-26 19:41:42.285,994.34,994.33,-1.33,-1.52,0.00,1.07,0.22,9.27,0.00,0.00,0.00,0.00
2026-06-26 19:41:42.288,994.34,994.33,-1.33,-1.52,0.00,1.07,0.22,9.27,0.00,0.00,0.00,0.00
2026-06-26 19:41:42.292,994.34,994.33,-1.33,-1.52,0.00,1.07,0.22,9.27,0.00,0.00,-0.00,0.00
2026-06-26 19:41:42.294,994.34,994.33,-1.33,-1.52,0.00,1.05,0.24,9.27,0.00,0.00,-0.00,0.00
2026-06-26 19:41:42.295,994.34,994.33,-1.33,-1.52,0.00,1.05,0.24,9.27,0.00,0.00,-0.00,0.00
2026-06-26 19:41:42.302,994.34,994.33,-1.33,-1.52,0.00,1.05,0.24,9.27,0.00,0.00,-0.00,0.00
2026-06-26 19:41:42.443,994.34,994.33,-1.03,-1.34,0.00,1.07,0.24,9.27,0.00,0.00,0.00,0.00
2026-06-26 19:41:42.444,994.34,994.33,-1.03,-1.34,0.00,1.07,0.24,9.27,0.00,0.00,0.00,0.00
2026-06-26 19:41:42.446,994.34,994.33,-1.03,-1.34,0.00,1.07,0.24,9.27,0.00,0.00,0.00,0.00
2026-06-26 19:41:42.452,994.34,994.33,-1.03,-1.34,0.00,1.07,0.24,9.27,0.00,0.00,0.00,0.00
2026-06-26 19:41:42.454,994.34,994.33,-1.03,-1.34,0.00,1.07,0.25,9.27,0.00,0.00,0.00,0.00
2026-06-26 19:41:42.455,994.34,994.33,-1.03,-1.34,0.00,1.07,0.25,9.27,0.00,0.00,0.00,0.00
2026-06-26 19:41:42.457,994.34,994.33,-1.03,-1.34,0.00,1.07,0.25,9.27,0.00,0.00,0.00,0.00
2026-06-26 19:41:42.458,994.34,994.33,-1.03,-1.34,0.00,1.07,0.25,9.27,0.00,0.00,0.00,0.00
2026-06-26 19:41:42.460,994.34,994.33,-1.03,-1.34,0.00,1.07,0.25,9.27,0.00,0.00,0.00,0.00
2026-06-26 19:41:42.462,994.34,994.33,-1.03,-1.34,0.00,1.07,0.25,9.27,0.00,-0.00,0.00,0.00
2026-06-26 19:41:42.464,994.34,994.33,-1.03,-1.34,0.00,1.07,0.23,9.28,0.00,-0.00,0.00,0.00
2026-06-26 19:41:42.465,994.34,994.33,-1.03,-1.34,0.00,1.07,0.23,9.28,0.00,-0.00,0.00,0.00
2026-06-26 19:41:42.469,994.34,994.33,-1.03,-1.34,0.00,1.07,0.23,9.28,0.00,-0.00,0.00,0.00
2026-06-26 19:41:42.474,994.34,994.33,-1.03,-1.34,0.00,1.07,0.22,9.28,-0.00,0.00,0.00,0.00
2026-06-26 19:41:42.482,994.34,994.33,-1.03,-1.34,0.00,1.07,0.22,9.28,-0.00,0.00,0.00,0.00
2026-06-26 19:41:42.624,994.33,994.31,-2.05,-1.90,0.00,1.07,0.24,9.28,0.00,-0.00,0.00,0.00
2026-06-26 19:41:42.626,994.33,994.31,-2.05,-1.90,0.00,1.07,0.24,9.28,0.00,-0.00,0.00,0.00
2026-06-26 19:41:42.630,994.33,994.31,-2.05,-1.90,0.00,1.07,0.24,9.28,0.00,-0.00,0.00,0.00
2026-06-26 19:41:42.633,994.33,994.31,-2.05,-1.90,0.00,1.08,0.25,9.25,0.00,-0.00,0.00,0.00
2026-06-26 19:41:42.637,994.33,994.31,-2.05,-1.90,0.00,1.08,0.25,9.25,0.00,-0.00,0.00,0.00
2026-06-26 19:41:42.642,994.33,994.31,-2.05,-1.90,0.00,1.08,0.25,9.25,0.00,-0.00,0.00,0.00
2026-06-26 19:41:42.644,994.33,994.31,-2.05,-1.90,0.00,1.08,0.22,9.28,0.00,-0.00,0.00,0.00
2026-06-26 19:41:42.646,994.33,994.31,-2.05,-1.90,0.00,1.08,0.22,9.28,0.00,-0.00,0.00,0.00
2026-06-26 19:41:42.650,994.33,994.31,-2.05,-1.90,0.00,1.08,0.22,9.28,0.00,-0.00,0.00,0.00
2026-06-26 19:41:42.654,994.33,994.31,-2.05,-1.90,0.00,1.08,0.24,9.26,-0.00,-0.00,0.00,0.00
2026-06-26 19:41:42.657,994.33,994.31,-2.05,-1.90,0.00,1.08,0.24,9.26,-0.00,-0.00,0.00,0.00
2026-06-26 19:41:42.664,994.33,994.31,-2.05,-1.90,0.00,1.08,0.24,9.26,0.00,0.00,0.00,0.00
2026-06-26 19:41:42.804,994.35,994.32,-2.95,-2.27,0.00,1.07,0.22,9.27,0.00,-0.00,0.00,0.00
2026-06-26 19:41:42.805,994.35,994.32,-2.95,-2.27,0.00,1.07,0.22,9.27,0.00,-0.00,0.00,0.00
2026-06-26 19:41:42.807,994.35,994.32,-2.95,-2.27,0.00,1.07,0.22,9.27,0.00,-0.00,0.00,0.00
2026-06-26 19:41:42.808,994.35,994.32,-2.95,-2.27,0.00,1.07,0.22,9.27,0.00,-0.00,0.00,0.00
2026-06-26 19:41:42.810,994.35,994.32,-2.95,-2.27,0.00,1.07,0.22,9.27,0.00,-0.00,0.00,0.00
2026-06-26 19:41:42.812,994.35,994.32,-2.95,-2.27,0.00,1.07,0.22,9.27,0.00,-0.00,0.00,0.00
2026-06-26 19:41:42.814,994.35,994.32,-2.95,-2.27,0.00,1.06,0.25,9.28,0.00,0.00,0.00,0.00
2026-06-26 19:41:42.816,994.35,994.32,-2.95,-2.27,0.00,1.06,0.25,9.28,0.00,0.00,0.00,0.00
2026-06-26 19:41:42.820,994.35,994.32,-2.95,-2.27,0.00,1.06,0.25,9.28,0.00,0.00,0.00,0.00
2026-06-26 19:41:42.831,994.35,994.32,-2.95,-2.27,0.00,1.06,0.25,9.28,0.00,0.00,0.00,0.00
2026-06-26 19:41:42.836,994.35,994.32,-2.95,-2.27,0.00,1.07,0.23,9.25,0.00,0.00,0.00,0.00
2026-06-26 19:41:42.842,994.35,994.32,-2.95,-2.27,0.00,1.07,0.23,9.25,0.00,0.00,0.00,0.00
2026-06-26 19:41:42.993,994.34,994.33,-1.07,-1.37,0.00,1.07,0.22,9.27,0.00,0.00,-0.00,0.00
2026-06-26 19:41:42.995,994.34,994.33,-1.07,-1.37,0.00,1.07,0.23,9.29,0.00,-0.00,0.00,0.00
2026-06-26 19:41:42.996,994.34,994.33,-1.07,-1.37,0.00,1.07,0.23,9.29,0.00,-0.00,0.00,0.00
2026-06-26 19:41:42.999,994.34,994.33,-1.07,-1.37,0.00,1.07,0.23,9.29,0.00,-0.00,0.00,0.00
2026-06-26 19:41:43.004,994.34,994.33,-1.07,-1.37,0.00,1.07,0.23,9.29,0.00,-0.00,-0.00,0.00
2026-06-26 19:41:43.005,994.34,994.33,-1.07,-1.37,0.00,1.06,0.25,9.29,0.00,-0.00,-0.00,0.00
2026-06-26 19:41:43.007,994.34,994.33,-1.07,-1.37,0.00,1.06,0.25,9.29,0.00,-0.00,-0.00,0.00
2026-06-26 19:41:43.008,994.34,994.33,-1.07,-1.37,0.00,1.06,0.25,9.29,0.00,-0.00,-0.00,0.00
2026-06-26 19:41:43.010,994.34,994.33,-1.07,-1.37,0.00,1.06,0.25,9.29,0.00,-0.00,-0.00,0.00
2026-06-26 19:41:43.015,994.34,994.33,-1.07,-1.37,0.00,1.07,0.23,9.27,0.00,0.00,0.00,0.00
2026-06-26 19:41:43.017,994.34,994.33,-1.07,-1.37,0.00,1.07,0.23,9.27,0.00,0.00,0.00,0.00
2026-06-26 19:41:43.022,994.34,994.33,-1.07,-1.37,0.00,1.07,0.23,9.27,0.00,0.00,0.00,0.00
2026-06-26 19:41:43.024,994.34,994.33,-1.07,-1.37,0.00,1.08,0.21,9.28,0.00,0.00,-0.00,0.00
2026-06-26 19:41:43.164,994.34,994.33,-0.85,-1.22,0.00,1.06,0.25,9.27,0.00,-0.00,0.00,0.00
2026-06-26 19:41:43.166,994.34,994.33,-0.85,-1.22,0.00,1.04,0.23,9.28,0.00,-0.00,0.00,0.00
2026-06-26 19:41:43.169,994.34,994.33,-0.85,-1.22,0.00,1.04,0.23,9.28,0.00,-0.00,0.00,0.00
2026-06-26 19:41:43.173,994.34,994.33,-0.85,-1.22,0.00,1.04,0.23,9.28,-0.00,0.00,0.00,0.00
2026-06-26 19:41:43.175,994.34,994.33,-0.85,-1.22,0.00,1.08,0.24,9.29,-0.00,0.00,0.00,0.00
2026-06-26 19:41:43.177,994.34,994.33,-0.85,-1.22,0.00,1.08,0.24,9.29,-0.00,0.00,0.00,0.00
2026-06-26 19:41:43.181,994.34,994.33,-0.85,-1.22,0.00,1.08,0.24,9.29,-0.00,0.00,0.00,0.00
2026-06-26 19:41:43.185,994.34,994.33,-0.85,-1.22,0.00,1.05,0.22,9.26,0.00,0.00,-0.00,0.00
2026-06-26 19:41:43.186,994.34,994.33,-0.85,-1.22,0.00,1.05,0.22,9.26,0.00,0.00,-0.00,0.00
2026-06-26 19:41:43.190,994.34,994.33,-0.85,-1.22,0.00,1.05,0.22,9.26,0.00,0.00,-0.00,0.00
2026-06-26 19:41:43.194,994.34,994.33,-0.85,-1.22,0.00,1.05,0.22,9.26,0.00,0.00,0.00,0.00
2026-06-26 19:41:43.196,994.34,994.33,-0.85,-1.22,0.00,1.07,0.24,9.28,0.00,0.00,0.00,0.00
2026-06-26 19:41:43.198,994.34,994.33,-0.85,-1.22,0.00,1.07,0.24,9.28,0.00,0.00,0.00,0.00
2026-06-26 19:41:43.203,994.34,994.33,-0.85,-1.22,0.00,1.07,0.24,9.28,0.00,0.00,0.00,0.00
2026-06-26 19:41:43.344,994.34,994.33,-0.73,-1.13,0.00,1.05,0.24,9.28,0.00,0.00,0.00,0.00
2026-06-26 19:41:43.346,994.34,994.33,-0.73,-1.13,0.00,1.07,0.26,9.26,0.00,0.00,0.00,0.00
2026-06-26 19:41:43.347,994.34,994.33,-0.73,-1.13,0.00,1.07,0.26,9.26,0.00,0.00,0.00,0.00
2026-06-26 19:41:43.353,994.34,994.33,-0.73,-1.13,0.00,1.07,0.26,9.26,0.00,0.00,0.00,0.00
2026-06-26 19:41:43.357,994.34,994.33,-0.73,-1.13,0.00,1.06,0.24,9.25,0.00,0.00,0.00,0.00
2026-06-26 19:41:43.360,994.34,994.33,-0.73,-1.13,0.00,1.06,0.24,9.25,0.00,0.00,0.00,0.00
2026-06-26 19:41:43.364,994.34,994.33,-0.73,-1.13,0.00,1.06,0.24,9.25,-0.00,0.00,0.00,0.00
2026-06-26 19:41:43.367,994.34,994.33,-0.73,-1.13,0.00,1.06,0.23,9.27,-0.00,0.00,0.00,0.00
2026-06-26 19:41:43.373,994.34,994.33,-0.73,-1.13,0.00,1.06,0.23,9.27,-0.00,0.00,0.00,0.00
2026-06-26 19:41:43.375,994.34,994.33,-0.73,-1.13,0.00,1.05,0.22,9.28,0.00,0.00,0.00,0.00
2026-06-26 19:41:43.376,994.34,994.33,-0.73,-1.13,0.00,1.05,0.22,9.28,0.00,0.00,0.00,0.00
2026-06-26 19:41:43.378,994.34,994.33,-0.73,-1.13,0.00,1.05,0.22,9.28,0.00,0.00,0.00,0.00
2026-06-26 19:41:43.384,994.34,994.33,-0.73,-1.13,0.00,1.05,0.22,9.28,0.00,0.00,0.00,0.00
2026-06-26 19:41:43.524,994.34,994.34,-0.13,-0.48,0.00,1.03,0.24,9.26,0.00,-0.00,0.00,0.00
2026-06-26 19:41:43.526,994.34,994.34,-0.13,-0.48,0.00,1.07,0.22,9.27,0.00,-0.00,0.00,0.00
2026-06-26 19:41:43.528,994.34,994.34,-0.13,-0.48,0.00,1.07,0.22,9.27,0.00,-0.00,0.00,0.00
2026-06-26 19:41:43.534,994.34,994.34,-0.13,-0.48,0.00,1.07,0.22,9.27,0.00,-0.00,0.00,0.00
2026-06-26 19:41:43.536,994.34,994.34,-0.13,-0.48,0.00,1.08,0.24,9.27,0.00,0.00,0.00,0.00
2026-06-26 19:41:43.537,994.34,994.34,-0.13,-0.48,0.00,1.08,0.24,9.27,0.00,0.00,0.00,0.00
2026-06-26 19:41:43.539,994.34,994.34,-0.13,-0.48,0.00,1.08,0.24,9.27,0.00,0.00,0.00,0.00
2026-06-26 19:41:43.544,994.34,994.34,-0.13,-0.48,0.00,1.08,0.24,9.27,0.00,0.00,0.00,0.00
2026-06-26 19:41:43.546,994.34,994.34,-0.13,-0.48,0.00,1.07,0.23,9.27,0.00,0.00,-0.00,0.00
2026-06-26 19:41:43.547,994.34,994.34,-0.13,-0.48,0.00,1.07,0.23,9.27,0.00,0.00,-0.00,0.00
2026-06-26 19:41:43.549,994.34,994.34,-0.13,-0.48,0.00,1.07,0.23,9.27,0.00,0.00,-0.00,0.00
2026-06-26 19:41:43.554,994.34,994.34,-0.13,-0.48,0.00,1.07,0.23,9.27,0.00,0.00,-0.00,0.00
2026-06-26 19:41:43.556,994.34,994.34,-0.13,-0.48,0.00,1.06,0.24,9.26,0.00,0.00,0.00,0.00
2026-06-26 19:41:43.695,994.32,994.33,0.61,1.04,0.00,1.06,0.23,9.25,0.00,0.00,-0.00,0.00
2026-06-26 19:41:43.705,994.32,994.33,0.61,1.04,0.00,1.05,0.22,9.27,-0.00,0.00,0.00,0.00
2026-06-26 19:41:43.706,994.32,994.33,0.61,1.04,0.00,1.06,0.22,9.27,-0.00,0.00,0.00,0.00
2026-06-26 19:41:43.708,994.32,994.33,0.61,1.04,0.00,1.06,0.22,9.27,-0.00,0.00,0.00,0.00
2026-06-26 19:41:43.710,994.32,994.33,0.61,1.04,0.00,1.06,0.22,9.27,-0.00,0.00,0.00,0.00
2026-06-26 19:41:43.714,994.32,994.33,0.61,1.04,0.00,1.06,0.22,9.27,-0.00,0.00,0.00,0.00
2026-06-26 19:41:43.716,994.32,994.33,0.61,1.04,0.00,1.08,0.24,9.30,0.00,-0.00,-0.00,0.00
2026-06-26 19:41:43.724,994.32,994.33,0.61,1.04,0.00,1.08,0.24,9.30,0.00,-0.00,-0.00,0.00
2026-06-26 19:41:43.726,994.32,994.33,0.61,1.04,0.00,1.07,0.23,9.27,0.00,0.00,-0.00,0.00
2026-06-26 19:41:43.727,994.32,994.33,0.61,1.04,0.00,1.07,0.23,9.27,0.00,0.00,-0.00,0.00
2026-06-26 19:41:43.875,994.34,994.32,-1.87,-1.81,0.00,1.08,0.22,9.32,0.00,0.00,0.00,0.00
2026-06-26 19:41:43.878,994.34,994.32,-1.87,-1.81,0.00,1.07,0.25,9.27,0.00,0.00,0.00,0.00
2026-06-26 19:41:43.884,994.34,994.32,-1.87,-1.81,0.00,1.07,0.25,9.27,0.00,0.00,0.00,0.00
2026-06-26 19:41:43.888,994.34,994.32,-1.87,-1.81,0.00,1.08,0.25,9.26,0.00,0.00,0.00,0.00
2026-06-26 19:41:43.894,994.34,994.32,-1.87,-1.81,0.00,1.08,0.25,9.26,0.00,0.00,0.00,0.00
2026-06-26 19:41:43.896,994.34,994.32,-1.87,-1.81,0.00,1.05,0.23,9.28,0.00,0.00,0.00,0.00
2026-06-26 19:41:43.898,994.34,994.32,-1.87,-1.81,0.00,1.05,0.23,9.28,0.00,0.00,0.00,0.00
2026-06-26 19:41:43.899,994.34,994.32,-1.87,-1.81,0.00,1.05,0.23,9.28,0.00,0.00,0.00,0.00
2026-06-26 19:41:43.906,994.34,994.32,-1.87,-1.81,0.00,1.05,0.23,9.28,0.00,0.00,0.00,0.00
2026-06-26 19:41:44.046,994.33,994.32,-1.44,-1.59,0.00,1.07,0.24,9.24,-0.00,0.00,0.00,0.00
2026-06-26 19:41:44.048,994.33,994.32,-1.44,-1.59,0.00,1.07,0.24,9.24,-0.00,0.00,0.00,0.00
2026-06-26 19:41:44.049,994.33,994.32,-1.44,-1.59,0.00,1.07,0.24,9.24,-0.00,0.00,0.00,0.00
2026-06-26 19:41:44.055,994.33,994.32,-1.44,-1.59,0.00,1.07,0.24,9.24,-0.00,0.00,0.00,0.00
2026-06-26 19:41:44.057,994.33,994.32,-1.44,-1.59,0.00,1.06,0.22,9.28,0.00,0.00,0.00,0.00
2026-06-26 19:41:44.060,994.33,994.32,-1.44,-1.59,0.00,1.06,0.22,9.28,0.00,0.00,0.00,0.00
2026-06-26 19:41:44.062,994.33,994.32,-1.44,-1.59,0.00,1.06,0.22,9.28,0.00,0.00,0.00,0.00
2026-06-26 19:41:44.066,994.33,994.32,-1.44,-1.59,0.00,1.06,0.22,9.28,0.00,0.00,0.00,0.00
2026-06-26 19:41:44.067,994.33,994.32,-1.44,-1.59,0.00,1.07,0.23,9.28,0.00,0.00,0.00,0.00
2026-06-26 19:41:44.072,994.33,994.32,-1.44,-1.59,0.00,1.07,0.23,9.28,0.00,0.00,0.00,0.00
2026-06-26 19:41:44.076,994.33,994.32,-1.44,-1.59,0.00,1.07,0.23,9.28,0.00,0.00,0.00,0.00
2026-06-26 19:41:44.078,994.33,994.32,-1.44,-1.59,0.00,1.05,0.25,9.27,0.00,0.00,0.00,0.00
2026-06-26 19:41:44.080,994.33,994.32,-1.44,-1.59,0.00,1.05,0.25,9.27,0.00,0.00,0.00,0.00
2026-06-26 19:41:44.218,994.35,994.34,-0.85,-1.22,0.00,1.03,0.22,9.27,-0.00,0.00,0.00,0.00
2026-06-26 19:41:44.222,994.35,994.34,-0.85,-1.22,0.00,1.03,0.22,9.27,-0.00,0.00,0.00,0.00
2026-06-26 19:41:44.226,994.35,994.34,-0.85,-1.22,0.00,1.03,0.22,9.27,0.00,-0.00,-0.00,0.00
2026-06-26 19:41:44.227,994.35,994.34,-0.85,-1.22,0.00,1.07,0.22,9.26,0.00,-0.00,-0.00,0.00
2026-06-26 19:41:44.229,994.35,994.34,-0.85,-1.22,0.00,1.07,0.22,9.26,0.00,-0.00,-0.00,0.00
2026-06-26 19:41:44.232,994.35,994.34,-0.85,-1.22,0.00,1.07,0.22,9.26,0.00,-0.00,-0.00,0.00
2026-06-26 19:41:44.236,994.35,994.34,-0.85,-1.22,0.00,1.07,0.22,9.26,0.00,-0.00,0.00,0.00
2026-06-26 19:41:44.238,994.35,994.34,-0.85,-1.22,0.00,1.07,0.24,9.26,0.00,-0.00,0.00,0.00
2026-06-26 19:41:44.239,994.35,994.34,-0.85,-1.22,0.00,1.07,0.24,9.26,0.00,-0.00,0.00,0.00
2026-06-26 19:41:44.241,994.35,994.34,-0.85,-1.22,0.00,1.07,0.24,9.26,0.00,-0.00,0.00,0.00
2026-06-26 19:41:44.246,994.35,994.34,-0.85,-1.22,0.00,1.07,0.24,9.26,0.00,-0.00,0.00,0.00
2026-06-26 19:41:44.249,994.35,994.34,-0.85,-1.22,0.00,1.06,0.23,9.27,-0.00,-0.00,0.00,0.00
2026-06-26 19:41:44.255,994.35,994.34,-0.85,-1.22,0.00,1.06,0.23,9.27,-0.00,-0.00,0.00,0.00
2026-06-26 19:41:44.257,994.35,994.34,-0.85,-1.22,0.00,1.06,0.23,9.29,0.00,0.00,0.00,0.00
2026-06-26 19:41:44.397,994.34,994.32,-1.77,-1.76,0.00,1.10,0.25,9.29,0.00,0.00,0.00,0.00
2026-06-26 19:41:44.399,994.34,994.32,-1.77,-1.76,0.00,1.10,0.25,9.29,0.00,0.00,0.00,0.00
2026-06-26 19:41:44.400,994.34,994.32,-1.77,-1.76,0.00,1.10,0.25,9.29,0.00,0.00,0.00,0.00
2026-06-26 19:41:44.406,994.34,994.32,-1.77,-1.76,0.00,1.10,0.25,9.29,0.00,0.00,0.00,0.00
2026-06-26 19:41:44.408,994.34,994.32,-1.77,-1.76,0.00,1.06,0.23,9.28,-0.00,-0.00,-0.00,0.00
2026-06-26 19:41:44.409,994.34,994.32,-1.77,-1.76,0.00,1.06,0.23,9.28,-0.00,-0.00,-0.00,0.00
2026-06-26 19:41:44.411,994.34,994.32,-1.77,-1.76,0.00,1.06,0.23,9.28,-0.00,-0.00,-0.00,0.00
2026-06-26 19:41:44.417,994.34,994.32,-1.77,-1.76,0.00,1.06,0.23,9.28,-0.00,-0.00,-0.00,0.00
2026-06-26 19:41:44.419,994.34,994.32,-1.77,-1.76,0.00,1.06,0.25,9.26,-0.00,-0.00,0.00,0.00
2026-06-26 19:41:44.424,994.34,994.32,-1.77,-1.76,0.00,1.06,0.25,9.26,-0.00,-0.00,0.00,0.00
2026-06-26 19:41:44.427,994.34,994.32,-1.77,-1.76,0.00,1.06,0.25,9.26,0.00,0.00,0.00,0.00
2026-06-26 19:41:44.429,994.34,994.32,-1.77,-1.76,0.00,1.06,0.23,9.27,0.00,0.00,0.00,0.00
2026-06-26 19:41:44.430,994.34,994.32,-1.77,-1.76,0.00,1.06,0.23,9.27,0.00,0.00,0.00,0.00
2026-06-26 19:41:44.567,994.35,994.33,-2.81,-2.22,0.00,1.06,0.24,9.29,0.00,0.00,0.00,0.00
2026-06-26 19:41:44.569,994.35,994.33,-2.81,-2.22,0.00,1.06,0.25,9.28,0.00,0.00,0.00,0.00
2026-06-26 19:41:44.570,994.35,994.33,-2.81,-2.22,0.00,1.06,0.25,9.28,0.00,0.00,0.00,0.00
2026-06-26 19:41:44.576,994.35,994.33,-2.81,-2.22,0.00,1.06,0.25,9.28,0.00,0.00,0.00,0.00
2026-06-26 19:41:44.578,994.35,994.33,-2.81,-2.22,0.00,1.06,0.22,9.29,0.00,-0.00,0.00,0.00
2026-06-26 19:41:44.579,994.35,994.33,-2.81,-2.22,0.00,1.06,0.22,9.29,0.00,-0.00,0.00,0.00
2026-06-26 19:41:44.583,994.35,994.33,-2.81,-2.22,0.00,1.06,0.22,9.29,0.00,-0.00,0.00,0.00
2026-06-26 19:41:44.587,994.35,994.33,-2.81,-2.22,0.00,1.06,0.22,9.29,0.00,0.00,0.00,0.00
2026-06-26 19:41:44.588,994.35,994.33,-2.81,-2.22,0.00,1.04,0.24,9.27,0.00,0.00,0.00,0.00
2026-06-26 19:41:44.590,994.35,994.33,-2.81,-2.22,0.00,1.04,0.24,9.27,0.00,0.00,0.00,0.00
2026-06-26 19:41:44.596,994.35,994.33,-2.81,-2.22,0.00,1.04,0.24,9.27,0.00,0.00,0.00,0.00
2026-06-26 19:41:44.598,994.35,994.33,-2.81,-2.22,0.00,1.08,0.23,9.27,0.00,-0.00,0.00,0.00
2026-06-26 19:41:44.600,994.35,994.33,-2.81,-2.22,0.00,1.08,0.23,9.27,0.00,-0.00,0.00,0.00
2026-06-26 19:41:44.607,994.35,994.33,-2.81,-2.22,0.00,1.08,0.23,9.27,0.00,-0.00,0.00,0.00
2026-06-26 19:41:44.749,994.33,994.32,-0.99,-1.32,0.00,1.06,0.25,9.28,0.00,-0.00,0.00,0.00
2026-06-26 19:41:44.751,994.33,994.32,-0.99,-1.32,0.00,1.06,0.25,9.28,0.00,-0.00,0.00,0.00
2026-06-26 19:41:44.757,994.33,994.32,-0.99,-1.32,0.00,1.06,0.25,9.28,0.00,0.00,0.00,0.00
2026-06-26 19:41:44.759,994.33,994.32,-0.99,-1.32,0.00,1.04,0.23,9.27,0.00,0.00,0.00,0.00
2026-06-26 19:41:44.761,994.33,994.32,-0.99,-1.32,0.00,1.04,0.23,9.27,0.00,0.00,0.00,0.00
2026-06-26 19:41:44.764,994.33,994.32,-0.99,-1.32,0.00,1.04,0.23,9.27,0.00,0.00,0.00,0.00
2026-06-26 19:41:44.767,994.33,994.32,-0.99,-1.32,0.00,1.04,0.23,9.27,0.00,0.00,0.00,0.00
2026-06-26 19:41:44.769,994.33,994.32,-0.99,-1.32,0.00,1.06,0.24,9.27,0.00,0.00,0.00,0.00
2026-06-26 19:41:44.771,994.33,994.32,-0.99,-1.32,0.00,1.06,0.24,9.27,0.00,0.00,0.00,0.00
2026-06-26 19:41:44.777,994.33,994.32,-0.99,-1.32,0.00,1.06,0.24,9.27,0.00,0.00,0.00,0.00
2026-06-26 19:41:44.778,994.33,994.32,-0.99,-1.32,0.00,1.06,0.22,9.24,0.00,0.00,-0.00,0.00
2026-06-26 19:41:44.780,994.33,994.32,-0.99,-1.32,0.00,1.06,0.22,9.24,0.00,0.00,-0.00,0.00
2026-06-26 19:41:44.784,994.33,994.32,-0.99,-1.32,0.00,1.06,0.22,9.24,0.00,0.00,-0.00,0.00
2026-06-26 19:41:44.928,994.34,994.32,-1.63,-1.69,0.00,1.07,0.24,9.29,0.00,-0.00,0.00,0.00
2026-06-26 19:41:44.931,994.34,994.32,-1.63,-1.69,0.00,1.08,0.22,9.26,-0.00,-0.00,0.00,0.00
2026-06-26 19:41:44.937,994.34,994.32,-1.63,-1.69,0.00,1.08,0.22,9.26,-0.00,-0.00,0.00,0.00
2026-06-26 19:41:44.939,994.34,994.32,-1.63,-1.69,0.00,1.07,0.26,9.26,-0.00,0.00,0.00,0.00
2026-06-26 19:41:44.940,994.34,994.32,-1.63,-1.69,0.00,1.07,0.26,9.26,-0.00,0.00,0.00,0.00
2026-06-26 19:41:44.942,994.34,994.32,-1.63,-1.69,0.00,1.07,0.26,9.26,-0.00,0.00,0.00,0.00
2026-06-26 19:41:44.948,994.34,994.32,-1.63,-1.69,0.00,1.07,0.26,9.26,-0.00,0.00,0.00,0.00
2026-06-26 19:41:44.950,994.34,994.32,-1.63,-1.69,0.00,1.08,0.22,9.27,-0.00,0.00,0.00,0.00
2026-06-26 19:41:44.953,994.34,994.32,-1.63,-1.69,0.00,1.08,0.22,9.27,-0.00,0.00,0.00,0.00
2026-06-26 19:41:44.958,994.34,994.32,-1.63,-1.69,0.00,1.08,0.22,9.27,0.00,0.00,-0.00,0.00
2026-06-26 19:41:45.097,994.34,994.33,-0.76,-1.16,0.00,1.05,0.24,9.27,0.00,0.00,0.00,0.00
2026-06-26 19:41:45.099,994.34,994.33,-0.76,-1.16,0.00,1.06,0.25,9.29,0.00,0.00,0.00,0.00
2026-06-26 19:41:45.101,994.34,994.33,-0.76,-1.16,0.00,1.06,0.25,9.29,0.00,0.00,0.00,0.00
2026-06-26 19:41:45.107,994.34,994.33,-0.76,-1.16,0.00,1.06,0.25,9.29,0.00,0.00,0.00,0.00
2026-06-26 19:41:45.109,994.34,994.33,-0.76,-1.16,0.00,1.06,0.26,9.26,0.00,0.00,0.00,0.00
2026-06-26 19:41:45.112,994.34,994.33,-0.76,-1.16,0.00,1.06,0.26,9.26,0.00,0.00,0.00,0.00
2026-06-26 19:41:45.113,994.34,994.33,-0.76,-1.16,0.00,1.06,0.26,9.26,0.00,0.00,0.00,0.00
2026-06-26 19:41:45.115,994.34,994.33,-0.76,-1.16,0.00,1.06,0.26,9.26,0.00,0.00,0.00,0.00
2026-06-26 19:41:45.118,994.34,994.33,-0.76,-1.16,0.00,1.06,0.26,9.26,-0.00,0.00,0.00,0.00
2026-06-26 19:41:45.120,994.34,994.33,-0.76,-1.16,0.00,1.05,0.22,9.28,-0.00,0.00,0.00,0.00
2026-06-26 19:41:45.121,994.34,994.33,-0.76,-1.16,0.00,1.05,0.22,9.28,-0.00,0.00,0.00,0.00
2026-06-26 19:41:45.127,994.34,994.33,-0.76,-1.16,0.00,1.05,0.22,9.28,-0.00,0.00,0.00,0.00
2026-06-26 19:41:45.129,994.34,994.33,-0.76,-1.16,0.00,1.07,0.23,9.27,-0.00,0.00,-0.00,0.00
2026-06-26 19:41:45.130,994.34,994.33,-0.76,-1.16,0.00,1.07,0.23,9.27,-0.00,0.00,-0.00,0.00
2026-06-26 19:41:45.278,994.35,994.33,-2.11,-1.92,0.00,1.07,0.25,9.26,0.00,0.00,0.00,0.00
2026-06-26 19:41:45.280,994.35,994.33,-2.11,-1.92,0.00,1.07,0.22,9.25,0.00,-0.01,-0.00,0.00
2026-06-26 19:41:45.282,994.35,994.33,-2.11,-1.92,0.00,1.07,0.22,9.25,0.00,-0.01,-0.00,0.00
2026-06-26 19:41:45.288,994.35,994.33,-2.11,-1.92,0.00,1.07,0.22,9.25,0.00,-0.01,-0.00,0.00
2026-06-26 19:41:45.290,994.35,994.33,-2.11,-1.92,0.00,1.07,0.24,9.26,0.00,0.00,-0.00,0.00
2026-06-26 19:41:45.293,994.35,994.33,-2.11,-1.92,0.00,1.07,0.24,9.26,0.00,0.00,-0.00,0.00
2026-06-26 19:41:45.298,994.35,994.33,-2.11,-1.92,0.00,1.07,0.24,9.26,0.00,0.00,0.00,0.00
2026-06-26 19:41:45.302,994.35,994.33,-2.11,-1.92,0.00,1.07,0.25,9.26,0.00,0.00,0.00,0.00
2026-06-26 19:41:45.308,994.35,994.33,-2.11,-1.92,0.00,1.07,0.25,9.26,0.00,0.00,0.00,0.00
2026-06-26 19:41:45.449,994.33,994.32,-0.69,-1.10,0.00,1.07,0.23,9.30,-0.00,0.00,-0.00,0.00
2026-06-26 19:41:45.459,994.33,994.32,-0.69,-1.10,0.00,1.07,0.23,9.30,0.00,-0.00,-0.00,0.00
2026-06-26 19:41:45.461,994.33,994.32,-0.69,-1.10,0.00,1.05,0.25,9.30,0.00,-0.00,-0.00,0.00
2026-06-26 19:41:45.464,994.33,994.32,-0.69,-1.10,0.00,1.05,0.25,9.30,0.00,-0.00,-0.00,0.00
2026-06-26 19:41:45.469,994.33,994.32,-0.69,-1.10,0.00,1.05,0.25,9.30,-0.00,-0.00,-0.00,0.00
2026-06-26 19:41:45.470,994.33,994.32,-0.69,-1.10,0.00,1.06,0.25,9.27,-0.00,-0.00,-0.00,0.00
2026-06-26 19:41:45.472,994.33,994.32,-0.69,-1.10,0.00,1.06,0.25,9.27,-0.00,-0.00,-0.00,0.00
2026-06-26 19:41:45.478,994.33,994.32,-0.69,-1.10,0.00,1.06,0.25,9.27,-0.00,-0.00,-0.00,0.00
2026-06-26 19:41:45.480,994.33,994.32,-0.69,-1.10,0.00,1.11,0.24,9.26,-0.00,-0.00,0.00,0.00
2026-06-26 19:41:45.485,994.33,994.32,-0.69,-1.10,0.00,1.11,0.24,9.26,-0.00,-0.00,0.00,0.00
2026-06-26 19:41:45.630,994.35,994.32,-2.27,-1.99,0.00,1.06,0.23,9.27,-0.00,0.00,0.00,0.00
2026-06-26 19:41:45.635,994.35,994.32,-2.27,-1.99,0.00,1.06,0.23,9.27,-0.00,0.00,0.00,0.00
2026-06-26 19:41:45.639,994.35,994.32,-2.27,-1.99,0.00,1.06,0.23,9.27,-0.00,0.00,-0.00,0.00
2026-06-26 19:41:45.641,994.35,994.32,-2.27,-1.99,0.00,1.07,0.23,9.28,-0.00,0.00,-0.00,0.00
2026-06-26 19:41:45.642,994.35,994.32,-2.27,-1.99,0.00,1.07,0.23,9.28,-0.00,0.00,-0.00,0.00
2026-06-26 19:41:45.644,994.35,994.32,-2.27,-1.99,0.00,1.07,0.23,9.28,-0.00,0.00,-0.00,0.00
2026-06-26 19:41:45.649,994.35,994.32,-2.27,-1.99,0.00,1.07,0.23,9.28,-0.00,-0.00,0.00,0.00
2026-06-26 19:41:45.651,994.35,994.32,-2.27,-1.99,0.00,1.08,0.24,9.27,-0.00,-0.00,0.00,0.00
2026-06-26 19:41:45.652,994.35,994.32,-2.27,-1.99,0.00,1.08,0.24,9.27,-0.00,-0.00,0.00,0.00
2026-06-26 19:41:45.658,994.35,994.32,-2.27,-1.99,0.00,1.08,0.24,9.27,-0.00,-0.00,0.00,0.00
2026-06-26 19:41:45.660,994.35,994.32,-2.27,-1.99,0.00,1.06,0.22,9.28,0.00,0.00,0.00,0.00
2026-06-26 19:41:45.664,994.35,994.32,-2.27,-1.99,0.00,1.06,0.22,9.28,0.00,0.00,0.00,0.00
2026-06-26 19:41:45.810,994.34,994.33,-1.25,-1.48,0.00,1.07,0.24,9.27,0.00,-0.00,-0.00,0.00
2026-06-26 19:41:45.812,994.34,994.33,-1.25,-1.48,0.00,1.07,0.24,9.27,0.00,-0.00,-0.00,0.00
2026-06-26 19:41:45.814,994.34,994.33,-1.25,-1.48,0.00,1.07,0.24,9.27,0.00,-0.00,-0.00,0.00
2026-06-26 19:41:45.816,994.34,994.33,-1.25,-1.48,0.00,1.07,0.24,9.27,0.00,-0.00,-0.00,0.00
2026-06-26 19:41:45.817,994.34,994.33,-1.25,-1.48,0.00,1.07,0.24,9.27,0.00,-0.00,-0.00,0.00
2026-06-26 19:41:45.820,994.34,994.33,-1.25,-1.48,0.00,1.08,0.23,9.30,-0.00,0.00,-0.00,0.00
2026-06-26 19:41:45.821,994.34,994.33,-1.25,-1.48,0.00,1.08,0.23,9.30,-0.00,0.00,-0.00,0.00
2026-06-26 19:41:45.823,994.34,994.33,-1.25,-1.48,0.00,1.08,0.23,9.30,-0.00,0.00,-0.00,0.00
2026-06-26 19:41:45.829,994.34,994.33,-1.25,-1.48,0.00,1.08,0.23,9.30,0.00,-0.00,0.00,0.00
2026-06-26 19:41:45.832,994.34,994.33,-1.25,-1.48,0.00,1.08,0.25,9.29,0.00,-0.00,0.00,0.00
2026-06-26 19:41:45.839,994.34,994.33,-1.25,-1.48,0.00,1.08,0.25,9.29,0.00,-0.00,0.00,0.00
2026-06-26 19:41:45.842,994.34,994.33,-1.25,-1.48,0.00,1.07,0.25,9.25,0.00,-0.00,-0.00,0.00
2026-06-26 19:41:45.844,994.34,994.33,-1.25,-1.48,0.00,1.07,0.25,9.25,0.00,-0.00,-0.00,0.00
2026-06-26 19:41:45.990,994.34,994.33,-0.64,-1.06,0.00,1.05,0.23,9.26,0.00,-0.00,-0.00,0.00
2026-06-26 19:41:45.992,994.34,994.33,-0.64,-1.06,0.00,1.07,0.22,9.26,0.00,-0.00,-0.00,0.00
2026-06-26 19:41:45.993,994.34,994.33,-0.64,-1.06,0.00,1.07,0.22,9.26,0.00,-0.00,-0.00,0.00
2026-06-26 19:41:45.000,994.34,994.33,-0.64,-1.06,0.00,1.07,0.22,9.26,0.00,-0.00,-0.00,0.00
2026-06-26 19:41:45.002,994.34,994.33,-0.64,-1.06,0.00,1.06,0.23,9.29,-0.00,0.00,0.00,0.00
2026-06-26 19:41:46.005,994.34,994.33,-0.64,-1.06,0.00,1.06,0.23,9.29,-0.00,0.00,0.00,0.00
2026-06-26 19:41:46.010,994.34,994.33,-0.64,-1.06,0.00,1.06,0.23,9.29,-0.00,0.00,-0.00,0.00
2026-06-26 19:41:46.012,994.34,994.33,-0.64,-1.06,0.00,1.08,0.23,9.28,-0.00,0.00,-0.00,0.00
2026-06-26 19:41:46.014,994.34,994.33,-0.64,-1.06,0.00,1.08,0.23,9.28,-0.00,0.00,-0.00,0.00
2026-06-26 19:41:46.016,994.34,994.33,-0.64,-1.06,0.00,1.08,0.23,9.28,-0.00,0.00,-0.00,0.00
2026-06-26 19:41:46.020,994.34,994.33,-0.64,-1.06,0.00,1.08,0.23,9.28,-0.00,-0.00,0.00,0.00
2026-06-26 19:41:46.166,994.35,994.34,-1.07,-1.37,0.00,1.06,0.23,9.27,0.00,-0.00,0.00,0.00
2026-06-26 19:41:46.171,994.35,994.34,-1.07,-1.37,0.00,1.06,0.23,9.27,0.00,0.00,0.00,0.00
2026-06-26 19:41:46.174,994.35,994.34,-1.07,-1.37,0.00,1.08,0.24,9.27,0.00,0.00,0.00,0.00
2026-06-26 19:41:46.180,994.35,994.34,-1.07,-1.37,0.00,1.08,0.24,9.27,0.00,0.00,0.00,0.00
2026-06-26 19:41:46.182,994.35,994.34,-1.07,-1.37,0.00,1.06,0.24,9.28,0.00,0.00,0.00,0.00
2026-06-26 19:41:46.184,994.35,994.34,-1.07,-1.37,0.00,1.06,0.24,9.28,0.00,0.00,0.00,0.00
2026-06-26 19:41:46.190,994.35,994.34,-1.07,-1.37,0.00,1.06,0.24,9.28,0.00,0.00,0.00,0.00
2026-06-26 19:41:46.192,994.35,994.34,-1.07,-1.37,0.00,1.03,0.22,9.27,0.00,0.00,0.00,0.00
2026-06-26 19:41:46.200,994.35,994.34,-1.07,-1.37,0.00,1.03,0.22,9.27,0.00,0.00,0.00,0.00
2026-06-26 19:41:46.349,994.34,994.32,-1.67,-1.71,0.00,1.07,0.22,9.29,0.00,-0.00,0.00,0.00
2026-06-26 19:41:46.352,994.34,994.32,-1.67,-1.71,0.00,1.05,0.23,9.25,-0.00,0.00,-0.00,0.00
2026-06-26 19:41:46.353,994.34,994.32,-1.67,-1.71,0.00,1.05,0.23,9.25,-0.00,0.00,-0.00,0.00
2026-06-26 19:41:46.357,994.34,994.32,-1.67,-1.71,0.00,1.05,0.23,9.25,-0.00,0.00,-0.00,0.00
2026-06-26 19:41:46.361,994.34,994.32,-1.67,-1.71,0.00,1.05,0.23,9.25,-0.00,-0.00,0.00,0.00
2026-06-26 19:41:46.362,994.34,994.32,-1.67,-1.71,0.00,1.07,0.23,9.27,-0.00,-0.00,0.00,0.00
2026-06-26 19:41:46.364,994.34,994.32,-1.67,-1.71,0.00,1.07,0.23,9.27,-0.00,-0.00,0.00,0.00
2026-06-26 19:41:46.366,994.34,994.32,-1.67,-1.71,0.00,1.07,0.23,9.27,-0.00,-0.00,0.00,0.00
2026-06-26 19:41:46.371,994.34,994.32,-1.67,-1.71,0.00,1.07,0.23,9.27,-0.00,-0.00,0.00,0.00
2026-06-26 19:41:46.373,994.34,994.32,-1.67,-1.71,0.00,1.07,0.23,9.27,-0.00,-0.00,0.00,0.00
2026-06-26 19:41:46.374,994.34,994.32,-1.67,-1.71,0.00,1.07,0.23,9.27,-0.00,-0.00,0.00,0.00
2026-06-26 19:41:46.380,994.34,994.32,-1.67,-1.71,0.00,1.07,0.23,9.27,-0.00,-0.00,0.00,0.00
2026-06-26 19:41:46.522,994.35,994.34,-1.52,-1.63,0.00,1.05,0.22,9.31,0.00,0.00,-0.00,0.00
2026-06-26 19:41:46.525,994.35,994.34,-1.52,-1.63,0.00,1.05,0.22,9.31,0.00,0.00,-0.00,0.00
2026-06-26 19:41:46.531,994.35,994.34,-1.52,-1.63,0.00,1.05,0.22,9.31,0.00,0.00,-0.00,0.00
2026-06-26 19:41:46.532,994.35,994.34,-1.52,-1.63,0.00,1.04,0.22,9.28,0.00,0.00,0.00,0.00
2026-06-26 19:41:46.534,994.35,994.34,-1.52,-1.63,0.00,1.04,0.22,9.28,0.00,0.00,0.00,0.00
2026-06-26 19:41:46.537,994.35,994.34,-1.52,-1.63,0.00,1.04,0.22,9.28,0.00,0.00,0.00,0.00
2026-06-26 19:41:46.542,994.35,994.34,-1.52,-1.63,0.00,1.04,0.22,9.28,0.00,-0.00,-0.00,0.00
2026-06-26 19:41:46.544,994.35,994.34,-1.52,-1.63,0.00,1.06,0.23,9.28,0.00,-0.00,-0.00,0.00
2026-06-26 19:41:46.545,994.35,994.34,-1.52,-1.63,0.00,1.06,0.23,9.28,0.00,-0.00,-0.00,0.00
2026-06-26 19:41:46.551,994.35,994.34,-1.52,-1.63,0.00,1.06,0.23,9.28,0.00,0.00,-0.00,0.00
2026-06-26 19:41:46.553,994.35,994.34,-1.52,-1.63,0.00,1.08,0.23,9.27,0.00,0.00,-0.00,0.00
2026-06-26 19:41:46.554,994.35,994.34,-1.52,-1.63,0.00,1.08,0.23,9.27,0.00,0.00,-0.00,0.00
2026-06-26 19:41:46.561,994.35,994.34,-1.52,-1.63,0.00,1.08,0.23,9.27,0.00,0.00,-0.00,0.00
