timestamp,pressure_mpl,pressure_bme,diff_pressure,v_wind_est,speed,accel_x,accel_y,accel_z,gyro_x,gyro_y,gyro_z
2026-06-23 20:05:29.632,990.00,991.52,151.65,16.33,0.00,0.66,0.37,9.28,0.00,-0.00,-0.00
2026-06-23 20:05:29.633,990.00,991.52,151.65,16.33,0.00,0.66,0.37,9.28,0.00,-0.00,-0.00
2026-06-23 20:05:29.638,990.00,991.52,151.65,16.33,0.00,0.66,0.37,9.28,0.00,-0.00,-0.00
2026-06-23 20:05:29.640,990.00,991.52,151.65,16.33,0.00,0.65,0.39,9.27,0.00,-0.00,-0.00
2026-06-23 20:05:29.641,990.00,991.52,151.65,16.33,0.00,0.65,0.39,9.27,0.00,-0.00,-0.00
2026-06-23 20:05:29.642,990.00,991.52,151.65,16.33,0.00,0.65,0.39,9.27,0.00,-0.00,-0.00
2026-06-23 20:05:29.644,990.00,991.52,151.65,16.33,0.00,0.65,0.39,9.27,0.00,-0.00,-0.00
2026-06-23 20:05:29.649,990.00,991.52,151.65,16.33,0.00,0.65,0.39,9.27,0.00,-0.00,-0.00
2026-06-23 20:05:29.650,990.00,991.52,151.65,16.33,0.00,0.66,0.40,9.33,0.00,-0.00,-0.00
2026-06-23 20:05:29.651,990.00,991.52,151.65,16.33,0.00,0.66,0.40,9.33,0.00,-0.00,-0.00
2026-06-23 20:05:29.652,990.00,991.52,151.65,16.33,0.00,0.66,0.40,9.33,0.00,-0.00,-0.00
2026-06-23 20:05:29.653,990.00,991.52,151.65,16.33,0.00,0.66,0.40,9.33,0.00,-0.00,-0.00
2026-06-23 20:05:29.659,990.00,991.52,151.65,16.33,0.00,0.66,0.40,9.33,0.00,-0.00,-0.00
2026-06-23 20:05:29.660,990.00,991.52,151.65,16.33,0.00,0.66,0.38,9.31,0.00,-0.00,0.00
2026-06-23 20:05:29.662,990.00,991.52,151.65,16.33,0.00,0.66,0.38,9.31,0.00,-0.00,0.00
2026-06-23 20:05:29.663,990.00,991.52,151.65,16.33,0.00,0.66,0.38,9.31,0.00,-0.00,0.00
2026-06-23 20:05:29.665,990.00,991.52,151.65,16.33,0.00,0.66,0.38,9.31,0.00,-0.00,0.00
2026-06-23 20:05:29.666,990.00,991.52,151.65,16.33,0.00,0.66,0.38,9.31,0.00,-0.00,0.00
2026-06-23 20:05:29.669,990.00,991.52,151.65,16.33,0.00,0.66,0.38,9.31,-0.00,0.00,0.00
2026-06-23 20:05:29.670,990.00,991.52,151.65,16.33,0.00,0.67,0.36,9.28,-0.00,0.00,0.00
2026-06-23 20:05:29.671,990.00,991.52,151.65,16.33,0.00,0.67,0.36,9.28,-0.00,0.00,0.00
2026-06-23 20:05:29.673,990.00,991.52,151.65,16.33,0.00,0.67,0.36,9.28,-0.00,0.00,0.00
2026-06-23 20:05:29.674,990.00,991.52,151.65,16.33,0.00,0.67,0.36,9.28,-0.00,0.00,0.00
2026-06-23 20:05:29.679,990.00,991.52,151.65,16.33,0.00,0.67,0.36,9.28,-0.00,0.00,0.00
2026-06-23 20:05:29.680,990.00,991.52,151.65,16.33,0.00,0.66,0.36,9.31,-0.00,0.00,-0.00
2026-06-23 20:05:29.682,990.00,991.52,151.65,16.33,0.00,0.66,0.36,9.31,-0.00,0.00,-0.00
2026-06-23 20:05:29.683,990.00,991.52,151.65,16.33,0.00,0.66,0.36,9.31,-0.00,0.00,-0.00
2026-06-23 20:05:29.684,990.00,991.52,151.65,16.33,0.00,0.66,0.36,9.31,-0.00,0.00,-0.00
2026-06-23 20:05:29.689,990.00,991.52,151.65,16.33,0.00,0.66,0.36,9.31,-0.00,0.00,-0.00
2026-06-23 20:05:29.690,990.00,991.52,151.65,16.33,0.00,0.65,0.40,9.29,-0.00,0.00,0.00
2026-06-23 20:05:29.691,990.00,991.52,151.65,16.33,0.00,0.65,0.40,9.29,-0.00,0.00,0.00
2026-06-23 20:05:29.693,990.00,991.52,151.65,16.33,0.00,0.65,0.40,9.29,-0.00,0.00,0.00
2026-06-23 20:05:29.694,990.00,991.52,151.65,16.33,0.00,0.65,0.40,9.29,-0.00,0.00,0.00
2026-06-23 20:05:29.698,990.00,991.52,151.65,16.33,0.00,0.65,0.40,9.29,-0.00,0.00,0.00
2026-06-23 20:05:29.700,990.00,991.52,151.65,16.33,0.00,0.66,0.38,9.28,0.00,-0.00,0.00
2026-06-23 20:05:29.701,990.00,991.52,151.65,16.33,0.00,0.66,0.38,9.28,0.00,-0.00,0.00
2026-06-23 20:05:29.702,990.00,991.52,151.65,16.33,0.00,0.66,0.38,9.28,0.00,-0.00,0.00
2026-06-23 20:05:29.703,990.00,991.52,151.65,16.33,0.00,0.66,0.38,9.28,0.00,-0.00,0.00
2026-06-23 20:05:29.704,990.00,991.52,151.65,16.33,0.00,0.66,0.38,9.28,0.00,-0.00,0.00
2026-06-23 20:05:29.709,990.00,991.52,151.65,16.33,0.00,0.66,0.38,9.28,0.00,-0.00,0.00
2026-06-23 20:05:29.711,990.00,991.52,151.65,16.33,0.00,0.67,0.37,9.31,0.00,-0.00,0.00
2026-06-23 20:05:29.712,990.00,991.52,151.65,16.33,0.00,0.67,0.37,9.31,0.00,-0.00,0.00
2026-06-23 20:05:29.714,990.00,991.52,151.65,16.33,0.00,0.67,0.37,9.31,0.00,-0.00,0.00
2026-06-23 20:05:29.715,990.00,991.52,151.65,16.33,0.00,0.67,0.37,9.31,0.00,-0.00,0.00
2026-06-23 20:05:29.716,990.00,991.52,151.65,16.33,0.00,0.67,0.37,9.31,0.00,-0.00,0.00
2026-06-23 20:05:29.719,990.00,991.52,151.65,16.33,0.00,0.67,0.37,9.31,-0.00,-0.00,-0.00
2026-06-23 20:05:29.720,990.00,991.52,151.65,16.33,0.00,0.67,0.37,9.32,-0.00,-0.00,-0.00
2026-06-23 20:05:29.721,990.00,991.52,151.65,16.33,0.00,0.67,0.37,9.32,-0.00,-0.00,-0.00
2026-06-23 20:05:29.722,990.00,991.52,151.65,16.33,0.00,0.67,0.37,9.32,-0.00,-0.00,-0.00
2026-06-23 20:05:29.724,990.00,991.52,151.65,16.33,0.00,0.67,0.37,9.32,-0.00,-0.00,-0.00
2026-06-23 20:05:29.728,990.00,991.52,151.65,16.33,0.00,0.67,0.37,9.32,-0.00,-0.00,-0.00
2026-06-23 20:05:29.730,990.00,991.52,151.65,16.33,0.00,0.66,0.39,9.31,0.00,-0.00,0.00
2026-06-23 20:05:29.731,990.00,991.52,151.65,16.33,0.00,0.66,0.39,9.31,0.00,-0.00,0.00
2026-06-23 20:05:29.920,990.00,991.52,151.67,16.33,0.00,0.65,0.37,9.31,-0.00,0.00,0.00
2026-06-23 20:05:29.921,990.00,991.52,151.67,16.33,0.00,0.65,0.37,9.31,-0.00,0.00,0.00
2026-06-23 20:05:29.923,990.00,991.52,151.67,16.33,0.00,0.65,0.37,9.31,-0.00,0.00,0.00
2026-06-23 20:05:29.924,990.00,991.52,151.67,16.33,0.00,0.65,0.37,9.31,-0.00,0.00,0.00
2026-06-23 20:05:29.928,990.00,991.52,151.67,16.33,0.00,0.65,0.37,9.31,-0.00,0.00,0.00
2026-06-23 20:05:29.930,990.00,991.52,151.67,16.33,0.00,0.66,0.37,9.30,-0.00,0.00,0.00
2026-06-23 20:05:29.932,990.00,991.52,151.67,16.33,0.00,0.66,0.37,9.30,-0.00,0.00,0.00
2026-06-23 20:05:29.933,990.00,991.52,151.67,16.35,0.00,0.66,0.37,9.30,-0.00,0.00,0.00
2026-06-23 20:05:29.934,990.00,991.52,151.67,16.35,0.00,0.66,0.37,9.30,-0.00,0.00,0.00
2026-06-23 20:05:29.938,990.00,991.52,151.67,16.35,0.00,0.66,0.37,9.30,-0.00,0.00,0.00
2026-06-23 20:05:29.940,990.00,991.52,151.67,16.35,0.00,0.67,0.37,9.29,-0.00,-0.00,0.00
2026-06-23 20:05:29.941,990.00,991.52,151.67,16.35,0.00,0.67,0.37,9.29,-0.00,-0.00,0.00
2026-06-23 20:05:29.943,990.00,991.52,151.67,16.35,0.00,0.67,0.37,9.29,-0.00,-0.00,0.00
2026-06-23 20:05:29.944,990.00,991.52,151.67,16.35,0.00,0.67,0.37,9.29,-0.00,-0.00,0.00
2026-06-23 20:05:29.949,990.00,991.52,151.67,16.35,0.00,0.67,0.37,9.29,-0.00,-0.00,0.00
2026-06-23 20:05:29.951,990.00,991.52,151.67,16.35,0.00,0.67,0.37,9.28,-0.00,-0.00,-0.00
2026-06-23 20:05:29.952,990.00,991.52,151.67,16.35,0.00,0.67,0.37,9.28,-0.00,-0.00,-0.00
2026-06-23 20:05:29.953,990.00,991.52,151.67,16.35,0.00,0.67,0.37,9.28,-0.00,-0.00,-0.00
2026-06-23 20:05:29.954,990.00,991.52,151.67,16.35,0.00,0.67,0.37,9.28,-0.00,-0.00,-0.00
2026-06-23 20:05:29.959,990.00,991.52,151.67,16.35,0.00,0.67,0.37,9.28,-0.00,-0.00,-0.00
2026-06-23 20:05:29.961,990.00,991.52,151.67,16.35,0.00,0.66,0.39,9.29,-0.00,0.00,0.00
2026-06-23 20:05:29.962,990.00,991.52,151.67,16.35,0.00,0.66,0.39,9.29,-0.00,0.00,0.00
2026-06-23 20:05:29.964,990.00,991.52,151.67,16.35,0.00,0.66,0.39,9.29,-0.00,0.00,0.00
2026-06-23 20:05:29.965,990.00,991.52,151.67,16.35,0.00,0.66,0.39,9.29,-0.00,0.00,0.00
2026-06-23 20:05:29.966,990.00,991.52,151.67,16.35,0.00,0.66,0.39,9.29,-0.00,0.00,0.00
2026-06-23 20:05:29.967,990.00,991.52,151.67,16.35,0.00,0.66,0.39,9.29,-0.00,0.00,0.00
2026-06-23 20:05:29.970,990.00,991.52,151.67,16.35,0.00,0.66,0.39,9.29,0.00,0.00,-0.00
2026-06-23 20:05:29.971,990.00,991.52,151.67,16.35,0.00,0.66,0.40,9.27,0.00,0.00,-0.00
2026-06-23 20:05:29.972,990.00,991.52,151.67,16.35,0.00,0.66,0.40,9.27,0.00,0.00,-0.00
2026-06-23 20:05:29.973,990.00,991.52,151.67,16.35,0.00,0.66,0.40,9.27,0.00,0.00,-0.00
2026-06-23 20:05:29.974,990.00,991.52,151.67,16.35,0.00,0.66,0.40,9.27,0.00,0.00,-0.00
2026-06-23 20:05:29.979,990.00,991.52,151.67,16.35,0.00,0.66,0.40,9.27,0.00,0.00,-0.00
2026-06-23 20:05:29.981,990.00,991.52,151.67,16.35,0.00,0.65,0.38,9.31,-0.00,0.00,0.00
2026-06-23 20:05:29.982,990.00,991.52,151.67,16.35,0.00,0.65,0.38,9.31,-0.00,0.00,0.00
2026-06-23 20:05:29.984,990.00,991.52,151.67,16.35,0.00,0.65,0.38,9.31,-0.00,0.00,0.00
2026-06-23 20:05:29.989,990.00,991.52,151.67,16.35,0.00,0.65,0.38,9.31,-0.00,0.00,0.00
2026-06-23 20:05:29.990,990.00,991.52,151.67,16.35,0.00,0.66,0.38,9.27,-0.00,0.00,0.00
2026-06-23 20:05:29.992,990.00,991.52,151.67,16.35,0.00,0.66,0.38,9.27,-0.00,0.00,0.00
2026-06-23 20:05:29.993,990.00,991.52,151.67,16.35,0.00,0.66,0.38,9.27,-0.00,0.00,0.00
2026-06-23 20:05:29.995,990.00,991.52,151.67,16.35,0.00,0.66,0.38,9.27,-0.00,0.00,0.00
2026-06-23 20:05:29.000,990.00,991.52,151.67,16.35,0.00,0.66,0.38,9.27,-0.00,0.00,0.00
2026-06-23 20:05:29.001,990.00,991.52,151.67,16.35,0.00,0.66,0.39,9.30,-0.00,0.00,0.00
2026-06-23 20:05:29.002,990.00,991.52,151.67,16.35,0.00,0.66,0.39,9.30,-0.00,0.00,0.00
2026-06-23 20:05:29.003,990.00,991.52,151.67,16.35,0.00,0.66,0.39,9.30,-0.00,0.00,0.00
2026-06-23 20:05:30.004,990.00,991.52,151.67,16.35,0.00,0.66,0.39,9.30,-0.00,0.00,0.00
2026-06-23 20:05:30.010,990.00,991.52,151.67,16.35,0.00,0.66,0.39,9.30,-0.00,0.00,0.00
2026-06-23 20:05:30.011,990.00,991.52,151.67,16.35,0.00,0.66,0.37,9.32,-0.00,0.00,0.00
2026-06-23 20:05:30.013,990.00,991.52,151.67,16.35,0.00,0.66,0.37,9.32,-0.00,0.00,0.00
2026-06-23 20:05:30.014,990.00,991.52,151.67,16.35,0.00,0.66,0.37,9.32,-0.00,0.00,0.00
2026-06-23 20:05:30.015,990.00,991.52,151.67,16.35,0.00,0.66,0.37,9.32,-0.00,0.00,0.00
2026-06-23 20:05:30.016,990.00,991.52,151.67,16.35,0.00,0.66,0.37,9.32,-0.00,0.00,0.00
2026-06-23 20:05:30.018,990.00,991.52,151.67,16.35,0.00,0.66,0.37,9.32,-0.00,0.00,0.00
2026-06-23 20:05:30.020,990.00,991.52,151.67,16.35,0.00,0.66,0.37,9.32,-0.00,0.00,0.00
2026-06-23 20:05:30.211,990.00,991.54,153.77,16.46,0.00,0.66,0.40,9.32,0.00,0.01,0.00
2026-06-23 20:05:30.213,990.00,991.54,153.77,16.46,0.00,0.66,0.37,9.28,0.00,0.01,0.00
2026-06-23 20:05:30.214,990.00,991.54,153.77,16.46,0.00,0.66,0.37,9.28,0.00,0.01,0.00
2026-06-23 20:05:30.215,990.00,991.54,153.77,16.46,0.00,0.66,0.37,9.28,0.00,0.01,0.00
2026-06-23 20:05:30.216,990.00,991.54,153.77,16.48,0.00,0.66,0.37,9.28,0.00,0.01,0.00
2026-06-23 20:05:30.218,990.00,991.54,153.77,16.48,0.00,0.66,0.37,9.28,0.00,0.01,0.00
2026-06-23 20:05:30.219,990.00,991.54,153.77,16.48,0.00,0.66,0.37,9.28,0.00,0.01,0.00
2026-06-23 20:05:30.221,990.00,991.54,153.77,16.48,0.00,0.66,0.37,9.28,0.00,0.00,-0.00
2026-06-23 20:05:30.222,990.00,991.54,153.77,16.48,0.00,0.66,0.38,9.31,0.00,0.00,-0.00
2026-06-23 20:05:30.223,990.00,991.54,153.77,16.48,0.00,0.66,0.38,9.31,0.00,0.00,-0.00
2026-06-23 20:05:30.224,990.00,991.54,153.77,16.48,0.00,0.66,0.38,9.31,0.00,0.00,-0.00
2026-06-23 20:05:30.228,990.00,991.54,153.77,16.48,0.00,0.66,0.38,9.31,0.00,0.00,-0.00
2026-06-23 20:05:30.231,990.00,991.54,153.77,16.48,0.00,0.66,0.37,9.32,0.00,-0.00,0.00
2026-06-23 20:05:30.232,990.00,991.54,153.77,16.48,0.00,0.66,0.37,9.32,0.00,-0.00,0.00
2026-06-23 20:05:30.233,990.00,991.54,153.77,16.48,0.00,0.66,0.37,9.32,0.00,-0.00,0.00
2026-06-23 20:05:30.234,990.00,991.54,153.77,16.48,0.00,0.66,0.37,9.32,0.00,-0.00,0.00
2026-06-23 20:05:30.237,990.00,991.54,153.77,16.48,0.00,0.66,0.37,9.32,0.00,-0.00,0.00
2026-06-23 20:05:30.240,990.00,991.54,153.77,16.48,0.00,0.66,0.37,9.32,-0.00,-0.00,0.00
2026-06-23 20:05:30.242,990.00,991.54,153.77,16.48,0.00,0.67,0.40,9.27,-0.00,-0.00,0.00
2026-06-23 20:05:30.243,990.00,991.54,153.77,16.48,0.00,0.67,0.40,9.27,-0.00,-0.00,0.00
2026-06-23 20:05:30.245,990.00,991.54,153.77,16.48,0.00,0.67,0.40,9.27,-0.00,-0.00,0.00
2026-06-23 20:05:30.250,990.00,991.54,153.77,16.48,0.00,0.67,0.40,9.27,-0.00,-0.00,0.00
2026-06-23 20:05:30.251,990.00,991.54,153.77,16.48,0.00,0.67,0.39,9.27,0.00,-0.00,0.00
2026-06-23 20:05:30.252,990.00,991.54,153.77,16.48,0.00,0.67,0.39,9.27,0.00,-0.00,0.00
2026-06-23 20:05:30.254,990.00,991.54,153.77,16.48,0.00,0.67,0.39,9.27,0.00,-0.00,0.00
2026-06-23 20:05:30.255,990.00,991.54,153.77,16.48,0.00,0.67,0.39,9.27,0.00,-0.00,0.00
2026-06-23 20:05:30.258,990.00,991.54,153.77,16.48,0.00,0.67,0.39,9.27,0.00,-0.00,0.00
2026-06-23 20:05:30.261,990.00,991.54,153.77,16.48,0.00,0.67,0.39,9.27,0.00,0.00,-0.00
2026-06-23 20:05:30.263,990.00,991.54,153.77,16.48,0.00,0.66,0.38,9.27,0.00,0.00,-0.00
2026-06-23 20:05:30.264,990.00,991.54,153.77,16.48,0.00,0.66,0.38,9.27,0.00,0.00,-0.00
2026-06-23 20:05:30.265,990.00,991.54,153.77,16.48,0.00,0.66,0.38,9.27,0.00,0.00,-0.00
2026-06-23 20:05:30.266,990.00,991.54,153.77,16.48,0.00,0.66,0.38,9.27,0.00,0.00,-0.00
2026-06-23 20:05:30.267,990.00,991.54,153.77,16.48,0.00,0.66,0.38,9.27,0.00,0.00,-0.00
2026-06-23 20:05:30.269,990.00,991.54,153.77,16.48,0.00,0.66,0.38,9.27,0.00,0.00,-0.00
2026-06-23 20:05:30.271,990.00,991.54,153.77,16.48,0.00,0.65,0.37,9.31,0.00,0.00,0.00
2026-06-23 20:05:30.272,990.00,991.54,153.77,16.48,0.00,0.65,0.37,9.31,0.00,0.00,0.00
2026-06-23 20:05:30.273,990.00,991.54,153.77,16.48,0.00,0.65,0.37,9.31,0.00,0.00,0.00
2026-06-23 20:05:30.274,990.00,991.54,153.77,16.48,0.00,0.65,0.37,9.31,0.00,0.00,0.00
2026-06-23 20:05:30.278,990.00,991.54,153.77,16.48,0.00,0.65,0.37,9.31,0.00,0.00,0.00
2026-06-23 20:05:30.281,990.00,991.54,153.77,16.48,0.00,0.65,0.37,9.31,0.00,-0.00,-0.00
2026-06-23 20:05:30.282,990.00,991.54,153.77,16.48,0.00,0.67,0.40,9.27,0.00,-0.00,-0.00
2026-06-23 20:05:30.283,990.00,991.54,153.77,16.48,0.00,0.67,0.40,9.27,0.00,-0.00,-0.00
2026-06-23 20:05:30.284,990.00,991.54,153.77,16.48,0.00,0.67,0.40,9.27,0.00,-0.00,-0.00
2026-06-23 20:05:30.287,990.00,991.54,153.77,16.48,0.00,0.67,0.40,9.27,0.00,-0.00,-0.00
2026-06-23 20:05:30.290,990.00,991.54,153.77,16.48,0.00,0.67,0.40,9.27,-0.00,-0.00,0.00
2026-06-23 20:05:30.292,990.00,991.54,153.77,16.48,0.00,0.65,0.39,9.25,-0.00,-0.00,0.00
2026-06-23 20:05:30.293,990.00,991.54,153.77,16.48,0.00,0.65,0.39,9.25,-0.00,-0.00,0.00
2026-06-23 20:05:30.295,990.00,991.54,153.77,16.48,0.00,0.65,0.39,9.25,-0.00,-0.00,0.00
2026-06-23 20:05:30.298,990.00,991.54,153.77,16.48,0.00,0.65,0.39,9.25,-0.00,-0.00,0.00
2026-06-23 20:05:30.301,990.00,991.54,153.77,16.48,0.00,0.65,0.39,9.25,0.00,-0.01,0.00
2026-06-23 20:05:30.302,990.00,991.54,153.77,16.48,0.00,0.65,0.40,9.29,0.00,-0.01,0.00
2026-06-23 20:05:30.303,990.00,991.54,153.77,16.48,0.00,0.65,0.40,9.29,0.00,-0.01,0.00
2026-06-23 20:05:30.304,990.00,991.54,153.77,16.48,0.00,0.65,0.40,9.29,0.00,-0.01,0.00
2026-06-23 20:05:30.305,990.00,991.54,153.77,16.48,0.00,0.65,0.40,9.29,0.00,-0.01,0.00
2026-06-23 20:05:30.310,990.00,991.54,153.77,16.48,0.00,0.65,0.40,9.29,0.00,-0.01,0.00
2026-06-23 20:05:30.501,990.00,991.56,155.73,16.59,0.00,0.66,0.38,9.27,0.00,-0.00,-0.00
2026-06-23 20:05:30.502,990.00,991.56,155.73,16.59,0.00,0.66,0.40,9.30,0.00,-0.00,-0.00
2026-06-23 20:05:30.504,990.00,991.56,155.73,16.59,0.00,0.66,0.40,9.30,0.00,-0.00,-0.00
2026-06-23 20:05:30.505,990.00,991.56,155.73,16.59,0.00,0.66,0.40,9.30,0.00,-0.00,-0.00
2026-06-23 20:05:30.508,990.00,991.56,155.73,16.59,0.00,0.66,0.40,9.30,0.00,-0.00,-0.00
2026-06-23 20:05:30.511,990.00,991.56,155.73,16.59,0.00,0.66,0.40,9.30,0.00,-0.00,0.00
2026-06-23 20:05:30.513,990.00,991.56,155.73,16.59,0.00,0.65,0.38,9.32,0.00,-0.00,0.00
2026-06-23 20:05:30.514,990.00,991.56,155.73,16.59,0.00,0.65,0.38,9.32,0.00,-0.00,0.00
2026-06-23 20:05:30.516,990.00,991.56,155.73,16.59,0.00,0.65,0.38,9.32,0.00,-0.00,0.00
2026-06-23 20:05:30.517,990.00,991.56,155.73,16.60,0.00,0.65,0.38,9.32,0.00,-0.00,0.00
2026-06-23 20:05:30.518,990.00,991.56,155.73,16.60,0.00,0.65,0.38,9.32,0.00,-0.00,0.00
2026-06-23 20:05:30.520,990.00,991.56,155.73,16.60,0.00,0.65,0.38,9.32,0.00,-0.00,0.00
2026-06-23 20:05:30.521,990.00,991.56,155.73,16.60,0.00,0.66,0.38,9.27,0.00,-0.00,0.00
2026-06-23 20:05:30.523,990.00,991.56,155.73,16.60,0.00,0.66,0.38,9.27,0.00,-0.00,0.00
2026-06-23 20:05:30.524,990.00,991.56,155.73,16.60,0.00,0.66,0.38,9.27,0.00,-0.00,0.00
2026-06-23 20:05:30.525,990.00,991.56,155.73,16.60,0.00,0.66,0.38,9.27,0.00,-0.00,0.00
2026-06-23 20:05:30.531,990.00,991.56,155.73,16.60,0.00,0.66,0.38,9.27,0.00,-0.00,0.00
2026-06-23 20:05:30.532,990.00,991.56,155.73,16.60,0.00,0.66,0.38,9.30,0.00,0.00,-0.00
2026-06-23 20:05:30.533,990.00,991.56,155.73,16.60,0.00,0.66,0.38,9.30,0.00,0.00,-0.00
2026-06-23 20:05:30.534,990.00,991.56,155.73,16.60,0.00,0.66,0.38,9.30,0.00,0.00,-0.00
2026-06-23 20:05:30.536,990.00,991.56,155.73,16.60,0.00,0.66,0.38,9.30,0.00,0.00,-0.00
2026-06-23 20:05:30.541,990.00,991.56,155.73,16.60,0.00,0.66,0.38,9.30,0.00,0.00,-0.00
2026-06-23 20:05:30.543,990.00,991.56,155.73,16.60,0.00,0.67,0.39,9.27,0.00,0.00,0.00
2026-06-23 20:05:30.545,990.00,991.56,155.73,16.60,0.00,0.67,0.39,9.27,0.00,0.00,0.00
2026-06-23 20:05:30.550,990.00,991.56,155.73,16.60,0.00,0.67,0.39,9.27,0.00,0.00,0.00
2026-06-23 20:05:30.552,990.00,991.56,155.73,16.60,0.00,0.65,0.39,9.27,0.00,0.00,0.00
2026-06-23 20:05:30.553,990.00,991.56,155.73,16.60,0.00,0.65,0.39,9.27,0.00,0.00,0.00
2026-06-23 20:05:30.554,990.00,991.56,155.73,16.60,0.00,0.65,0.39,9.27,0.00,0.00,0.00
2026-06-23 20:05:30.558,990.00,991.56,155.73,16.60,0.00,0.65,0.39,9.27,0.00,0.00,0.00
2026-06-23 20:05:30.562,990.00,991.56,155.73,16.60,0.00,0.65,0.39,9.27,-0.00,-0.00,0.00
2026-06-23 20:05:30.563,990.00,991.56,155.73,16.60,0.00,0.66,0.38,9.31,-0.00,-0.00,0.00
2026-06-23 20:05:30.565,990.00,991.56,155.73,16.60,0.00,0.66,0.38,9.31,-0.00,-0.00,0.00
2026-06-23 20:05:30.566,990.00,991.56,155.73,16.60,0.00,0.66,0.38,9.31,-0.00,-0.00,0.00
2026-06-23 20:05:30.567,990.00,991.56,155.73,16.60,0.00,0.66,0.38,9.31,-0.00,-0.00,0.00
2026-06-23 20:05:30.568,990.00,991.56,155.73,16.60,0.00,0.66,0.38,9.31,-0.00,-0.00,0.00
2026-06-23 20:05:30.571,990.00,991.56,155.73,16.60,0.00,0.66,0.38,9.31,-0.00,-0.00,0.00
2026-06-23 20:05:30.572,990.00,991.56,155.73,16.60,0.00,0.67,0.39,9.30,-0.00,-0.00,0.00
2026-06-23 20:05:30.574,990.00,991.56,155.73,16.60,0.00,0.67,0.39,9.30,-0.00,-0.00,0.00
2026-06-23 20:05:30.578,990.00,991.56,155.73,16.60,0.00,0.67,0.39,9.30,-0.00,-0.00,0.00
2026-06-23 20:05:30.582,990.00,991.56,155.73,16.60,0.00,0.67,0.39,9.30,0.00,-0.00,0.00
2026-06-23 20:05:30.583,990.00,991.56,155.73,16.60,0.00,0.66,0.38,9.32,0.00,-0.00,0.00
2026-06-23 20:05:30.585,990.00,991.56,155.73,16.60,0.00,0.66,0.38,9.32,0.00,-0.00,0.00
2026-06-23 20:05:30.591,990.00,991.56,155.73,16.60,0.00,0.66,0.38,9.32,0.00,-0.00,0.00
2026-06-23 20:05:30.593,990.00,991.56,155.73,16.60,0.00,0.66,0.39,9.27,-0.00,0.00,-0.00
2026-06-23 20:05:30.594,990.00,991.56,155.73,16.60,0.00,0.66,0.39,9.27,-0.00,0.00,-0.00
2026-06-23 20:05:30.596,990.00,991.56,155.73,16.60,0.00,0.66,0.39,9.27,-0.00,0.00,-0.00
2026-06-23 20:05:30.601,990.00,991.56,155.73,16.60,0.00,0.66,0.39,9.27,-0.00,0.00,-0.00
2026-06-23 20:05:30.792,990.00,991.57,156.97,16.66,0.00,0.66,0.39,9.30,0.00,0.00,0.00
2026-06-23 20:05:30.794,990.00,991.57,156.97,16.66,0.00,0.65,0.38,9.30,0.00,0.00,0.00
2026-06-23 20:05:30.795,990.00,991.57,156.97,16.67,0.00,0.65,0.38,9.30,0.00,0.00,0.00
2026-06-23 20:05:30.797,990.00,991.57,156.97,16.67,0.00,0.65,0.38,9.30,0.00,0.00,0.00
2026-06-23 20:05:30.801,990.00,991.57,156.97,16.67,0.00,0.65,0.38,9.30,0.00,0.00,0.00
2026-06-23 20:05:30.803,990.00,991.57,156.97,16.67,0.00,0.66,0.39,9.31,-0.00,0.00,-0.00
2026-06-23 20:05:30.804,990.00,991.57,156.97,16.67,0.00,0.66,0.39,9.31,-0.00,0.00,-0.00
2026-06-23 20:05:30.805,990.00,991.57,156.97,16.67,0.00,0.66,0.39,9.31,-0.00,0.00,-0.00
2026-06-23 20:05:30.806,990.00,991.57,156.97,16.67,0.00,0.66,0.39,9.31,-0.00,0.00,-0.00
2026-06-23 20:05:30.812,990.00,991.57,156.97,16.67,0.00,0.66,0.39,9.31,-0.00,0.00,-0.00
2026-06-23 20:05:30.813,990.00,991.57,156.97,16.67,0.00,0.67,0.39,9.30,0.00,-0.00,0.00
2026-06-23 20:05:30.815,990.00,991.57,156.97,16.67,0.00,0.67,0.39,9.30,0.00,-0.00,0.00
2026-06-23 20:05:30.816,990.00,991.57,156.97,16.67,0.00,0.67,0.39,9.30,0.00,-0.00,0.00
2026-06-23 20:05:30.817,990.00,991.57,156.97,16.67,0.00,0.67,0.39,9.30,0.00,-0.00,0.00
2026-06-23 20:05:30.818,990.00,991.57,156.97,16.67,0.00,0.67,0.39,9.30,0.00,-0.00,0.00
2026-06-23 20:05:30.819,990.00,991.57,156.97,16.67,0.00,0.67,0.39,9.30,0.00,-0.00,0.00
2026-06-23 20:05:30.822,990.00,991.57,156.97,16.67,0.00,0.67,0.39,9.30,0.00,-0.00,0.00
2026-06-23 20:05:30.823,990.00,991.57,156.97,16.67,0.00,0.66,0.38,9.31,0.00,-0.00,0.00
2026-06-23 20:05:30.824,990.00,991.57,156.97,16.67,0.00,0.66,0.38,9.31,0.00,-0.00,0.00
2026-06-23 20:05:30.826,990.00,991.57,156.97,16.67,0.00,0.66,0.38,9.31,0.00,-0.00,0.00
2026-06-23 20:05:30.831,990.00,991.57,156.97,16.67,0.00,0.66,0.38,9.31,0.00,-0.00,0.00
2026-06-23 20:05:30.833,990.00,991.57,156.97,16.67,0.00,0.66,0.39,9.31,-0.00,0.00,0.00
2026-06-23 20:05:30.834,990.00,991.57,156.97,16.67,0.00,0.66,0.39,9.31,-0.00,0.00,0.00
2026-06-23 20:05:30.835,990.00,991.57,156.97,16.67,0.00,0.66,0.39,9.31,-0.00,0.00,0.00
2026-06-23 20:05:30.838,990.00,991.57,156.97,16.67,0.00,0.66,0.39,9.31,-0.00,0.00,0.00
2026-06-23 20:05:30.842,990.00,991.57,156.97,16.67,0.00,0.66,0.39,9.31,-0.00,0.00,0.00
2026-06-23 20:05:30.843,990.00,991.57,156.97,16.67,0.00,0.66,0.40,9.27,-0.00,0.00,0.00
2026-06-23 20:05:30.845,990.00,991.57,156.97,16.67,0.00,0.66,0.40,9.27,-0.00,0.00,0.00
2026-06-23 20:05:30.847,990.00,991.57,156.97,16.67,0.00,0.66,0.40,9.27,-0.00,0.00,0.00
2026-06-23 20:05:30.852,990.00,991.57,156.97,16.67,0.00,0.66,0.40,9.27,-0.00,0.00,0.00
2026-06-23 20:05:30.853,990.00,991.57,156.97,16.67,0.00,0.65,0.40,9.28,0.00,0.00,-0.00
2026-06-23 20:05:30.854,990.00,991.57,156.97,16.67,0.00,0.65,0.40,9.28,0.00,0.00,-0.00
2026-06-23 20:05:30.855,990.00,991.57,156.97,16.67,0.00,0.65,0.40,9.28,0.00,0.00,-0.00
2026-06-23 20:05:30.856,990.00,991.57,156.97,16.67,0.00,0.65,0.40,9.28,0.00,0.00,-0.00
2026-06-23 20:05:30.862,990.00,991.57,156.97,16.67,0.00,0.65,0.40,9.28,0.00,0.00,-0.00
2026-06-23 20:05:30.863,990.00,991.57,156.97,16.67,0.00,0.67,0.39,9.29,-0.00,0.00,-0.00
2026-06-23 20:05:30.865,990.00,991.57,156.97,16.67,0.00,0.67,0.39,9.29,-0.00,0.00,-0.00
2026-06-23 20:05:30.866,990.00,991.57,156.97,16.67,0.00,0.67,0.39,9.29,-0.00,0.00,-0.00
2026-06-23 20:05:30.867,990.00,991.57,156.97,16.67,0.00,0.67,0.39,9.29,-0.00,0.00,-0.00
2026-06-23 20:05:30.868,990.00,991.57,156.97,16.67,0.00,0.67,0.39,9.29,-0.00,0.00,-0.00
2026-06-23 20:05:30.869,990.00,991.57,156.97,16.67,0.00,0.67,0.39,9.29,-0.00,0.00,-0.00
2026-06-23 20:05:30.872,990.00,991.57,156.97,16.67,0.00,0.67,0.39,9.29,0.00,0.00,-0.00
2026-06-23 20:05:30.873,990.00,991.57,156.97,16.67,0.00,0.66,0.37,9.29,0.00,0.00,-0.00
2026-06-23 20:05:30.874,990.00,991.57,156.97,16.67,0.00,0.66,0.37,9.29,0.00,0.00,-0.00
2026-06-23 20:05:30.876,990.00,991.57,156.97,16.67,0.00,0.66,0.37,9.29,0.00,0.00,-0.00
2026-06-23 20:05:30.881,990.00,991.57,156.97,16.67,0.00,0.66,0.37,9.29,0.00,0.00,-0.00
2026-06-23 20:05:30.883,990.00,991.57,156.97,16.67,0.00,0.66,0.38,9.30,0.00,-0.00,0.00
2026-06-23 20:05:30.884,990.00,991.57,156.97,16.67,0.00,0.66,0.38,9.30,0.00,-0.00,0.00
2026-06-23 20:05:30.885,990.00,991.57,156.97,16.67,0.00,0.66,0.38,9.30,0.00,-0.00,0.00
2026-06-23 20:05:30.886,990.00,991.57,156.97,16.67,0.00,0.66,0.38,9.30,0.00,-0.00,0.00
2026-06-23 20:05:30.892,990.00,991.57,156.97,16.67,0.00,0.66,0.38,9.30,0.00,-0.00,0.00
2026-06-23 20:05:31.083,990.00,991.55,154.56,16.54,0.00,0.66,0.39,9.28,-0.00,0.00,0.00
2026-06-23 20:05:31.084,990.00,991.55,154.56,16.54,0.00,0.66,0.41,9.31,-0.00,0.00,0.00
2026-06-23 20:05:31.085,990.00,991.55,154.56,16.54,0.00,0.66,0.41,9.31,-0.00,0.00,0.00
2026-06-23 20:05:31.086,990.00,991.55,154.56,16.54,0.00,0.66,0.41,9.31,-0.00,0.00,0.00
2026-06-23 20:05:31.090,990.00,991.55,154.56,16.54,0.00,0.66,0.41,9.31,-0.00,0.00,0.00
2026-06-23 20:05:31.093,990.00,991.55,154.56,16.54,0.00,0.66,0.41,9.31,0.00,0.00,0.00
2026-06-23 20:05:31.094,990.00,991.55,154.56,16.54,0.00,0.65,0.35,9.27,0.00,0.00,0.00
2026-06-23 20:05:31.096,990.00,991.55,154.56,16.54,0.00,0.65,0.35,9.27,0.00,0.00,0.00
2026-06-23 20:05:31.097,990.00,991.55,154.56,16.54,0.00,0.65,0.35,9.27,0.00,0.00,0.00
2026-06-23 20:05:31.102,990.00,991.55,154.56,16.54,0.00,0.65,0.35,9.27,0.00,0.00,0.00
2026-06-23 20:05:31.103,990.00,991.55,154.56,16.54,0.00,0.66,0.39,9.31,-0.00,0.00,0.00
2026-06-23 20:05:31.105,990.00,991.55,154.56,16.54,0.00,0.66,0.39,9.31,-0.00,0.00,0.00
2026-06-23 20:05:31.106,990.00,991.55,154.56,16.54,0.00,0.66,0.39,9.31,-0.00,0.00,0.00
2026-06-23 20:05:31.107,990.00,991.55,154.56,16.54,0.00,0.66,0.39,9.31,-0.00,0.00,0.00
2026-06-23 20:05:31.112,990.00,991.55,154.56,16.54,0.00,0.66,0.39,9.31,-0.00,0.00,0.00
2026-06-23 20:05:31.114,990.00,991.55,154.56,16.54,0.00,0.66,0.38,9.34,0.00,0.00,0.00
2026-06-23 20:05:31.115,990.00,991.55,154.56,16.54,0.00,0.66,0.38,9.34,0.00,0.00,0.00
2026-06-23 20:05:31.116,990.00,991.55,154.56,16.54,0.00,0.66,0.38,9.34,0.00,0.00,0.00
2026-06-23 20:05:31.117,990.00,991.55,154.56,16.54,0.00,0.66,0.38,9.34,0.00,0.00,0.00
2026-06-23 20:05:31.119,990.00,991.55,154.56,16.54,0.00,0.66,0.38,9.34,0.00,0.00,0.00
2026-06-23 20:05:31.120,990.00,991.55,154.56,16.54,0.00,0.66,0.38,9.34,0.00,0.00,0.00
2026-06-23 20:05:31.122,990.00,991.55,154.56,16.54,0.00,0.66,0.38,9.34,0.00,-0.00,-0.00
2026-06-23 20:05:31.124,990.00,991.55,154.56,16.54,0.00,0.66,0.39,9.30,0.00,-0.00,-0.00
2026-06-23 20:05:31.125,990.00,991.55,154.56,16.54,0.00,0.66,0.39,9.30,0.00,-0.00,-0.00
2026-06-23 20:05:31.126,990.00,991.55,154.56,16.54,0.00,0.66,0.39,9.30,0.00,-0.00,-0.00
2026-06-23 20:05:31.132,990.00,991.55,154.56,16.54,0.00,0.66,0.39,9.30,0.00,-0.00,-0.00
2026-06-23 20:05:31.133,990.00,991.55,154.56,16.54,0.00,0.67,0.35,9.30,-0.00,-0.00,0.00
2026-06-23 20:05:31.134,990.00,991.55,154.56,16.54,0.00,0.67,0.35,9.30,-0.00,-0.00,0.00
2026-06-23 20:05:31.136,990.00,991.55,154.56,16.54,0.00,0.67,0.35,9.30,-0.00,-0.00,0.00
2026-06-23 20:05:31.137,990.00,991.55,154.56,16.54,0.00,0.67,0.35,9.30,-0.00,-0.00,0.00
2026-06-23 20:05:31.142,990.00,991.55,154.56,16.54,0.00,0.67,0.35,9.30,-0.00,-0.00,0.00
2026-06-23 20:05:31.143,990.00,991.55,154.56,16.54,0.00,0.66,0.39,9.28,-0.00,0.00,-0.00
2026-06-23 20:05:31.145,990.00,991.55,154.56,16.54,0.00,0.66,0.39,9.28,-0.00,0.00,-0.00
2026-06-23 20:05:31.146,990.00,991.55,154.56,16.54,0.00,0.66,0.39,9.28,-0.00,0.00,-0.00
2026-06-23 20:05:31.151,990.00,991.55,154.56,16.54,0.00,0.66,0.39,9.28,-0.00,0.00,-0.00
2026-06-23 20:05:31.153,990.00,991.55,154.56,16.54,0.00,0.67,0.37,9.28,0.00,-0.00,0.00
2026-06-23 20:05:31.154,990.00,991.55,154.56,16.54,0.00,0.67,0.37,9.28,0.00,-0.00,0.00
2026-06-23 20:05:31.155,990.00,991.55,154.56,16.54,0.00,0.67,0.37,9.28,0.00,-0.00,0.00
2026-06-23 20:05:31.157,990.00,991.55,154.56,16.54,0.00,0.67,0.37,9.28,0.00,-0.00,0.00
2026-06-23 20:05:31.161,990.00,991.55,154.56,16.54,0.00,0.67,0.37,9.28,0.00,-0.00,0.00
2026-06-23 20:05:31.163,990.00,991.55,154.56,16.54,0.00,0.66,0.38,9.34,0.00,-0.00,0.00
2026-06-23 20:05:31.165,990.00,991.55,154.56,16.54,0.00,0.66,0.38,9.34,0.00,-0.00,0.00
2026-06-23 20:05:31.166,990.00,991.55,154.56,16.54,0.00,0.66,0.38,9.34,0.00,-0.00,0.00
2026-06-23 20:05:31.167,990.00,991.55,154.56,16.54,0.00,0.66,0.38,9.34,0.00,-0.00,0.00
2026-06-23 20:05:31.168,990.00,991.55,154.56,16.54,0.00,0.66,0.38,9.34,0.00,-0.00,0.00
2026-06-23 20:05:31.169,990.00,991.55,154.56,16.54,0.00,0.66,0.38,9.34,0.00,-0.00,0.00
2026-06-23 20:05:31.171,990.00,991.55,154.56,16.54,0.00,0.66,0.38,9.34,0.00,-0.00,0.00
2026-06-23 20:05:31.173,990.00,991.55,154.56,16.54,0.00,0.66,0.38,9.34,0.00,0.00,-0.00
2026-06-23 20:05:31.174,990.00,991.55,154.56,16.54,0.00,0.67,0.39,9.31,0.00,0.00,-0.00
2026-06-23 20:05:31.176,990.00,991.55,154.56,16.54,0.00,0.67,0.39,9.31,0.00,0.00,-0.00
2026-06-23 20:05:31.177,990.00,991.55,154.56,16.54,0.00,0.67,0.39,9.31,0.00,0.00,-0.00
2026-06-23 20:05:31.182,990.00,991.55,154.56,16.54,0.00,0.67,0.39,9.31,0.00,0.00,-0.00
2026-06-23 20:05:31.374,990.00,991.55,154.51,16.54,0.00,0.66,0.38,9.30,0.00,0.00,-0.00
2026-06-23 20:05:31.375,990.00,991.55,154.51,16.54,0.00,0.66,0.38,9.30,0.00,0.00,-0.00
2026-06-23 20:05:31.376,990.00,991.55,154.51,16.54,0.00,0.66,0.38,9.30,0.00,0.00,-0.00
2026-06-23 20:05:31.380,990.00,991.55,154.51,16.54,0.00,0.66,0.38,9.30,0.00,0.00,-0.00
2026-06-23 20:05:31.383,990.00,991.55,154.51,16.54,0.00,0.66,0.38,9.30,0.00,0.00,0.00
2026-06-23 20:05:31.385,990.00,991.55,154.51,16.54,0.00,0.66,0.37,9.27,0.00,0.00,0.00
2026-06-23 20:05:31.390,990.00,991.55,154.51,16.54,0.00,0.66,0.37,9.27,0.00,0.00,0.00
2026-06-23 20:05:31.394,990.00,991.55,154.51,16.54,0.00,0.66,0.37,9.27,-0.00,0.00,0.00
2026-06-23 20:05:31.395,990.00,991.55,154.51,16.54,0.00,0.66,0.38,9.27,-0.00,0.00,0.00
2026-06-23 20:05:31.397,990.00,991.55,154.51,16.54,0.00,0.66,0.38,9.27,-0.00,0.00,0.00
2026-06-23 20:05:31.398,990.00,991.55,154.51,16.54,0.00,0.66,0.38,9.27,-0.00,0.00,0.00
2026-06-23 20:05:31.403,990.00,991.55,154.51,16.54,0.00,0.66,0.38,9.27,0.00,-0.00,0.00
2026-06-23 20:05:31.404,990.00,991.55,154.51,16.54,0.00,0.67,0.37,9.27,0.00,-0.00,0.00
2026-06-23 20:05:31.406,990.00,991.55,154.51,16.54,0.00,0.67,0.37,9.27,0.00,-0.00,0.00
2026-06-23 20:05:31.407,990.00,991.55,154.51,16.54,0.00,0.67,0.37,9.27,0.00,-0.00,0.00
2026-06-23 20:05:31.410,990.00,991.55,154.51,16.54,0.00,0.67,0.37,9.27,0.00,-0.00,0.00
2026-06-23 20:05:31.414,990.00,991.55,154.51,16.54,0.00,0.67,0.37,9.27,-0.00,-0.00,0.00
2026-06-23 20:05:31.415,990.00,991.55,154.51,16.54,0.00,0.65,0.38,9.29,-0.00,-0.00,0.00
2026-06-23 20:05:31.416,990.00,991.55,154.51,16.54,0.00,0.65,0.38,9.29,-0.00,-0.00,0.00
2026-06-23 20:05:31.418,990.00,991.55,154.51,16.54,0.00,0.65,0.38,9.29,-0.00,-0.00,0.00
2026-06-23 20:05:31.420,990.00,991.55,154.51,16.54,0.00,0.65,0.38,9.29,-0.00,-0.00,0.00
2026-06-23 20:05:31.424,990.00,991.55,154.51,16.54,0.00,0.65,0.38,9.29,0.00,-0.00,-0.00
2026-06-23 20:05:31.425,990.00,991.55,154.51,16.54,0.00,0.66,0.37,9.32,0.00,-0.00,-0.00
2026-06-23 20:05:31.427,990.00,991.55,154.51,16.54,0.00,0.66,0.37,9.32,0.00,-0.00,-0.00
2026-06-23 20:05:31.430,990.00,991.55,154.51,16.54,0.00,0.66,0.37,9.32,0.00,-0.00,-0.00
2026-06-23 20:05:31.434,990.00,991.55,154.51,16.54,0.00,0.66,0.37,9.32,0.00,-0.00,0.00
2026-06-23 20:05:31.435,990.00,991.55,154.51,16.54,0.00,0.66,0.38,9.31,0.00,-0.00,0.00
2026-06-23 20:05:31.437,990.00,991.55,154.51,16.54,0.00,0.66,0.38,9.31,0.00,-0.00,0.00
2026-06-23 20:05:31.443,990.00,991.55,154.51,16.54,0.00,0.66,0.38,9.31,0.00,-0.00,0.00
2026-06-23 20:05:31.444,990.00,991.55,154.51,16.54,0.00,0.66,0.38,9.27,0.00,0.00,0.00
2026-06-23 20:05:31.446,990.00,991.55,154.51,16.54,0.00,0.66,0.38,9.27,0.00,0.00,0.00
2026-06-23 20:05:31.447,990.00,991.55,154.51,16.54,0.00,0.66,0.38,9.27,0.00,0.00,0.00
2026-06-23 20:05:31.453,990.00,991.55,154.51,16.54,0.00,0.66,0.38,9.27,0.00,0.00,0.00
2026-06-23 20:05:31.455,990.00,991.55,154.51,16.54,0.00,0.67,0.39,9.31,0.00,-0.00,0.00
2026-06-23 20:05:31.456,990.00,991.55,154.51,16.54,0.00,0.67,0.39,9.31,0.00,-0.00,0.00
2026-06-23 20:05:31.459,990.00,991.55,154.51,16.54,0.00,0.67,0.39,9.31,0.00,-0.00,0.00
2026-06-23 20:05:31.464,990.00,991.55,154.51,16.54,0.00,0.67,0.39,9.31,0.00,0.00,0.00
2026-06-23 20:05:31.465,990.00,991.55,154.51,16.54,0.00,0.65,0.40,9.30,0.00,0.00,0.00
2026-06-23 20:05:31.466,990.00,991.55,154.51,16.54,0.00,0.65,0.40,9.30,0.00,0.00,0.00
2026-06-23 20:05:31.468,990.00,991.55,154.51,16.54,0.00,0.65,0.40,9.30,0.00,0.00,0.00
2026-06-23 20:05:31.470,990.00,991.55,154.51,16.54,0.00,0.65,0.40,9.30,0.00,0.00,0.00
2026-06-23 20:05:31.473,990.00,991.55,154.51,16.54,0.00,0.65,0.40,9.30,0.00,0.00,0.00
2026-06-23 20:05:31.665,990.00,991.56,156.15,16.63,0.00,0.67,0.39,9.31,-0.00,0.00,-0.00
2026-06-23 20:05:31.666,990.00,991.56,156.15,16.63,0.00,0.67,0.39,9.31,-0.00,0.00,-0.00
2026-06-23 20:05:31.667,990.00,991.56,156.15,16.63,0.00,0.67,0.39,9.31,-0.00,0.00,-0.00
2026-06-23 20:05:31.668,990.00,991.56,156.15,16.63,0.00,0.67,0.39,9.31,-0.00,0.00,-0.00
2026-06-23 20:05:31.670,990.00,991.56,156.15,16.63,0.00,0.67,0.39,9.31,-0.00,0.00,-0.00
2026-06-23 20:05:31.671,990.00,991.56,156.15,16.63,0.00,0.67,0.39,9.31,-0.00,0.00,-0.00
2026-06-23 20:05:31.673,990.00,991.56,156.15,16.63,0.00,0.67,0.39,9.31,-0.00,0.00,-0.00
2026-06-23 20:05:31.675,990.00,991.56,156.15,16.63,0.00,0.65,0.37,9.29,-0.00,-0.00,0.00
2026-06-23 20:05:31.676,990.00,991.56,156.15,16.63,0.00,0.65,0.37,9.29,-0.00,-0.00,0.00
2026-06-23 20:05:31.680,990.00,991.56,156.15,16.63,0.00,0.65,0.37,9.29,-0.00,-0.00,0.00
2026-06-23 20:05:31.684,990.00,991.56,156.15,16.63,0.00,0.65,0.37,9.29,-0.00,0.00,-0.00
2026-06-23 20:05:31.685,990.00,991.56,156.15,16.63,0.00,0.65,0.37,9.29,-0.00,0.00,-0.00
2026-06-23 20:05:31.686,990.00,991.56,156.15,16.63,0.00,0.65,0.37,9.29,-0.00,0.00,-0.00
2026-06-23 20:05:31.688,990.00,991.56,156.15,16.63,0.00,0.65,0.37,9.29,-0.00,0.00,-0.00
2026-06-23 20:05:31.691,990.00,991.56,156.15,16.63,0.00,0.65,0.37,9.29,-0.00,0.00,-0.00
2026-06-23 20:05:31.694,990.00,991.56,156.15,16.63,0.00,0.65,0.37,9.29,0.00,0.00,0.00
2026-06-23 20:05:31.696,990.00,991.56,156.15,16.63,0.00,0.65,0.39,9.28,0.00,0.00,0.00
2026-06-23 20:05:31.697,990.00,991.56,156.15,16.63,0.00,0.65,0.39,9.28,0.00,0.00,0.00
2026-06-23 20:05:31.699,990.00,991.56,156.15,16.63,0.00,0.65,0.39,9.28,0.00,0.00,0.00
2026-06-23 20:05:31.703,990.00,991.56,156.15,16.63,0.00,0.65,0.39,9.28,0.00,0.00,0.00
2026-06-23 20:05:31.705,990.00,991.56,156.15,16.63,0.00,0.66,0.37,9.30,0.00,0.00,0.00
2026-06-23 20:05:31.707,990.00,991.56,156.15,16.63,0.00,0.66,0.37,9.30,0.00,0.00,0.00
2026-06-23 20:05:31.708,990.00,991.56,156.15,16.63,0.00,0.66,0.37,9.30,0.00,0.00,0.00
2026-06-23 20:05:31.714,990.00,991.56,156.15,16.63,0.00,0.66,0.37,9.30,0.00,0.00,0.00
2026-06-23 20:05:31.715,990.00,991.56,156.15,16.63,0.00,0.67,0.38,9.31,0.00,-0.00,-0.00
2026-06-23 20:05:31.716,990.00,991.56,156.15,16.63,0.00,0.67,0.38,9.31,0.00,-0.00,-0.00
2026-06-23 20:05:31.718,990.00,991.56,156.15,16.63,0.00,0.67,0.38,9.31,0.00,-0.00,-0.00
2026-06-23 20:05:31.719,990.00,991.56,156.15,16.63,0.00,0.67,0.38,9.31,0.00,-0.00,-0.00
2026-06-23 20:05:31.720,990.00,991.56,156.15,16.63,0.00,0.67,0.38,9.31,0.00,-0.00,-0.00
2026-06-23 20:05:31.722,990.00,991.56,156.15,16.63,0.00,0.67,0.38,9.31,0.00,-0.00,-0.00
2026-06-23 20:05:31.724,990.00,991.56,156.15,16.63,0.00,0.67,0.38,9.31,0.00,0.00,-0.00
2026-06-23 20:05:31.726,990.00,991.56,156.15,16.63,0.00,0.66,0.37,9.31,0.00,0.00,-0.00
2026-06-23 20:05:31.727,990.00,991.56,156.15,16.63,0.00,0.66,0.37,9.31,0.00,0.00,-0.00
2026-06-23 20:05:31.731,990.00,991.56,156.15,16.63,0.00,0.66,0.37,9.31,0.00,0.00,-0.00
2026-06-23 20:05:31.734,990.00,991.56,156.15,16.63,0.00,0.66,0.37,9.31,0.00,0.00,0.00
2026-06-23 20:05:31.736,990.00,991.56,156.15,16.63,0.00,0.66,0.39,9.27,0.00,0.00,0.00
2026-06-23 20:05:31.738,990.00,991.56,156.15,16.63,0.00,0.66,0.39,9.27,0.00,0.00,0.00
2026-06-23 20:05:31.743,990.00,991.56,156.15,16.63,0.00,0.66,0.39,9.27,0.00,0.00,0.00
2026-06-23 20:05:31.745,990.00,991.56,156.15,16.63,0.00,0.66,0.38,9.26,0.00,0.00,-0.00
2026-06-23 20:05:31.746,990.00,991.56,156.15,16.63,0.00,0.66,0.38,9.26,0.00,0.00,-0.00
2026-06-23 20:05:31.748,990.00,991.56,156.15,16.63,0.00,0.66,0.38,9.26,0.00,0.00,-0.00
2026-06-23 20:05:31.751,990.00,991.56,156.15,16.63,0.00,0.66,0.38,9.26,0.00,0.00,-0.00
2026-06-23 20:05:31.755,990.00,991.56,156.15,16.63,0.00,0.66,0.38,9.26,-0.00,0.00,-0.00
2026-06-23 20:05:31.756,990.00,991.56,156.15,16.63,0.00,0.66,0.41,9.32,-0.00,0.00,-0.00
2026-06-23 20:05:31.758,990.00,991.56,156.15,16.63,0.00,0.66,0.41,9.32,-0.00,0.00,-0.00
2026-06-23 20:05:31.764,990.00,991.56,156.15,16.63,0.00,0.66,0.41,9.32,-0.00,0.00,-0.00
2026-06-23 20:05:31.956,990.00,991.56,156.14,16.63,0.00,0.65,0.38,9.29,0.00,0.00,0.00
2026-06-23 20:05:31.958,990.00,991.56,156.14,16.63,0.00,0.65,0.38,9.29,0.00,0.00,0.00
2026-06-23 20:05:31.963,990.00,991.56,156.14,16.63,0.00,0.65,0.38,9.29,0.00,0.00,0.00
2026-06-23 20:05:31.965,990.00,991.56,156.14,16.63,0.00,0.67,0.38,9.32,0.00,0.00,0.00
2026-06-23 20:05:31.966,990.00,991.56,156.14,16.63,0.00,0.67,0.38,9.32,0.00,0.00,0.00
2026-06-23 20:05:31.968,990.00,991.56,156.14,16.63,0.00,0.67,0.38,9.32,0.00,0.00,0.00
2026-06-23 20:05:31.969,990.00,991.56,156.14,16.63,0.00,0.67,0.38,9.32,0.00,0.00,0.00
2026-06-23 20:05:31.971,990.00,991.56,156.14,16.63,0.00,0.67,0.38,9.32,0.00,0.00,0.00
2026-06-23 20:05:31.972,990.00,991.56,156.14,16.63,0.00,0.67,0.38,9.32,0.00,0.00,0.00
2026-06-23 20:05:31.974,990.00,991.56,156.14,16.63,0.00,0.67,0.38,9.32,0.00,0.00,0.00
2026-06-23 20:05:31.976,990.00,991.56,156.14,16.63,0.00,0.66,0.38,9.32,0.00,-0.00,0.00
2026-06-23 20:05:31.977,990.00,991.56,156.14,16.63,0.00,0.66,0.38,9.32,0.00,-0.00,0.00
2026-06-23 20:05:31.979,990.00,991.56,156.14,16.63,0.00,0.66,0.38,9.32,0.00,-0.00,0.00
2026-06-23 20:05:31.984,990.00,991.56,156.14,16.63,0.00,0.66,0.38,9.32,0.00,-0.00,0.00
2026-06-23 20:05:31.986,990.00,991.56,156.14,16.63,0.00,0.65,0.37,9.27,0.00,0.00,-0.00
2026-06-23 20:05:31.987,990.00,991.56,156.14,16.63,0.00,0.65,0.37,9.27,0.00,0.00,-0.00
2026-06-23 20:05:31.988,990.00,991.56,156.14,16.63,0.00,0.65,0.37,9.27,0.00,0.00,-0.00
2026-06-23 20:05:31.994,990.00,991.56,156.14,16.63,0.00,0.65,0.37,9.27,0.00,0.00,-0.00
2026-06-23 20:05:31.996,990.00,991.56,156.14,16.63,0.00,0.67,0.38,9.29,0.00,0.00,0.00
2026-06-23 20:05:31.997,990.00,991.56,156.14,16.63,0.00,0.67,0.38,9.29,0.00,0.00,0.00
2026-06-23 20:05:31.999,990.00,991.56,156.14,16.63,0.00,0.67,0.38,9.29,0.00,0.00,0.00
2026-06-23 20:05:31.001,990.00,991.56,156.14,16.63,0.00,0.67,0.38,9.29,0.00,0.00,0.00
2026-06-23 20:05:32.005,990.00,991.56,156.14,16.63,0.00,0.67,0.38,9.29,0.00,0.00,0.00
2026-06-23 20:05:32.006,990.00,991.56,156.14,16.63,0.00,0.66,0.39,9.30,0.00,0.00,0.00
2026-06-23 20:05:32.007,990.00,991.56,156.14,16.63,0.00,0.66,0.39,9.30,0.00,0.00,0.00
2026-06-23 20:05:32.008,990.00,991.56,156.14,16.63,0.00,0.66,0.39,9.30,0.00,0.00,0.00
2026-06-23 20:05:32.013,990.00,991.56,156.14,16.63,0.00,0.66,0.39,9.30,0.00,0.00,0.00
2026-06-23 20:05:32.015,990.00,991.56,156.14,16.63,0.00,0.66,0.39,9.31,-0.00,0.00,0.00
2026-06-23 20:05:32.016,990.00,991.56,156.14,16.63,0.00,0.66,0.39,9.31,-0.00,0.00,0.00
2026-06-23 20:05:32.018,990.00,991.56,156.14,16.63,0.00,0.66,0.39,9.31,-0.00,0.00,0.00
2026-06-23 20:05:32.019,990.00,991.56,156.14,16.63,0.00,0.66,0.39,9.31,-0.00,0.00,0.00
2026-06-23 20:05:32.020,990.00,991.56,156.14,16.63,0.00,0.66,0.39,9.31,-0.00,0.00,0.00
2026-06-23 20:05:32.021,990.00,991.56,156.14,16.63,0.00,0.66,0.39,9.31,-0.00,0.00,0.00
2026-06-23 20:05:32.022,990.00,991.56,156.14,16.63,0.00,0.66,0.39,9.31,-0.00,0.00,0.00
2026-06-23 20:05:32.025,990.00,991.56,156.14,16.63,0.00,0.67,0.40,9.31,0.00,0.00,-0.00
2026-06-23 20:05:32.027,990.00,991.56,156.14,16.63,0.00,0.67,0.40,9.31,0.00,0.00,-0.00
2026-06-23 20:05:32.028,990.00,991.56,156.14,16.63,0.00,0.67,0.40,9.31,0.00,0.00,-0.00
2026-06-23 20:05:32.033,990.00,991.56,156.14,16.63,0.00,0.67,0.40,9.31,0.00,0.00,-0.00
2026-06-23 20:05:32.035,990.00,991.56,156.14,16.63,0.00,0.67,0.40,9.30,0.00,0.00,-0.00
2026-06-23 20:05:32.036,990.00,991.56,156.14,16.63,0.00,0.67,0.40,9.30,0.00,0.00,-0.00
2026-06-23 20:05:32.038,990.00,991.56,156.14,16.63,0.00,0.67,0.40,9.30,0.00,0.00,-0.00
2026-06-23 20:05:32.039,990.00,991.56,156.14,16.63,0.00,0.67,0.40,9.30,0.00,0.00,-0.00
2026-06-23 20:05:32.043,990.00,991.56,156.14,16.63,0.00,0.67,0.40,9.30,0.00,0.00,-0.00
2026-06-23 20:05:32.045,990.00,991.56,156.14,16.63,0.00,0.66,0.39,9.27,-0.00,0.00,0.00
2026-06-23 20:05:32.047,990.00,991.56,156.14,16.63,0.00,0.66,0.39,9.27,-0.00,0.00,0.00
2026-06-23 20:05:32.048,990.00,991.56,156.14,16.63,0.00,0.66,0.39,9.27,-0.00,0.00,0.00
2026-06-23 20:05:32.051,990.00,991.56,156.14,16.63,0.00,0.66,0.39,9.27,-0.00,0.00,0.00
2026-06-23 20:05:32.055,990.00,991.56,156.14,16.63,0.00,0.66,0.39,9.27,-0.00,-0.00,-0.00
2026-06-23 20:05:32.246,990.00,991.54,154.49,16.55,0.00,0.67,0.40,9.29,0.00,0.00,-0.00
2026-06-23 20:05:32.247,990.00,991.54,154.49,16.55,0.00,0.65,0.37,9.28,0.00,0.00,-0.00
2026-06-23 20:05:32.248,990.00,991.54,154.49,16.55,0.00,0.65,0.37,9.28,0.00,0.00,-0.00
2026-06-23 20:05:32.251,990.00,991.54,154.49,16.55,0.00,0.65,0.37,9.28,0.00,0.00,-0.00
2026-06-23 20:05:32.255,990.00,991.54,154.49,16.55,0.00,0.65,0.37,9.28,0.00,-0.00,0.00
2026-06-23 20:05:32.256,990.00,991.54,154.49,16.55,0.00,0.66,0.40,9.29,0.00,-0.00,0.00
2026-06-23 20:05:32.258,990.00,991.54,154.49,16.55,0.00,0.66,0.40,9.29,0.00,-0.00,0.00
2026-06-23 20:05:32.259,990.00,991.54,154.49,16.55,0.00,0.66,0.40,9.29,0.00,-0.00,0.00
2026-06-23 20:05:32.264,990.00,991.54,154.49,16.55,0.00,0.66,0.40,9.29,0.00,-0.00,0.00
2026-06-23 20:05:32.266,990.00,991.54,154.49,16.55,0.00,0.66,0.39,9.30,0.00,0.00,-0.00
2026-06-23 20:05:32.267,990.00,991.54,154.49,16.55,0.00,0.66,0.39,9.30,0.00,0.00,-0.00
2026-06-23 20:05:32.268,990.00,991.54,154.49,16.55,0.00,0.66,0.39,9.30,0.00,0.00,-0.00
2026-06-23 20:05:32.269,990.00,991.54,154.49,16.55,0.00,0.66,0.39,9.30,0.00,0.00,-0.00
2026-06-23 20:05:32.270,990.00,991.54,154.49,16.55,0.00,0.66,0.39,9.30,0.00,0.00,-0.00
2026-06-23 20:05:32.272,990.00,991.54,154.49,16.55,0.00,0.66,0.39,9.30,0.00,0.00,-0.00
2026-06-23 20:05:32.273,990.00,991.54,154.49,16.55,0.00,0.66,0.39,9.30,0.00,0.00,-0.00
2026-06-23 20:05:32.276,990.00,991.54,154.49,16.55,0.00,0.66,0.39,9.30,0.00,0.00,0.00
2026-06-23 20:05:32.277,990.00,991.54,154.49,16.55,0.00,0.65,0.38,9.29,0.00,0.00,0.00
2026-06-23 20:05:32.279,990.00,991.54,154.49,16.55,0.00,0.65,0.38,9.29,0.00,0.00,0.00
2026-06-23 20:05:32.282,990.00,991.54,154.49,16.55,0.00,0.65,0.38,9.29,0.00,0.00,0.00
2026-06-23 20:05:32.285,990.00,991.54,154.49,16.55,0.00,0.65,0.38,9.29,0.00,0.00,-0.00
2026-06-23 20:05:32.287,990.00,991.54,154.49,16.55,0.00,0.66,0.38,9.32,0.00,0.00,-0.00
2026-06-23 20:05:32.288,990.00,991.54,154.49,16.55,0.00,0.66,0.38,9.32,0.00,0.00,-0.00
2026-06-23 20:05:32.289,990.00,991.54,154.49,16.55,0.00,0.66,0.38,9.32,0.00,0.00,-0.00
2026-06-23 20:05:32.292,990.00,991.54,154.49,16.55,0.00,0.66,0.38,9.32,0.00,0.00,-0.00
2026-06-23 20:05:32.296,990.00,991.54,154.49,16.55,0.00,0.66,0.38,9.32,0.00,0.00,-0.00
2026-06-23 20:05:32.297,990.00,991.54,154.49,16.55,0.00,0.66,0.38,9.28,0.00,0.00,-0.00
2026-06-23 20:05:32.299,990.00,991.54,154.49,16.55,0.00,0.66,0.38,9.28,0.00,0.00,-0.00
2026-06-23 20:05:32.300,990.00,991.54,154.49,16.55,0.00,0.66,0.38,9.28,0.00,0.00,-0.00
2026-06-23 20:05:32.305,990.00,991.54,154.49,16.55,0.00,0.66,0.38,9.28,0.00,0.00,-0.00
2026-06-23 20:05:32.306,990.00,991.54,154.49,16.55,0.00,0.65,0.38,9.33,0.00,-0.00,0.00
2026-06-23 20:05:32.307,990.00,991.54,154.49,16.55,0.00,0.65,0.38,9.33,0.00,-0.00,0.00
2026-06-23 20:05:32.309,990.00,991.54,154.49,16.55,0.00,0.65,0.38,9.33,0.00,-0.00,0.00
2026-06-23 20:05:32.313,990.00,991.54,154.49,16.55,0.00,0.65,0.38,9.33,0.00,-0.00,0.00
2026-06-23 20:05:32.316,990.00,991.54,154.49,16.55,0.00,0.66,0.39,9.29,-0.00,-0.00,0.00
2026-06-23 20:05:32.317,990.00,991.54,154.49,16.55,0.00,0.66,0.39,9.29,-0.00,-0.00,0.00
2026-06-23 20:05:32.318,990.00,991.54,154.49,16.55,0.00,0.66,0.39,9.29,-0.00,-0.00,0.00
2026-06-23 20:05:32.320,990.00,991.54,154.49,16.55,0.00,0.66,0.39,9.29,-0.00,-0.00,0.00
2026-06-23 20:05:32.321,990.00,991.54,154.49,16.55,0.00,0.66,0.39,9.29,-0.00,-0.00,0.00
2026-06-23 20:05:32.322,990.00,991.54,154.49,16.55,0.00,0.66,0.39,9.29,-0.00,-0.00,0.00
2026-06-23 20:05:32.325,990.00,991.54,154.49,16.55,0.00,0.66,0.39,9.29,-0.00,-0.00,0.00
2026-06-23 20:05:32.326,990.00,991.54,154.49,16.55,0.00,0.65,0.39,9.30,0.00,0.01,0.00
2026-06-23 20:05:32.328,990.00,991.54,154.49,16.55,0.00,0.65,0.39,9.30,0.00,0.01,0.00
2026-06-23 20:05:32.329,990.00,991.54,154.49,16.55,0.00,0.65,0.39,9.30,0.00,0.01,0.00
2026-06-23 20:05:32.335,990.00,991.54,154.49,16.55,0.00,0.65,0.39,9.30,0.00,0.01,0.00
2026-06-23 20:05:32.336,990.00,991.54,154.49,16.55,0.00,0.67,0.39,9.30,0.00,0.00,-0.00
2026-06-23 20:05:32.338,990.00,991.54,154.49,16.55,0.00,0.67,0.39,9.30,0.00,0.00,-0.00
2026-06-23 20:05:32.339,990.00,991.54,154.49,16.55,0.00,0.67,0.39,9.30,0.00,0.00,-0.00
2026-06-23 20:05:32.345,990.00,991.54,154.49,16.55,0.00,0.67,0.39,9.30,0.00,0.00,-0.00
2026-06-23 20:05:32.536,990.00,991.56,156.12,16.64,0.00,0.66,0.37,9.29,0.00,0.00,0.00
2026-06-23 20:05:32.537,990.00,991.56,156.12,16.64,0.00,0.66,0.39,9.30,0.00,0.00,0.00
2026-06-23 20:05:32.538,990.00,991.56,156.12,16.64,0.00,0.66,0.39,9.30,0.00,0.00,0.00
2026-06-23 20:05:32.540,990.00,991.56,156.12,16.64,0.00,0.66,0.39,9.30,0.00,0.00,0.00
2026-06-23 20:05:32.543,990.00,991.56,156.12,16.64,0.00,0.66,0.39,9.30,0.00,0.00,0.00
2026-06-23 20:05:32.546,990.00,991.56,156.12,16.64,0.00,0.66,0.39,9.30,0.00,0.00,0.00
2026-06-23 20:05:32.548,990.00,991.56,156.12,16.64,0.00,0.65,0.38,9.27,0.00,0.00,0.00
2026-06-23 20:05:32.549,990.00,991.56,156.12,16.64,0.00,0.65,0.38,9.27,0.00,0.00,0.00
2026-06-23 20:05:32.551,990.00,991.56,156.12,16.64,0.00,0.65,0.38,9.27,0.00,0.00,0.00
2026-06-23 20:05:32.556,990.00,991.56,156.12,16.64,0.00,0.65,0.38,9.27,0.00,0.00,0.00
2026-06-23 20:05:32.557,990.00,991.56,156.12,16.64,0.00,0.66,0.38,9.30,0.00,0.00,0.00
2026-06-23 20:05:32.559,990.00,991.56,156.12,16.64,0.00,0.66,0.38,9.30,0.00,0.00,0.00
2026-06-23 20:05:32.563,990.00,991.56,156.12,16.64,0.00,0.66,0.38,9.30,0.00,0.00,0.00
2026-06-23 20:05:32.566,990.00,991.56,156.12,16.64,0.00,0.66,0.38,9.30,0.00,-0.00,0.00
2026-06-23 20:05:32.568,990.00,991.56,156.12,16.64,0.00,0.66,0.38,9.30,0.00,-0.00,0.00
2026-06-23 20:05:32.569,990.00,991.56,156.12,16.64,0.00,0.66,0.38,9.30,0.00,-0.00,0.00
2026-06-23 20:05:32.570,990.00,991.56,156.12,16.64,0.00,0.66,0.38,9.30,0.00,-0.00,0.00
2026-06-23 20:05:32.571,990.00,991.56,156.12,16.64,0.00,0.66,0.38,9.30,0.00,-0.00,0.00
2026-06-23 20:05:32.572,990.00,991.56,156.12,16.64,0.00,0.66,0.38,9.30,0.00,-0.00,0.00
2026-06-23 20:05:32.574,990.00,991.56,156.12,16.64,0.00,0.66,0.38,9.30,0.00,-0.00,0.00
2026-06-23 20:05:32.576,990.00,991.56,156.12,16.64,0.00,0.66,0.38,9.30,-0.00,0.00,0.00
2026-06-23 20:05:32.578,990.00,991.56,156.12,16.64,0.00,0.65,0.38,9.31,-0.00,0.00,0.00
2026-06-23 20:05:32.579,990.00,991.56,156.12,16.64,0.00,0.65,0.38,9.31,-0.00,0.00,0.00
2026-06-23 20:05:32.585,990.00,991.56,156.12,16.64,0.00,0.65,0.38,9.31,-0.00,0.00,0.00
2026-06-23 20:05:32.586,990.00,991.56,156.12,16.64,0.00,0.66,0.37,9.31,0.00,-0.00,0.00
2026-06-23 20:05:32.588,990.00,991.56,156.12,16.64,0.00,0.66,0.37,9.31,0.00,-0.00,0.00
2026-06-23 20:05:32.589,990.00,991.56,156.12,16.64,0.00,0.66,0.37,9.31,0.00,-0.00,0.00
2026-06-23 20:05:32.590,990.00,991.56,156.12,16.64,0.00,0.66,0.37,9.31,0.00,-0.00,0.00
2026-06-23 20:05:32.595,990.00,991.56,156.12,16.64,0.00,0.66,0.37,9.31,0.00,-0.00,0.00
2026-06-23 20:05:32.597,990.00,991.56,156.12,16.64,0.00,0.66,0.38,9.28,0.00,0.00,0.00
2026-06-23 20:05:32.598,990.00,991.56,156.12,16.64,0.00,0.66,0.38,9.28,0.00,0.00,0.00
2026-06-23 20:05:32.599,990.00,991.56,156.12,16.64,0.00,0.66,0.38,9.28,0.00,0.00,0.00
2026-06-23 20:05:32.600,990.00,991.56,156.12,16.64,0.00,0.66,0.38,9.28,0.00,0.00,0.00
2026-06-23 20:05:32.603,990.00,991.56,156.12,16.64,0.00,0.66,0.38,9.28,0.00,0.00,0.00
2026-06-23 20:05:32.606,990.00,991.56,156.12,16.64,0.00,0.66,0.38,9.28,0.00,-0.00,0.00
2026-06-23 20:05:32.607,990.00,991.56,156.12,16.64,0.00,0.66,0.37,9.30,0.00,-0.00,0.00
2026-06-23 20:05:32.609,990.00,991.56,156.12,16.64,0.00,0.66,0.37,9.30,0.00,-0.00,0.00
2026-06-23 20:05:32.610,990.00,991.56,156.12,16.64,0.00,0.66,0.37,9.30,0.00,-0.00,0.00
2026-06-23 20:05:32.616,990.00,991.56,156.12,16.64,0.00,0.66,0.37,9.30,0.00,-0.00,0.00
2026-06-23 20:05:32.617,990.00,991.56,156.12,16.64,0.00,0.66,0.38,9.32,0.00,0.00,-0.00
2026-06-23 20:05:32.618,990.00,991.56,156.12,16.64,0.00,0.66,0.38,9.32,0.00,0.00,-0.00
2026-06-23 20:05:32.619,990.00,991.56,156.12,16.64,0.00,0.66,0.38,9.32,0.00,0.00,-0.00
2026-06-23 20:05:32.621,990.00,991.56,156.12,16.64,0.00,0.66,0.38,9.32,0.00,0.00,-0.00
2026-06-23 20:05:32.622,990.00,991.56,156.12,16.64,0.00,0.66,0.38,9.32,0.00,0.00,-0.00
2026-06-23 20:05:32.623,990.00,991.56,156.12,16.64,0.00,0.66,0.38,9.32,0.00,0.00,-0.00
2026-06-23 20:05:32.625,990.00,991.56,156.12,16.64,0.00,0.66,0.38,9.32,0.00,0.00,-0.00
2026-06-23 20:05:32.627,990.00,991.56,156.12,16.64,0.00,0.66,0.39,9.32,0.00,0.00,0.00
2026-06-23 20:05:32.628,990.00,991.56,156.12,16.64,0.00,0.66,0.39,9.32,0.00,0.00,0.00
2026-06-23 20:05:32.630,990.00,991.56,156.12,16.64,0.00,0.66,0.39,9.32,0.00,0.00,0.00
2026-06-23 20:05:32.636,990.00,991.56,156.12,16.64,0.00,0.66,0.39,9.32,0.00,0.00,0.00
2026-06-23 20:05:32.827,990.00,991.51,151.00,16.36,0.00,0.66,0.38,9.27,0.00,-0.00,0.00
2026-06-23 20:05:32.828,990.00,991.51,151.00,16.36,0.00,0.66,0.36,9.32,0.00,-0.00,0.00
2026-06-23 20:05:32.833,990.00,991.51,151.00,16.36,0.00,0.66,0.36,9.32,0.00,-0.00,0.00
2026-06-23 20:05:32.837,990.00,991.51,151.00,16.36,0.00,0.66,0.36,9.32,-0.00,-0.00,0.00
2026-06-23 20:05:32.838,990.00,991.51,151.00,16.36,0.00,0.67,0.38,9.32,-0.00,-0.00,0.00
2026-06-23 20:05:32.839,990.00,991.51,151.00,16.36,0.00,0.67,0.38,9.32,-0.00,-0.00,0.00
2026-06-23 20:05:32.840,990.00,991.51,151.00,16.36,0.00,0.67,0.38,9.32,-0.00,-0.00,0.00
2026-06-23 20:05:32.843,990.00,991.51,151.00,16.36,0.00,0.67,0.38,9.32,-0.00,-0.00,0.00
2026-06-23 20:05:32.847,990.00,991.51,151.00,16.36,0.00,0.67,0.38,9.32,-0.00,0.00,-0.00
2026-06-23 20:05:32.848,990.00,991.51,151.00,16.36,0.00,0.66,0.38,9.30,-0.00,0.00,-0.00
2026-06-23 20:05:32.849,990.00,991.51,151.00,16.36,0.00,0.66,0.38,9.30,-0.00,0.00,-0.00
2026-06-23 20:05:32.851,990.00,991.51,151.00,16.36,0.00,0.66,0.38,9.30,-0.00,0.00,-0.00
2026-06-23 20:05:32.855,990.00,991.51,151.00,16.36,0.00,0.66,0.38,9.30,-0.00,0.00,-0.00
2026-06-23 20:05:32.857,990.00,991.51,151.00,16.36,0.00,0.65,0.39,9.28,0.00,0.00,-0.00
2026-06-23 20:05:32.859,990.00,991.51,151.00,16.36,0.00,0.65,0.39,9.28,0.00,0.00,-0.00
2026-06-23 20:05:32.860,990.00,991.51,151.00,16.36,0.00,0.65,0.39,9.28,0.00,0.00,-0.00
2026-06-23 20:05:32.865,990.00,991.51,151.00,16.36,0.00,0.65,0.39,9.28,0.00,0.00,-0.00
2026-06-23 20:05:32.867,990.00,991.51,151.00,16.36,0.00,0.65,0.39,9.28,0.00,0.00,0.00
2026-06-23 20:05:32.868,990.00,991.51,151.00,16.36,0.00,0.66,0.37,9.32,0.00,0.00,0.00
2026-06-23 20:05:32.870,990.00,991.51,151.00,16.36,0.00,0.66,0.37,9.32,0.00,0.00,0.00
2026-06-23 20:05:32.871,990.00,991.51,151.00,16.36,0.00,0.66,0.37,9.32,0.00,0.00,0.00
2026-06-23 20:05:32.872,990.00,991.51,151.00,16.36,0.00,0.66,0.37,9.32,0.00,0.00,0.00
2026-06-23 20:05:32.873,990.00,991.51,151.00,16.36,0.00,0.66,0.37,9.32,0.00,0.00,0.00
2026-06-23 20:05:32.874,990.00,991.51,151.00,16.36,0.00,0.66,0.37,9.32,0.00,0.00,0.00
2026-06-23 20:05:32.877,990.00,991.51,151.00,16.36,0.00,0.66,0.37,9.32,-0.00,-0.00,0.00
2026-06-23 20:05:32.878,990.00,991.51,151.00,16.36,0.00,0.66,0.38,9.29,-0.00,-0.00,0.00
2026-06-23 20:05:32.880,990.00,991.51,151.00,16.36,0.00,0.66,0.38,9.29,-0.00,-0.00,0.00
2026-06-23 20:05:32.884,990.00,991.51,151.00,16.36,0.00,0.66,0.38,9.29,-0.00,-0.00,0.00
2026-06-23 20:05:32.887,990.00,991.51,151.00,16.36,0.00,0.66,0.38,9.29,0.00,0.00,-0.00
2026-06-23 20:05:32.888,990.00,991.51,151.00,16.36,0.00,0.65,0.39,9.28,0.00,0.00,-0.00
2026-06-23 20:05:32.889,990.00,991.51,151.00,16.36,0.00,0.65,0.39,9.28,0.00,0.00,-0.00
2026-06-23 20:05:32.890,990.00,991.51,151.00,16.36,0.00,0.65,0.39,9.28,0.00,0.00,-0.00
2026-06-23 20:05:32.894,990.00,991.51,151.00,16.36,0.00,0.65,0.39,9.28,0.00,0.00,-0.00
2026-06-23 20:05:32.897,990.00,991.51,151.00,16.36,0.00,0.65,0.39,9.28,0.00,0.00,0.00
2026-06-23 20:05:32.898,990.00,991.51,151.00,16.36,0.00,0.66,0.39,9.29,0.00,0.00,0.00
2026-06-23 20:05:32.900,990.00,991.51,151.00,16.36,0.00,0.66,0.39,9.29,0.00,0.00,0.00
2026-06-23 20:05:32.901,990.00,991.51,151.00,16.36,0.00,0.66,0.39,9.29,0.00,0.00,0.00
2026-06-23 20:05:32.902,990.00,991.51,151.00,16.36,0.00,0.66,0.39,9.29,0.00,0.00,0.00
2026-06-23 20:05:32.906,990.00,991.51,151.00,16.36,0.00,0.66,0.39,9.29,0.00,0.00,0.00
2026-06-23 20:05:32.908,990.00,991.51,151.00,16.36,0.00,0.65,0.38,9.29,0.00,0.00,0.00
2026-06-23 20:05:32.909,990.00,991.51,151.00,16.36,0.00,0.65,0.38,9.29,0.00,0.00,0.00
2026-06-23 20:05:32.911,990.00,991.51,151.00,16.36,0.00,0.65,0.38,9.29,0.00,0.00,0.00
2026-06-23 20:05:32.916,990.00,991.51,151.00,16.36,0.00,0.65,0.38,9.29,0.00,0.00,0.00
2026-06-23 20:05:32.918,990.00,991.51,151.00,16.36,0.00,0.66,0.40,9.29,-0.00,0.00,-0.00
2026-06-23 20:05:32.919,990.00,991.51,151.00,16.36,0.00,0.66,0.40,9.29,-0.00,0.00,-0.00
2026-06-23 20:05:32.920,990.00,991.51,151.00,16.36,0.00,0.66,0.40,9.29,-0.00,0.00,-0.00
2026-06-23 20:05:32.921,990.00,991.51,151.00,16.36,0.00,0.66,0.40,9.29,-0.00,0.00,-0.00
2026-06-23 20:05:32.922,990.00,991.51,151.00,16.36,0.00,0.66,0.40,9.29,-0.00,0.00,-0.00
2026-06-23 20:05:32.924,990.00,991.51,151.00,16.36,0.00,0.66,0.40,9.29,-0.00,0.00,-0.00
2026-06-23 20:05:33.117,990.00,991.55,155.06,16.58,0.00,0.67,0.39,9.32,0.00,-0.00,-0.00
2026-06-23 20:05:33.118,990.00,991.55,155.06,16.58,0.00,0.67,0.40,9.31,-0.00,0.00,0.00
2026-06-23 20:05:33.120,990.00,991.55,155.06,16.58,0.00,0.67,0.40,9.31,-0.00,0.00,0.00
2026-06-23 20:05:33.121,990.00,991.55,155.06,16.58,0.00,0.67,0.40,9.31,-0.00,0.00,0.00
2026-06-23 20:05:33.122,990.00,991.55,155.06,16.58,0.00,0.67,0.40,9.31,-0.00,0.00,0.00
2026-06-23 20:05:33.123,990.00,991.55,155.06,16.58,0.00,0.67,0.40,9.31,-0.00,0.00,0.00
2026-06-23 20:05:33.124,990.00,991.55,155.06,16.58,0.00,0.67,0.40,9.31,-0.00,0.00,0.00
2026-06-23 20:05:33.127,990.00,991.55,155.06,16.58,0.00,0.67,0.40,9.31,-0.00,0.00,0.00
2026-06-23 20:05:33.129,990.00,991.55,155.06,16.58,0.00,0.67,0.38,9.29,-0.00,0.00,0.00
2026-06-23 20:05:33.130,990.00,991.55,155.06,16.58,0.00,0.67,0.38,9.29,-0.00,0.00,0.00
2026-06-23 20:05:33.131,990.00,991.55,155.06,16.58,0.00,0.67,0.38,9.29,-0.00,0.00,0.00
2026-06-23 20:05:33.137,990.00,991.55,155.06,16.58,0.00,0.67,0.38,9.29,-0.00,0.00,0.00
2026-06-23 20:05:33.138,990.00,991.55,155.06,16.58,0.00,0.66,0.37,9.30,-0.00,0.00,0.00
2026-06-23 20:05:33.139,990.00,991.55,155.06,16.58,0.00,0.66,0.37,9.30,-0.00,0.00,0.00
2026-06-23 20:05:33.140,990.00,991.55,155.06,16.58,0.00,0.66,0.37,9.30,-0.00,0.00,0.00
2026-06-23 20:05:33.142,990.00,991.55,155.06,16.58,0.00,0.66,0.37,9.30,-0.00,0.00,0.00
2026-06-23 20:05:33.147,990.00,991.55,155.06,16.58,0.00,0.66,0.37,9.30,-0.00,0.00,0.00
2026-06-23 20:05:33.148,990.00,991.55,155.06,16.58,0.00,0.64,0.39,9.29,0.00,-0.00,0.00
2026-06-23 20:05:33.150,990.00,991.55,155.06,16.58,0.00,0.64,0.39,9.29,0.00,-0.00,0.00
2026-06-23 20:05:33.151,990.00,991.55,155.06,16.58,0.00,0.64,0.39,9.29,0.00,-0.00,0.00
2026-06-23 20:05:33.153,990.00,991.55,155.06,16.58,0.00,0.64,0.39,9.29,0.00,-0.00,0.00
2026-06-23 20:05:33.157,990.00,991.55,155.06,16.58,0.00,0.64,0.39,9.29,0.00,-0.00,0.00
2026-06-23 20:05:33.158,990.00,991.55,155.06,16.58,0.00,0.66,0.39,9.31,-0.00,0.00,0.00
2026-06-23 20:05:33.160,990.00,991.55,155.06,16.58,0.00,0.66,0.39,9.31,-0.00,0.00,0.00
2026-06-23 20:05:33.161,990.00,991.55,155.06,16.58,0.00,0.66,0.39,9.31,-0.00,0.00,0.00
2026-06-23 20:05:33.167,990.00,991.55,155.06,16.58,0.00,0.66,0.39,9.31,-0.00,0.00,0.00
2026-06-23 20:05:33.168,990.00,991.55,155.06,16.58,0.00,0.66,0.39,9.33,0.00,-0.00,0.00
2026-06-23 20:05:33.170,990.00,991.55,155.06,16.58,0.00,0.66,0.39,9.33,0.00,-0.00,0.00
2026-06-23 20:05:33.171,990.00,991.55,155.06,16.58,0.00,0.66,0.39,9.33,0.00,-0.00,0.00
2026-06-23 20:05:33.172,990.00,991.55,155.06,16.58,0.00,0.66,0.39,9.33,0.00,-0.00,0.00
2026-06-23 20:05:33.173,990.00,991.55,155.06,16.58,0.00,0.66,0.39,9.33,0.00,-0.00,0.00
2026-06-23 20:05:33.174,990.00,991.55,155.06,16.58,0.00,0.66,0.39,9.33,0.00,-0.00,0.00
2026-06-23 20:05:33.177,990.00,991.55,155.06,16.58,0.00,0.66,0.39,9.33,0.00,-0.00,0.00
2026-06-23 20:05:33.179,990.00,991.55,155.06,16.58,0.00,0.66,0.39,9.29,0.00,-0.00,-0.00
2026-06-23 20:05:33.180,990.00,991.55,155.06,16.58,0.00,0.66,0.39,9.29,0.00,-0.00,-0.00
2026-06-23 20:05:33.182,990.00,991.55,155.06,16.58,0.00,0.66,0.39,9.29,0.00,-0.00,-0.00
2026-06-23 20:05:33.187,990.00,991.55,155.06,16.58,0.00,0.66,0.39,9.29,0.00,-0.00,-0.00
2026-06-23 20:05:33.188,990.00,991.55,155.06,16.58,0.00,0.66,0.38,9.31,0.00,0.00,-0.00
2026-06-23 20:05:33.189,990.00,991.55,155.06,16.58,0.00,0.66,0.38,9.31,0.00,0.00,-0.00
2026-06-23 20:05:33.191,990.00,991.55,155.06,16.58,0.00,0.66,0.38,9.31,0.00,0.00,-0.00
2026-06-23 20:05:33.193,990.00,991.55,155.06,16.58,0.00,0.66,0.38,9.31,0.00,0.00,-0.00
2026-06-23 20:05:33.197,990.00,991.55,155.06,16.58,0.00,0.66,0.38,9.31,0.00,0.00,0.00
2026-06-23 20:05:33.199,990.00,991.55,155.06,16.58,0.00,0.65,0.39,9.30,0.00,0.00,0.00
2026-06-23 20:05:33.200,990.00,991.55,155.06,16.58,0.00,0.65,0.39,9.30,0.00,0.00,0.00
2026-06-23 20:05:33.202,990.00,991.55,155.06,16.58,0.00,0.65,0.39,9.30,0.00,0.00,0.00
2026-06-23 20:05:33.206,990.00,991.55,155.06,16.58,0.00,0.65,0.39,9.30,0.00,0.00,0.00
2026-06-23 20:05:33.208,990.00,991.55,155.06,16.58,0.00,0.66,0.36,9.28,0.00,0.00,0.00
2026-06-23 20:05:33.210,990.00,991.55,155.06,16.58,0.00,0.66,0.36,9.28,0.00,0.00,0.00
2026-06-23 20:05:33.213,990.00,991.55,155.06,16.58,0.00,0.66,0.36,9.28,0.00,0.00,0.00
2026-06-23 20:05:33.408,990.00,991.55,154.75,16.56,0.00,0.66,0.38,9.29,0.00,-0.00,0.00
2026-06-23 20:05:33.410,990.00,991.55,154.75,16.56,0.00,0.67,0.39,9.27,0.00,-0.00,0.00
2026-06-23 20:05:33.411,990.00,991.55,154.75,16.56,0.00,0.67,0.39,9.27,0.00,-0.00,0.00
2026-06-23 20:05:33.417,990.00,991.55,154.75,16.56,0.00,0.67,0.39,9.27,0.00,-0.00,0.00
2026-06-23 20:05:33.419,990.00,991.55,154.75,16.56,0.00,0.66,0.39,9.30,0.00,-0.00,0.00
2026-06-23 20:05:33.420,990.00,991.55,154.75,16.56,0.00,0.66,0.39,9.30,0.00,-0.00,0.00
2026-06-23 20:05:33.422,990.00,991.55,154.75,16.57,0.00,0.66,0.39,9.30,0.00,-0.00,0.00
2026-06-23 20:05:33.423,990.00,991.55,154.75,16.57,0.00,0.66,0.39,9.30,0.00,-0.00,0.00
2026-06-23 20:05:33.425,990.00,991.55,154.75,16.57,0.00,0.66,0.39,9.30,0.00,-0.00,0.00
2026-06-23 20:05:33.428,990.00,991.55,154.75,16.57,0.00,0.66,0.39,9.30,0.00,-0.00,0.00
2026-06-23 20:05:33.430,990.00,991.55,154.75,16.57,0.00,0.67,0.39,9.32,0.00,-0.01,-0.00
2026-06-23 20:05:33.432,990.00,991.55,154.75,16.57,0.00,0.67,0.39,9.32,0.00,-0.01,-0.00
2026-06-23 20:05:33.438,990.00,991.55,154.75,16.57,0.00,0.67,0.39,9.32,0.00,-0.01,-0.00
2026-06-23 20:05:33.439,990.00,991.55,154.75,16.57,0.00,0.65,0.37,9.30,0.00,-0.00,0.00
2026-06-23 20:05:33.440,990.00,991.55,154.75,16.57,0.00,0.65,0.37,9.30,0.00,-0.00,0.00
2026-06-23 20:05:33.442,990.00,991.55,154.75,16.57,0.00,0.65,0.37,9.30,0.00,-0.00,0.00
2026-06-23 20:05:33.448,990.00,991.55,154.75,16.57,0.00,0.65,0.37,9.30,0.00,-0.00,0.00
2026-06-23 20:05:33.450,990.00,991.55,154.75,16.57,0.00,0.67,0.38,9.29,0.00,-0.00,0.00
2026-06-23 20:05:33.451,990.00,991.55,154.75,16.57,0.00,0.67,0.38,9.29,0.00,-0.00,0.00
2026-06-23 20:05:33.456,990.00,991.55,154.75,16.57,0.00,0.67,0.38,9.29,0.00,-0.00,0.00
2026-06-23 20:05:33.459,990.00,991.55,154.75,16.57,0.00,0.66,0.38,9.31,-0.00,-0.00,0.00
2026-06-23 20:05:33.461,990.00,991.55,154.75,16.57,0.00,0.66,0.38,9.31,-0.00,-0.00,0.00
2026-06-23 20:05:33.462,990.00,991.55,154.75,16.57,0.00,0.66,0.38,9.31,-0.00,-0.00,0.00
2026-06-23 20:05:33.468,990.00,991.55,154.75,16.57,0.00,0.66,0.38,9.31,-0.00,-0.00,0.00
2026-06-23 20:05:33.470,990.00,991.55,154.75,16.57,0.00,0.66,0.37,9.29,0.00,-0.00,-0.00
2026-06-23 20:05:33.471,990.00,991.55,154.75,16.57,0.00,0.66,0.37,9.29,0.00,-0.00,-0.00
2026-06-23 20:05:33.472,990.00,991.55,154.75,16.57,0.00,0.66,0.37,9.29,0.00,-0.00,-0.00
2026-06-23 20:05:33.474,990.00,991.55,154.75,16.57,0.00,0.66,0.37,9.29,0.00,-0.00,-0.00
2026-06-23 20:05:33.476,990.00,991.55,154.75,16.57,0.00,0.66,0.37,9.29,0.00,-0.00,-0.00
2026-06-23 20:05:33.479,990.00,991.55,154.75,16.57,0.00,0.66,0.37,9.29,0.00,-0.00,0.00
2026-06-23 20:05:33.480,990.00,991.55,154.75,16.57,0.00,0.67,0.39,9.31,0.00,-0.00,0.00
2026-06-23 20:05:33.482,990.00,991.55,154.75,16.57,0.00,0.67,0.39,9.31,0.00,-0.00,0.00
2026-06-23 20:05:33.488,990.00,991.55,154.75,16.57,0.00,0.67,0.39,9.31,0.00,-0.00,0.00
2026-06-23 20:05:33.489,990.00,991.55,154.75,16.57,0.00,0.67,0.39,9.30,-0.00,-0.00,0.00
2026-06-23 20:05:33.491,990.00,991.55,154.75,16.57,0.00,0.67,0.39,9.30,-0.00,-0.00,0.00
2026-06-23 20:05:33.492,990.00,991.55,154.75,16.57,0.00,0.67,0.39,9.30,-0.00,-0.00,0.00
2026-06-23 20:05:33.498,990.00,991.55,154.75,16.57,0.00,0.67,0.39,9.30,-0.00,-0.00,0.00
2026-06-23 20:05:33.499,990.00,991.55,154.75,16.57,0.00,0.66,0.39,9.26,-0.00,-0.00,-0.00
2026-06-23 20:05:33.501,990.00,991.55,154.75,16.57,0.00,0.66,0.39,9.26,-0.00,-0.00,-0.00
2026-06-23 20:05:33.502,990.00,991.55,154.75,16.57,0.00,0.66,0.39,9.26,-0.00,-0.00,-0.00
2026-06-23 20:05:33.505,990.00,991.55,154.75,16.57,0.00,0.66,0.39,9.26,-0.00,-0.00,-0.00
2026-06-23 20:05:33.699,990.00,991.55,154.90,16.57,0.00,0.66,0.39,9.31,0.00,0.00,0.00
2026-06-23 20:05:33.700,990.00,991.55,154.90,16.57,0.00,0.67,0.38,9.27,0.00,0.00,0.00
2026-06-23 20:05:33.702,990.00,991.55,154.90,16.57,0.00,0.67,0.38,9.27,0.00,0.00,0.00
2026-06-23 20:05:33.703,990.00,991.55,154.90,16.57,0.00,0.67,0.38,9.27,0.00,0.00,0.00
2026-06-23 20:05:33.708,990.00,991.55,154.90,16.57,0.00,0.67,0.38,9.27,0.00,0.00,0.00
2026-06-23 20:05:33.710,990.00,991.55,154.90,16.57,0.00,0.65,0.39,9.28,0.00,-0.00,-0.00
2026-06-23 20:05:33.712,990.00,991.55,154.90,16.57,0.00,0.65,0.39,9.28,0.00,-0.00,-0.00
2026-06-23 20:05:33.717,990.00,991.55,154.90,16.57,0.00,0.65,0.39,9.28,0.00,-0.00,-0.00
2026-06-23 20:05:33.719,990.00,991.55,154.90,16.57,0.00,0.65,0.39,9.28,0.00,-0.00,-0.00
2026-06-23 20:05:33.721,990.00,991.55,154.90,16.57,0.00,0.67,0.37,9.30,0.00,-0.00,-0.00
2026-06-23 20:05:33.722,990.00,991.55,154.90,16.57,0.00,0.67,0.37,9.30,0.00,-0.00,-0.00
2026-06-23 20:05:33.723,990.00,991.55,154.90,16.57,0.00,0.67,0.37,9.30,0.00,-0.00,-0.00
2026-06-23 20:05:33.725,990.00,991.55,154.90,16.57,0.00,0.67,0.37,9.30,0.00,-0.00,-0.00
2026-06-23 20:05:33.726,990.00,991.55,154.90,16.57,0.00,0.67,0.37,9.30,0.00,-0.00,-0.00
2026-06-23 20:05:33.729,990.00,991.55,154.90,16.57,0.00,0.67,0.37,9.30,0.00,0.00,-0.00
2026-06-23 20:05:33.731,990.00,991.55,154.90,16.57,0.00,0.67,0.37,9.31,0.00,0.00,-0.00
