timestamp,pressure_bag,pressure_bme,diff_pressure,v_wind_est,speed,accel_x,accel_y,accel_z,gyro_x,gyro_y,gyro_z,power
2026-06-26 18:59:27.757,994.14,994.12,-1.91,-1.83,0.00,2.28,0.13,9.01,-0.00,0.00,-0.00,0.00
2026-06-26 18:59:27.759,994.14,994.12,-1.91,-1.83,0.00,2.28,0.13,9.01,-0.00,0.00,-0.00,0.00
2026-06-26 18:59:27.760,994.14,994.12,-1.91,-1.83,0.00,2.28,0.13,9.01,-0.00,0.00,-0.00,0.00
2026-06-26 18:59:27.761,994.14,994.12,-1.91,-1.83,0.00,2.28,0.13,9.01,-0.00,0.00,-0.00,0.00
2026-06-26 18:59:27.766,994.14,994.12,-1.91,-1.83,0.00,2.28,0.13,9.01,-0.00,0.00,-0.00,0.00
2026-06-26 18:59:27.768,994.14,994.12,-1.91,-1.83,0.00,2.28,0.11,9.03,-0.00,0.00,0.00,0.00
2026-06-26 18:59:27.769,994.14,994.12,-1.91,-1.83,0.00,2.28,0.11,9.03,-0.00,0.00,0.00,0.00
2026-06-26 18:59:27.770,994.14,994.12,-1.91,-1.83,0.00,2.28,0.11,9.03,-0.00,0.00,0.00,0.00
2026-06-26 18:59:27.771,994.14,994.12,-1.91,-1.83,0.00,2.28,0.11,9.03,-0.00,0.00,0.00,0.00
2026-06-26 18:59:27.776,994.14,994.12,-1.91,-1.83,0.00,2.28,0.11,9.03,-0.00,0.00,0.00,0.00
2026-06-26 18:59:27.778,994.14,994.12,-1.91,-1.83,0.00,2.30,0.11,9.02,-0.00,-0.00,0.00,0.00
2026-06-26 18:59:27.780,994.14,994.12,-1.91,-1.83,0.00,2.30,0.11,9.02,-0.00,-0.00,0.00,0.00
2026-06-26 18:59:27.784,994.14,994.12,-1.91,-1.83,0.00,2.30,0.11,9.02,-0.00,-0.00,0.00,0.00
2026-06-26 18:59:27.788,994.14,994.12,-1.91,-1.83,0.00,2.30,0.11,9.02,-0.00,0.00,0.00,0.00
2026-06-26 18:59:27.789,994.14,994.12,-1.91,-1.83,0.00,2.28,0.11,9.04,-0.00,0.00,0.00,0.00
2026-06-26 18:59:27.794,994.14,994.12,-1.91,-1.83,0.00,2.28,0.11,9.04,-0.00,0.00,0.00,0.00
2026-06-26 18:59:27.797,994.14,994.12,-1.91,-1.83,0.00,2.28,0.11,9.04,-0.00,0.00,0.00,0.00
2026-06-26 18:59:27.798,994.14,994.12,-1.91,-1.83,0.00,2.27,0.12,9.02,-0.00,0.00,0.00,0.00
2026-06-26 18:59:27.800,994.14,994.12,-1.91,-1.83,0.00,2.27,0.12,9.02,-0.00,0.00,0.00,0.00
2026-06-26 18:59:27.801,994.14,994.12,-1.91,-1.83,0.00,2.27,0.12,9.02,-0.00,0.00,0.00,0.00
2026-06-26 18:59:27.807,994.14,994.12,-1.91,-1.83,0.00,2.27,0.12,9.02,-0.00,0.00,0.00,0.00
2026-06-26 18:59:27.818,994.14,994.12,-1.91,-1.83,0.00,2.30,0.11,9.05,-0.00,-0.00,-0.00,0.00
2026-06-26 18:59:27.858,994.14,994.12,-2.02,-1.88,0.00,2.27,0.11,9.06,-0.00,-0.00,0.00,0.00
2026-06-26 18:59:27.900,994.14,994.12,-1.87,-1.81,0.00,2.28,0.10,9.04,0.00,-0.00,0.00,0.00
2026-06-26 18:59:27.905,994.14,994.12,-1.87,-1.81,0.00,2.28,0.10,9.04,0.00,-0.00,0.00,0.00
2026-06-26 18:59:27.908,994.14,994.12,-1.87,-1.81,0.00,2.28,0.10,9.04,0.00,-0.00,-0.00,0.00
2026-06-26 18:59:27.909,994.14,994.12,-1.87,-1.81,0.00,2.26,0.10,9.05,0.00,-0.00,-0.00,0.00
2026-06-26 18:59:27.910,994.14,994.12,-1.87,-1.81,0.00,2.26,0.10,9.05,0.00,-0.00,-0.00,0.00
2026-06-26 18:59:27.912,994.14,994.12,-1.87,-1.81,0.00,2.26,0.10,9.05,0.00,-0.00,-0.00,0.00
2026-06-26 18:59:27.917,994.14,994.12,-1.87,-1.81,0.00,2.26,0.10,9.05,0.00,-0.00,-0.00,0.00
2026-06-26 18:59:27.918,994.14,994.12,-1.87,-1.81,0.00,2.27,0.11,9.02,-0.00,0.00,0.00,0.00
2026-06-26 18:59:27.919,994.14,994.12,-1.87,-1.81,0.00,2.27,0.11,9.02,-0.00,0.00,0.00,0.00
2026-06-26 18:59:27.920,994.14,994.12,-1.87,-1.81,0.00,2.27,0.11,9.02,-0.00,0.00,0.00,0.00
2026-06-26 18:59:27.922,994.14,994.12,-1.87,-1.81,0.00,2.27,0.11,9.02,-0.00,0.00,0.00,0.00
2026-06-26 18:59:27.923,994.14,994.12,-1.87,-1.81,0.00,2.27,0.11,9.02,-0.00,0.00,0.00,0.00
2026-06-26 18:59:27.927,994.14,994.12,-1.87,-1.81,0.00,2.27,0.11,9.02,-0.00,-0.01,0.00,0.00
2026-06-26 18:59:27.928,994.14,994.12,-1.87,-1.81,0.00,2.27,0.12,9.02,-0.00,-0.01,0.00,0.00
2026-06-26 18:59:27.930,994.14,994.12,-1.87,-1.81,0.00,2.27,0.12,9.02,-0.00,-0.01,0.00,0.00
2026-06-26 18:59:27.934,994.14,994.12,-1.87,-1.81,0.00,2.27,0.12,9.02,-0.00,-0.01,0.00,0.00
2026-06-26 18:59:27.937,994.14,994.12,-1.87,-1.81,0.00,2.27,0.12,9.02,-0.00,-0.00,-0.00,0.00
2026-06-26 18:59:27.939,994.14,994.12,-1.87,-1.81,0.00,2.28,0.12,9.02,-0.00,-0.00,-0.00,0.00
2026-06-26 18:59:27.940,994.14,994.12,-1.87,-1.81,0.00,2.28,0.12,9.02,-0.00,-0.00,-0.00,0.00
2026-06-26 18:59:27.941,994.14,994.12,-1.87,-1.81,0.00,2.28,0.12,9.02,-0.00,-0.00,-0.00,0.00
2026-06-26 18:59:27.943,994.14,994.12,-1.87,-1.81,0.00,2.28,0.12,9.02,-0.00,-0.00,-0.00,0.00
2026-06-26 18:59:27.944,994.14,994.12,-1.87,-1.81,0.00,2.28,0.12,9.02,-0.00,-0.00,-0.00,0.00
2026-06-26 18:59:27.947,994.14,994.12,-1.87,-1.81,0.00,2.28,0.12,9.02,0.00,0.00,-0.00,0.00
2026-06-26 18:59:27.948,994.14,994.12,-1.87,-1.81,0.00,2.30,0.09,9.01,0.00,0.00,-0.00,0.00
2026-06-26 18:59:27.950,994.14,994.12,-1.87,-1.81,0.00,2.30,0.09,9.01,0.00,0.00,-0.00,0.00
2026-06-26 18:59:27.951,994.14,994.12,-1.87,-1.81,0.00,2.30,0.09,9.01,0.00,0.00,-0.00,0.00
2026-06-26 18:59:27.952,994.14,994.12,-1.87,-1.81,0.00,2.30,0.09,9.01,0.00,0.00,-0.00,0.00
2026-06-26 18:59:27.957,994.14,994.12,-1.87,-1.81,0.00,2.30,0.09,9.01,0.00,0.00,-0.00,0.00
2026-06-26 18:59:27.000,994.14,994.11,-2.24,-1.98,0.00,2.28,0.11,9.01,-0.00,-0.00,-0.00,0.00
2026-06-26 18:59:28.041,994.13,994.11,-1.71,-1.73,0.00,2.27,0.11,9.02,-0.00,0.00,0.00,0.00
2026-06-26 18:59:28.042,994.13,994.11,-1.71,-1.73,0.00,2.27,0.11,9.02,-0.00,0.00,0.00,0.00
2026-06-26 18:59:28.043,994.13,994.11,-1.71,-1.73,0.00,2.27,0.11,9.02,-0.00,0.00,0.00,0.00
2026-06-26 18:59:28.047,994.13,994.11,-1.71,-1.73,0.00,2.27,0.11,9.02,-0.00,0.00,0.00,0.00
2026-06-26 18:59:28.048,994.13,994.11,-1.71,-1.73,0.00,2.27,0.10,9.04,-0.00,0.00,0.00,0.00
2026-06-26 18:59:28.050,994.13,994.11,-1.71,-1.73,0.00,2.27,0.10,9.04,-0.00,0.00,0.00,0.00
2026-06-26 18:59:28.051,994.13,994.11,-1.71,-1.73,0.00,2.27,0.10,9.04,-0.00,0.00,0.00,0.00
2026-06-26 18:59:28.055,994.13,994.11,-1.71,-1.73,0.00,2.27,0.10,9.04,-0.00,0.00,0.00,0.00
2026-06-26 18:59:28.058,994.13,994.11,-1.71,-1.73,0.00,2.29,0.09,9.05,-0.00,0.00,-0.00,0.00
2026-06-26 18:59:28.059,994.13,994.11,-1.71,-1.73,0.00,2.29,0.09,9.05,-0.00,0.00,-0.00,0.00
2026-06-26 18:59:28.060,994.13,994.11,-1.71,-1.73,0.00,2.29,0.09,9.05,-0.00,0.00,-0.00,0.00
2026-06-26 18:59:28.062,994.13,994.11,-1.71,-1.73,0.00,2.29,0.09,9.05,-0.00,0.00,-0.00,0.00
2026-06-26 18:59:28.064,994.13,994.11,-1.71,-1.73,0.00,2.29,0.09,9.05,-0.00,0.00,-0.00,0.00
2026-06-26 18:59:28.068,994.13,994.11,-1.71,-1.73,0.00,2.29,0.09,9.05,0.00,-0.00,0.00,0.00
2026-06-26 18:59:28.069,994.13,994.11,-1.71,-1.73,0.00,2.27,0.11,9.02,0.00,-0.00,0.00,0.00
2026-06-26 18:59:28.070,994.13,994.11,-1.71,-1.73,0.00,2.27,0.11,9.02,0.00,-0.00,0.00,0.00
2026-06-26 18:59:28.071,994.13,994.11,-1.71,-1.73,0.00,2.27,0.11,9.02,0.00,-0.00,0.00,0.00
2026-06-26 18:59:28.074,994.13,994.11,-1.71,-1.73,0.00,2.27,0.11,9.02,0.00,-0.00,0.00,0.00
2026-06-26 18:59:28.078,994.13,994.11,-1.71,-1.73,0.00,2.27,0.11,9.02,-0.00,0.00,-0.00,0.00
2026-06-26 18:59:28.079,994.13,994.11,-1.71,-1.73,0.00,2.28,0.10,9.04,-0.00,0.00,-0.00,0.00
2026-06-26 18:59:28.081,994.13,994.11,-1.71,-1.73,0.00,2.28,0.10,9.04,-0.00,0.00,-0.00,0.00
2026-06-26 18:59:28.085,994.13,994.11,-1.71,-1.73,0.00,2.28,0.10,9.04,-0.00,0.00,-0.00,0.00
2026-06-26 18:59:28.088,994.13,994.11,-1.71,-1.73,0.00,2.27,0.11,9.04,-0.00,0.00,0.00,0.00
2026-06-26 18:59:28.090,994.13,994.11,-1.71,-1.73,0.00,2.27,0.11,9.04,-0.00,0.00,0.00,0.00
2026-06-26 18:59:28.092,994.13,994.11,-1.71,-1.73,0.00,2.27,0.11,9.04,-0.00,0.00,0.00,0.00
2026-06-26 18:59:28.094,994.13,994.11,-1.71,-1.73,0.00,2.27,0.11,9.04,-0.00,0.00,0.00,0.00
2026-06-26 18:59:28.098,994.13,994.11,-1.71,-1.73,0.00,2.27,0.11,9.04,0.00,0.00,-0.00,0.00
2026-06-26 18:59:28.182,994.13,994.11,-1.61,-1.68,0.00,2.28,0.11,9.05,-0.00,0.00,0.00,0.00
2026-06-26 18:59:28.188,994.13,994.11,-1.61,-1.68,0.00,2.28,0.11,9.05,-0.00,0.00,0.00,0.00
2026-06-26 18:59:28.190,994.13,994.11,-1.61,-1.68,0.00,2.28,0.09,9.05,-0.00,0.00,0.00,0.00
2026-06-26 18:59:28.192,994.13,994.11,-1.61,-1.68,0.00,2.28,0.09,9.05,-0.00,0.00,0.00,0.00
2026-06-26 18:59:28.194,994.13,994.11,-1.61,-1.68,0.00,2.28,0.09,9.05,-0.00,0.00,0.00,0.00
2026-06-26 18:59:28.198,994.13,994.11,-1.61,-1.68,0.00,2.28,0.09,9.05,-0.00,0.00,0.00,0.00
2026-06-26 18:59:28.199,994.13,994.11,-1.61,-1.68,0.00,2.28,0.12,9.05,-0.00,0.00,0.00,0.00
2026-06-26 18:59:28.201,994.13,994.11,-1.61,-1.68,0.00,2.28,0.12,9.05,-0.00,0.00,0.00,0.00
2026-06-26 18:59:28.207,994.13,994.11,-1.61,-1.68,0.00,2.28,0.12,9.05,-0.00,0.00,0.00,0.00
2026-06-26 18:59:28.209,994.13,994.11,-1.61,-1.68,0.00,2.27,0.10,9.04,0.00,0.00,0.00,0.00
2026-06-26 18:59:28.210,994.13,994.11,-1.61,-1.68,0.00,2.27,0.10,9.04,0.00,0.00,0.00,0.00
2026-06-26 18:59:28.211,994.13,994.11,-1.61,-1.68,0.00,2.27,0.10,9.04,0.00,0.00,0.00,0.00
2026-06-26 18:59:28.214,994.13,994.11,-1.61,-1.68,0.00,2.27,0.10,9.04,0.00,0.00,0.00,0.00
2026-06-26 18:59:28.218,994.13,994.11,-1.61,-1.68,0.00,2.27,0.10,9.04,0.00,-0.00,0.00,0.00
2026-06-26 18:59:28.219,994.13,994.11,-1.61,-1.68,0.00,2.29,0.11,9.01,0.00,-0.00,0.00,0.00
2026-06-26 18:59:28.221,994.13,994.11,-1.61,-1.68,0.00,2.29,0.11,9.01,0.00,-0.00,0.00,0.00
2026-06-26 18:59:28.222,994.13,994.11,-1.61,-1.68,0.00,2.29,0.11,9.01,0.00,-0.00,0.00,0.00
2026-06-26 18:59:28.223,994.13,994.11,-1.61,-1.68,0.00,2.29,0.11,9.01,0.00,-0.00,0.00,0.00
2026-06-26 18:59:28.228,994.13,994.11,-1.61,-1.68,0.00,2.29,0.11,9.01,-0.00,0.00,0.00,0.00
2026-06-26 18:59:28.229,994.13,994.11,-1.61,-1.68,0.00,2.27,0.11,9.04,-0.00,0.00,0.00,0.00
2026-06-26 18:59:28.230,994.13,994.11,-1.61,-1.68,0.00,2.27,0.11,9.04,-0.00,0.00,0.00,0.00
2026-06-26 18:59:28.232,994.13,994.11,-1.61,-1.68,0.00,2.27,0.11,9.04,-0.00,0.00,0.00,0.00
2026-06-26 18:59:28.235,994.13,994.11,-1.61,-1.68,0.00,2.27,0.11,9.04,-0.00,0.00,0.00,0.00
2026-06-26 18:59:28.238,994.13,994.11,-1.61,-1.68,0.00,2.27,0.11,9.04,0.00,-0.00,0.00,0.00
2026-06-26 18:59:28.239,994.13,994.11,-1.61,-1.68,0.00,2.28,0.10,9.05,0.00,-0.00,0.00,0.00
2026-06-26 18:59:28.241,994.13,994.11,-1.61,-1.68,0.00,2.28,0.10,9.05,0.00,-0.00,0.00,0.00
2026-06-26 18:59:28.322,994.13,994.12,-1.39,-1.56,0.00,2.27,0.12,9.02,0.00,0.00,0.00,0.00
2026-06-26 18:59:28.328,994.13,994.12,-1.39,-1.56,0.00,2.27,0.12,9.02,0.00,0.00,0.00,0.00
2026-06-26 18:59:28.329,994.13,994.12,-1.39,-1.56,0.00,2.28,0.10,9.03,-0.00,0.00,0.00,0.00
2026-06-26 18:59:28.330,994.13,994.12,-1.39,-1.56,0.00,2.28,0.10,9.03,-0.00,0.00,0.00,0.00
2026-06-26 18:59:28.332,994.13,994.12,-1.39,-1.56,0.00,2.28,0.10,9.03,-0.00,0.00,0.00,0.00
2026-06-26 18:59:28.333,994.13,994.12,-1.39,-1.56,0.00,2.28,0.10,9.03,-0.00,0.00,0.00,0.00
2026-06-26 18:59:28.337,994.13,994.12,-1.39,-1.56,0.00,2.28,0.10,9.03,-0.00,0.00,0.00,0.00
2026-06-26 18:59:28.339,994.13,994.12,-1.39,-1.56,0.00,2.27,0.12,9.05,-0.00,0.00,0.00,0.00
2026-06-26 18:59:28.340,994.13,994.12,-1.39,-1.56,0.00,2.27,0.12,9.05,-0.00,0.00,0.00,0.00
2026-06-26 18:59:28.341,994.13,994.12,-1.39,-1.56,0.00,2.27,0.12,9.05,-0.00,0.00,0.00,0.00
2026-06-26 18:59:28.342,994.13,994.12,-1.39,-1.56,0.00,2.27,0.12,9.05,-0.00,0.00,0.00,0.00
2026-06-26 18:59:28.344,994.13,994.12,-1.39,-1.56,0.00,2.27,0.12,9.05,-0.00,0.00,0.00,0.00
2026-06-26 18:59:28.348,994.13,994.12,-1.39,-1.56,0.00,2.27,0.12,9.05,-0.00,0.00,0.00,0.00
2026-06-26 18:59:28.349,994.13,994.12,-1.39,-1.56,0.00,2.28,0.10,9.06,0.00,0.00,-0.00,0.00
2026-06-26 18:59:28.351,994.13,994.12,-1.39,-1.56,0.00,2.28,0.10,9.06,0.00,0.00,-0.00,0.00
2026-06-26 18:59:28.352,994.13,994.12,-1.39,-1.56,0.00,2.28,0.10,9.06,0.00,0.00,-0.00,0.00
2026-06-26 18:59:28.355,994.13,994.12,-1.39,-1.56,0.00,2.28,0.10,9.06,0.00,0.00,-0.00,0.00
2026-06-26 18:59:28.358,994.13,994.12,-1.39,-1.56,0.00,2.28,0.10,9.06,-0.00,0.00,-0.00,0.00
2026-06-26 18:59:28.360,994.13,994.12,-1.39,-1.56,0.00,2.29,0.11,9.03,-0.00,0.00,-0.00,0.00
2026-06-26 18:59:28.362,994.13,994.12,-1.39,-1.56,0.00,2.29,0.11,9.03,-0.00,0.00,-0.00,0.00
2026-06-26 18:59:28.363,994.13,994.12,-1.39,-1.56,0.00,2.29,0.11,9.03,-0.00,0.00,-0.00,0.00
2026-06-26 18:59:28.368,994.13,994.12,-1.39,-1.56,0.00,2.29,0.11,9.03,-0.00,0.00,0.00,0.00
2026-06-26 18:59:28.369,994.13,994.12,-1.39,-1.56,0.00,2.29,0.11,9.04,-0.00,0.00,0.00,0.00
2026-06-26 18:59:28.370,994.13,994.12,-1.39,-1.56,0.00,2.29,0.11,9.04,-0.00,0.00,0.00,0.00
2026-06-26 18:59:28.372,994.13,994.12,-1.39,-1.56,0.00,2.29,0.11,9.04,-0.00,0.00,0.00,0.00
2026-06-26 18:59:28.373,994.13,994.12,-1.39,-1.56,0.00,2.29,0.11,9.04,-0.00,0.00,0.00,0.00
2026-06-26 18:59:28.378,994.13,994.12,-1.39,-1.56,0.00,2.29,0.11,9.04,-0.00,0.00,0.00,0.00
2026-06-26 18:59:28.379,994.13,994.12,-1.39,-1.56,0.00,2.27,0.10,9.04,-0.00,0.00,-0.00,0.00
2026-06-26 18:59:28.380,994.13,994.12,-1.39,-1.56,0.00,2.27,0.10,9.04,-0.00,0.00,-0.00,0.00
2026-06-26 18:59:28.382,994.13,994.12,-1.39,-1.56,0.00,2.27,0.10,9.04,-0.00,0.00,-0.00,0.00
2026-06-26 18:59:28.468,994.13,994.12,-1.38,-1.56,0.00,2.28,0.10,9.04,0.00,-0.00,-0.00,0.00
2026-06-26 18:59:28.469,994.13,994.12,-1.38,-1.56,0.00,2.28,0.12,9.02,0.00,-0.00,0.00,0.00
2026-06-26 18:59:28.471,994.13,994.12,-1.38,-1.56,0.00,2.28,0.12,9.02,0.00,-0.00,0.00,0.00
2026-06-26 18:59:28.472,994.13,994.12,-1.38,-1.56,0.00,2.28,0.12,9.02,0.00,-0.00,0.00,0.00
2026-06-26 18:59:28.473,994.13,994.12,-1.38,-1.56,0.00,2.28,0.12,9.02,0.00,-0.00,0.00,0.00
2026-06-26 18:59:28.478,994.13,994.12,-1.38,-1.56,0.00,2.28,0.12,9.02,0.00,-0.00,0.00,0.00
2026-06-26 18:59:28.479,994.13,994.12,-1.38,-1.56,0.00,2.28,0.10,9.02,0.00,-0.00,0.00,0.00
2026-06-26 18:59:28.480,994.13,994.12,-1.38,-1.56,0.00,2.28,0.10,9.02,0.00,-0.00,0.00,0.00
2026-06-26 18:59:28.482,994.13,994.12,-1.38,-1.56,0.00,2.28,0.10,9.02,0.00,-0.00,0.00,0.00
2026-06-26 18:59:28.483,994.13,994.12,-1.38,-1.56,0.00,2.28,0.10,9.02,0.00,-0.00,0.00,0.00
2026-06-26 18:59:28.487,994.13,994.12,-1.38,-1.56,0.00,2.28,0.10,9.02,0.00,-0.00,0.00,0.00
2026-06-26 18:59:28.489,994.13,994.12,-1.38,-1.56,0.00,2.30,0.12,9.03,0.00,-0.00,0.00,0.00
2026-06-26 18:59:28.490,994.13,994.12,-1.38,-1.56,0.00,2.30,0.12,9.03,0.00,-0.00,0.00,0.00
2026-06-26 18:59:28.491,994.13,994.12,-1.38,-1.56,0.00,2.30,0.12,9.03,0.00,-0.00,0.00,0.00
2026-06-26 18:59:28.493,994.13,994.12,-1.38,-1.56,0.00,2.30,0.12,9.03,0.00,-0.00,0.00,0.00
2026-06-26 18:59:28.494,994.13,994.12,-1.38,-1.56,0.00,2.30,0.12,9.03,0.00,-0.00,0.00,0.00
2026-06-26 18:59:28.496,994.13,994.12,-1.38,-1.56,0.00,2.30,0.12,9.03,0.00,-0.00,0.00,0.00
2026-06-26 18:59:28.499,994.13,994.12,-1.38,-1.56,0.00,2.30,0.12,9.03,0.00,0.00,-0.00,0.00
2026-06-26 18:59:28.500,994.13,994.12,-1.38,-1.56,0.00,2.26,0.12,9.03,0.00,0.00,-0.00,0.00
2026-06-26 18:59:28.501,994.13,994.12,-1.38,-1.56,0.00,2.26,0.12,9.03,0.00,0.00,-0.00,0.00
2026-06-26 18:59:28.502,994.13,994.12,-1.38,-1.56,0.00,2.26,0.12,9.03,0.00,0.00,-0.00,0.00
2026-06-26 18:59:28.503,994.13,994.12,-1.38,-1.56,0.00,2.26,0.12,9.03,0.00,0.00,-0.00,0.00
2026-06-26 18:59:28.508,994.13,994.12,-1.38,-1.56,0.00,2.26,0.12,9.03,0.00,0.00,-0.00,0.00
2026-06-26 18:59:28.511,994.13,994.12,-1.38,-1.56,0.00,2.27,0.11,9.04,0.00,-0.00,0.00,0.00
2026-06-26 18:59:28.512,994.13,994.12,-1.38,-1.56,0.00,2.27,0.11,9.04,0.00,-0.00,0.00,0.00
2026-06-26 18:59:28.513,994.13,994.12,-1.38,-1.56,0.00,2.27,0.11,9.04,0.00,-0.00,0.00,0.00
2026-06-26 18:59:28.518,994.13,994.12,-1.38,-1.56,0.00,2.27,0.11,9.04,0.00,-0.00,0.00,0.00
2026-06-26 18:59:28.520,994.13,994.12,-1.38,-1.56,0.00,2.29,0.12,9.01,0.00,-0.00,-0.00,0.00
2026-06-26 18:59:28.521,994.13,994.12,-1.38,-1.56,0.00,2.29,0.12,9.01,0.00,-0.00,-0.00,0.00
2026-06-26 18:59:28.522,994.13,994.12,-1.38,-1.56,0.00,2.29,0.12,9.01,0.00,-0.00,-0.00,0.00
2026-06-26 18:59:28.609,994.13,994.12,-1.21,-1.45,0.00,2.26,0.11,9.03,0.00,-0.00,0.00,0.00
2026-06-26 18:59:28.610,994.13,994.12,-1.21,-1.45,0.00,2.28,0.13,9.02,0.00,-0.00,-0.00,0.00
2026-06-26 18:59:28.612,994.13,994.12,-1.21,-1.45,0.00,2.28,0.13,9.02,0.00,-0.00,-0.00,0.00
2026-06-26 18:59:28.616,994.13,994.12,-1.21,-1.45,0.00,2.28,0.13,9.02,0.00,-0.00,-0.00,0.00
2026-06-26 18:59:28.619,994.13,994.12,-1.21,-1.45,0.00,2.28,0.13,9.02,0.00,0.00,0.00,0.00
2026-06-26 18:59:28.621,994.13,994.12,-1.21,-1.45,0.00,2.30,0.11,9.01,0.00,0.00,0.00,0.00
2026-06-26 18:59:28.623,994.13,994.12,-1.21,-1.45,0.00,2.30,0.11,9.01,0.00,0.00,0.00,0.00
2026-06-26 18:59:28.626,994.13,994.12,-1.21,-1.45,0.00,2.30,0.11,9.01,0.00,0.00,0.00,0.00
2026-06-26 18:59:28.629,994.13,994.12,-1.21,-1.45,0.00,2.30,0.11,9.01,0.00,-0.00,-0.00,0.00
2026-06-26 18:59:28.631,994.13,994.12,-1.21,-1.45,0.00,2.29,0.11,9.03,0.00,-0.00,-0.00,0.00
2026-06-26 18:59:28.633,994.13,994.12,-1.21,-1.45,0.00,2.29,0.11,9.03,0.00,-0.00,-0.00,0.00
2026-06-26 18:59:28.639,994.13,994.12,-1.21,-1.45,0.00,2.29,0.11,9.03,0.00,-0.00,-0.00,0.00
2026-06-26 18:59:28.641,994.13,994.12,-1.21,-1.45,0.00,2.26,0.10,9.06,0.00,0.00,-0.00,0.00
2026-06-26 18:59:28.642,994.13,994.12,-1.21,-1.45,0.00,2.26,0.10,9.06,0.00,0.00,-0.00,0.00
2026-06-26 18:59:28.644,994.13,994.12,-1.21,-1.45,0.00,2.26,0.10,9.06,0.00,0.00,-0.00,0.00
2026-06-26 18:59:28.646,994.13,994.12,-1.21,-1.45,0.00,2.26,0.10,9.06,0.00,0.00,-0.00,0.00
2026-06-26 18:59:28.649,994.13,994.12,-1.21,-1.45,0.00,2.26,0.10,9.06,0.00,-0.00,-0.00,0.00
2026-06-26 18:59:28.651,994.13,994.12,-1.21,-1.45,0.00,2.27,0.11,9.04,0.00,-0.00,-0.00,0.00
2026-06-26 18:59:28.652,994.13,994.12,-1.21,-1.45,0.00,2.27,0.11,9.04,0.00,-0.00,-0.00,0.00
2026-06-26 18:59:28.653,994.13,994.12,-1.21,-1.45,0.00,2.27,0.11,9.04,0.00,-0.00,-0.00,0.00
2026-06-26 18:59:28.658,994.13,994.12,-1.21,-1.45,0.00,2.27,0.11,9.04,0.00,-0.00,-0.00,0.00
2026-06-26 18:59:28.660,994.13,994.12,-1.21,-1.45,0.00,2.27,0.11,9.03,0.00,-0.00,-0.00,0.00
2026-06-26 18:59:28.661,994.13,994.12,-1.21,-1.45,0.00,2.27,0.11,9.03,0.00,-0.00,-0.00,0.00
2026-06-26 18:59:28.662,994.13,994.12,-1.21,-1.45,0.00,2.27,0.11,9.03,0.00,-0.00,-0.00,0.00
2026-06-26 18:59:28.665,994.13,994.12,-1.21,-1.45,0.00,2.27,0.11,9.03,0.00,-0.00,-0.00,0.00
2026-06-26 18:59:28.749,994.13,994.12,-0.95,-1.29,0.00,2.28,0.11,9.05,-0.00,0.00,-0.00,0.00
2026-06-26 18:59:28.750,994.13,994.12,-0.95,-1.29,0.00,2.26,0.13,9.03,-0.00,0.00,-0.00,0.00
2026-06-26 18:59:28.751,994.13,994.12,-0.95,-1.29,0.00,2.26,0.13,9.03,-0.00,0.00,-0.00,0.00
2026-06-26 18:59:28.753,994.13,994.12,-0.95,-1.29,0.00,2.26,0.13,9.03,-0.00,0.00,-0.00,0.00
2026-06-26 18:59:28.756,994.13,994.12,-0.95,-1.29,0.00,2.26,0.13,9.03,-0.00,0.00,-0.00,0.00
2026-06-26 18:59:28.759,994.13,994.12,-0.95,-1.29,0.00,2.26,0.13,9.03,0.00,-0.00,-0.00,0.00
2026-06-26 18:59:28.760,994.13,994.12,-0.95,-1.29,0.00,2.29,0.11,9.05,0.00,-0.00,-0.00,0.00
2026-06-26 18:59:28.762,994.13,994.12,-0.95,-1.29,0.00,2.29,0.11,9.05,0.00,-0.00,-0.00,0.00
2026-06-26 18:59:28.763,994.13,994.12,-0.95,-1.29,0.00,2.29,0.11,9.05,0.00,-0.00,-0.00,0.00
2026-06-26 18:59:28.766,994.13,994.12,-0.95,-1.29,0.00,2.29,0.11,9.05,0.00,-0.00,-0.00,0.00
2026-06-26 18:59:28.769,994.13,994.12,-0.95,-1.29,0.00,2.29,0.11,9.05,0.00,-0.00,0.00,0.00
2026-06-26 18:59:28.770,994.13,994.12,-0.95,-1.29,0.00,2.28,0.11,9.02,0.00,-0.00,0.00,0.00
2026-06-26 18:59:28.772,994.13,994.12,-0.95,-1.29,0.00,2.28,0.11,9.02,0.00,-0.00,0.00,0.00
2026-06-26 18:59:28.773,994.13,994.12,-0.95,-1.29,0.00,2.28,0.11,9.02,0.00,-0.00,0.00,0.00
2026-06-26 18:59:28.777,994.13,994.12,-0.95,-1.29,0.00,2.28,0.11,9.02,0.00,-0.00,0.00,0.00
2026-06-26 18:59:28.779,994.13,994.12,-0.95,-1.29,0.00,2.28,0.11,9.02,0.00,0.00,-0.00,0.00
2026-06-26 18:59:28.780,994.13,994.12,-0.95,-1.29,0.00,2.28,0.11,9.02,0.00,0.00,-0.00,0.00
2026-06-26 18:59:28.782,994.13,994.12,-0.95,-1.29,0.00,2.28,0.11,9.02,0.00,0.00,-0.00,0.00
2026-06-26 18:59:28.783,994.13,994.12,-0.95,-1.29,0.00,2.28,0.11,9.02,0.00,0.00,-0.00,0.00
2026-06-26 18:59:28.786,994.13,994.12,-0.95,-1.29,0.00,2.28,0.11,9.02,0.00,0.00,-0.00,0.00
2026-06-26 18:59:28.789,994.13,994.12,-0.95,-1.29,0.00,2.28,0.11,9.02,0.00,-0.00,0.00,0.00
2026-06-26 18:59:28.791,994.13,994.12,-0.95,-1.29,0.00,2.27,0.11,9.04,0.00,-0.00,0.00,0.00
2026-06-26 18:59:28.792,994.13,994.12,-0.95,-1.29,0.00,2.27,0.11,9.04,0.00,-0.00,0.00,0.00
2026-06-26 18:59:28.793,994.13,994.12,-0.95,-1.29,0.00,2.27,0.11,9.04,0.00,-0.00,0.00,0.00
2026-06-26 18:59:28.794,994.13,994.12,-0.95,-1.29,0.00,2.27,0.11,9.04,0.00,-0.00,0.00,0.00
2026-06-26 18:59:28.795,994.13,994.12,-0.95,-1.29,0.00,2.27,0.11,9.04,0.00,-0.00,0.00,0.00
2026-06-26 18:59:28.797,994.13,994.12,-0.95,-1.29,0.00,2.27,0.11,9.04,0.00,-0.00,0.00,0.00
2026-06-26 18:59:28.799,994.13,994.12,-0.95,-1.29,0.00,2.27,0.11,9.04,0.00,-0.00,0.00,0.00
2026-06-26 18:59:28.800,994.13,994.12,-0.95,-1.29,0.00,2.29,0.12,9.03,0.00,-0.00,0.00,0.00
2026-06-26 18:59:28.801,994.13,994.12,-0.95,-1.29,0.00,2.29,0.12,9.03,0.00,-0.00,0.00,0.00
2026-06-26 18:59:28.803,994.13,994.12,-0.95,-1.29,0.00,2.29,0.12,9.03,0.00,-0.00,0.00,0.00
2026-06-26 18:59:28.805,994.13,994.12,-0.95,-1.29,0.00,2.29,0.12,9.03,0.00,-0.00,0.00,0.00
2026-06-26 18:59:28.889,994.13,994.12,-1.15,-1.42,0.00,2.41,0.10,9.46,0.00,-0.00,0.00,0.00
2026-06-26 18:59:28.891,994.13,994.12,-1.15,-1.42,0.00,2.41,0.14,9.48,0.00,-0.00,0.00,0.00
2026-06-26 18:59:28.892,994.13,994.12,-1.15,-1.42,0.00,2.41,0.14,9.48,0.00,-0.00,0.00,0.00
2026-06-26 18:59:28.893,994.13,994.12,-1.15,-1.42,0.00,2.41,0.14,9.48,0.00,-0.00,0.00,0.00
2026-06-26 18:59:28.895,994.13,994.12,-1.15,-1.42,0.00,2.41,0.14,9.48,0.00,-0.00,0.00,0.00
2026-06-26 18:59:28.896,994.13,994.12,-1.15,-1.42,0.00,2.41,0.14,9.48,0.00,-0.00,0.00,0.00
2026-06-26 18:59:28.897,994.13,994.12,-1.15,-1.42,0.00,2.41,0.14,9.48,0.00,-0.00,0.00,0.00
2026-06-26 18:59:28.899,994.13,994.12,-1.15,-1.42,0.00,2.41,0.14,9.48,-0.00,0.00,-0.00,0.00
2026-06-26 18:59:28.901,994.13,994.12,-1.15,-1.42,0.00,2.41,0.11,9.48,-0.00,0.00,-0.00,0.00
2026-06-26 18:59:28.902,994.13,994.12,-1.15,-1.42,0.00,2.41,0.11,9.48,-0.00,0.00,-0.00,0.00
2026-06-26 18:59:28.903,994.13,994.12,-1.15,-1.42,0.00,2.41,0.11,9.48,-0.00,0.00,-0.00,0.00
2026-06-26 18:59:28.907,994.13,994.12,-1.15,-1.42,0.00,2.41,0.11,9.48,-0.00,0.00,-0.00,0.00
2026-06-26 18:59:28.910,994.13,994.12,-1.15,-1.42,0.00,2.41,0.11,9.48,0.00,-0.00,-0.00,0.00
2026-06-26 18:59:28.911,994.13,994.12,-1.15,-1.42,0.00,2.40,0.13,9.49,0.00,-0.00,-0.00,0.00
2026-06-26 18:59:28.912,994.13,994.12,-1.15,-1.42,0.00,2.40,0.13,9.49,0.00,-0.00,-0.00,0.00
2026-06-26 18:59:28.913,994.13,994.12,-1.15,-1.42,0.00,2.40,0.13,9.49,0.00,-0.00,-0.00,0.00
2026-06-26 18:59:28.918,994.13,994.12,-1.15,-1.42,0.00,2.40,0.13,9.49,0.00,-0.00,-0.00,0.00
2026-06-26 18:59:28.920,994.13,994.12,-1.15,-1.42,0.00,2.40,0.13,9.46,0.00,0.00,0.00,0.00
2026-06-26 18:59:28.921,994.13,994.12,-1.15,-1.42,0.00,2.40,0.13,9.46,0.00,0.00,0.00,0.00
2026-06-26 18:59:28.923,994.13,994.12,-1.15,-1.42,0.00,2.40,0.13,9.46,0.00,0.00,0.00,0.00
2026-06-26 18:59:28.926,994.13,994.12,-1.15,-1.42,0.00,2.40,0.13,9.46,0.00,0.00,0.00,0.00
2026-06-26 18:59:28.929,994.13,994.12,-1.15,-1.42,0.00,2.40,0.13,9.46,0.00,0.00,0.00,0.00
2026-06-26 18:59:28.931,994.13,994.12,-1.15,-1.42,0.00,2.41,0.12,9.48,0.00,0.00,0.00,0.00
2026-06-26 18:59:28.932,994.13,994.12,-1.15,-1.42,0.00,2.41,0.12,9.48,0.00,0.00,0.00,0.00
2026-06-26 18:59:28.933,994.13,994.12,-1.15,-1.42,0.00,2.41,0.12,9.48,0.00,0.00,0.00,0.00
2026-06-26 18:59:28.937,994.13,994.12,-1.15,-1.42,0.00,2.41,0.12,9.48,0.00,0.00,0.00,0.00
2026-06-26 18:59:28.940,994.13,994.12,-1.15,-1.42,0.00,2.41,0.12,9.48,0.00,-0.00,-0.00,0.00
2026-06-26 18:59:28.941,994.13,994.12,-1.15,-1.42,0.00,2.41,0.13,9.50,0.00,-0.00,-0.00,0.00
2026-06-26 18:59:28.942,994.13,994.12,-1.15,-1.42,0.00,2.41,0.13,9.50,0.00,-0.00,-0.00,0.00
2026-06-26 18:59:28.943,994.13,994.12,-1.15,-1.42,0.00,2.41,0.13,9.50,0.00,-0.00,-0.00,0.00
2026-06-26 18:59:28.945,994.13,994.12,-1.15,-1.42,0.00,2.41,0.13,9.50,0.00,-0.00,-0.00,0.00
2026-06-26 18:59:28.946,994.13,994.12,-1.15,-1.42,0.00,2.41,0.13,9.50,0.00,-0.00,-0.00,0.00
2026-06-26 18:59:29.030,994.13,994.12,-0.86,-1.23,0.00,2.40,0.12,9.46,0.00,0.00,0.00,0.00
2026-06-26 18:59:29.031,994.13,994.12,-0.86,-1.23,0.00,2.41,0.11,9.50,0.00,0.00,0.00,0.00
2026-06-26 18:59:29.032,994.13,994.12,-0.86,-1.23,0.00,2.41,0.11,9.50,0.00,0.00,0.00,0.00
2026-06-26 18:59:29.033,994.13,994.12,-0.86,-1.23,0.00,2.41,0.11,9.50,0.00,0.00,0.00,0.00
2026-06-26 18:59:29.037,994.13,994.12,-0.86,-1.23,0.00,2.41,0.11,9.50,0.00,0.00,0.00,0.00
2026-06-26 18:59:29.040,994.13,994.12,-0.86,-1.23,0.00,2.41,0.11,9.50,0.00,-0.00,0.00,0.00
2026-06-26 18:59:29.041,994.13,994.12,-0.86,-1.23,0.00,2.39,0.11,9.49,0.00,-0.00,0.00,0.00
2026-06-26 18:59:29.042,994.13,994.12,-0.86,-1.23,0.00,2.39,0.11,9.49,0.00,-0.00,0.00,0.00
2026-06-26 18:59:29.044,994.13,994.12,-0.86,-1.23,0.00,2.39,0.11,9.49,0.00,-0.00,0.00,0.00
2026-06-26 18:59:29.045,994.13,994.12,-0.86,-1.23,0.00,2.39,0.11,9.49,0.00,-0.00,0.00,0.00
2026-06-26 18:59:29.046,994.13,994.12,-0.86,-1.23,0.00,2.39,0.11,9.49,0.00,-0.00,0.00,0.00
2026-06-26 18:59:29.047,994.13,994.12,-0.86,-1.23,0.00,2.39,0.11,9.49,0.00,-0.00,0.00,0.00
2026-06-26 18:59:29.049,994.13,994.12,-0.86,-1.23,0.00,2.39,0.11,9.49,0.00,-0.00,0.00,0.00
2026-06-26 18:59:29.050,994.13,994.12,-0.86,-1.23,0.00,2.40,0.13,9.47,0.00,-0.00,-0.00,0.00
2026-06-26 18:59:29.051,994.13,994.12,-0.86,-1.23,0.00,2.40,0.13,9.47,0.00,-0.00,-0.00,0.00
2026-06-26 18:59:29.053,994.13,994.12,-0.86,-1.23,0.00,2.40,0.13,9.47,0.00,-0.00,-0.00,0.00
2026-06-26 18:59:29.054,994.13,994.12,-0.86,-1.23,0.00,2.40,0.13,9.47,0.00,-0.00,-0.00,0.00
2026-06-26 18:59:29.059,994.13,994.12,-0.86,-1.23,0.00,2.40,0.13,9.47,0.00,-0.00,-0.00,0.00
2026-06-26 18:59:29.060,994.13,994.12,-0.86,-1.23,0.00,2.38,0.13,9.48,0.00,-0.00,0.00,0.00
2026-06-26 18:59:29.061,994.13,994.12,-0.86,-1.23,0.00,2.38,0.13,9.48,0.00,-0.00,0.00,0.00
2026-06-26 18:59:29.063,994.13,994.12,-0.86,-1.23,0.00,2.38,0.13,9.48,0.00,-0.00,0.00,0.00
2026-06-26 18:59:29.064,994.13,994.12,-0.86,-1.23,0.00,2.38,0.13,9.48,0.00,-0.00,0.00,0.00
2026-06-26 18:59:29.069,994.13,994.12,-0.86,-1.23,0.00,2.38,0.13,9.48,0.00,-0.00,0.00,0.00
2026-06-26 18:59:29.070,994.13,994.12,-0.86,-1.23,0.00,2.40,0.13,9.48,0.00,-0.00,-0.00,0.00
2026-06-26 18:59:29.071,994.13,994.12,-0.86,-1.23,0.00,2.40,0.13,9.48,0.00,-0.00,-0.00,0.00
2026-06-26 18:59:29.073,994.13,994.12,-0.86,-1.23,0.00,2.40,0.13,9.48,0.00,-0.00,-0.00,0.00
2026-06-26 18:59:29.074,994.13,994.12,-0.86,-1.23,0.00,2.40,0.13,9.48,0.00,-0.00,-0.00,0.00
2026-06-26 18:59:29.079,994.13,994.12,-0.86,-1.23,0.00,2.40,0.13,9.48,0.00,-0.00,-0.00,0.00
2026-06-26 18:59:29.080,994.13,994.12,-0.86,-1.23,0.00,2.38,0.13,9.48,0.00,0.00,-0.00,0.00
2026-06-26 18:59:29.081,994.13,994.12,-0.86,-1.23,0.00,2.38,0.13,9.48,0.00,0.00,-0.00,0.00
2026-06-26 18:59:29.083,994.13,994.12,-0.86,-1.23,0.00,2.38,0.13,9.48,0.00,0.00,-0.00,0.00
2026-06-26 18:59:29.084,994.13,994.12,-0.86,-1.23,0.00,2.38,0.13,9.48,0.00,0.00,-0.00,0.00
2026-06-26 18:59:29.088,994.13,994.12,-0.86,-1.23,0.00,2.38,0.13,9.48,0.00,0.00,-0.00,0.00
2026-06-26 18:59:29.170,994.12,994.12,-0.68,-1.09,0.00,2.40,0.10,9.51,0.00,-0.00,0.00,0.00
2026-06-26 18:59:29.172,994.12,994.12,-0.68,-1.09,0.00,2.38,0.12,9.47,0.00,-0.00,0.00,0.00
2026-06-26 18:59:29.173,994.12,994.12,-0.68,-1.09,0.00,2.38,0.12,9.47,0.00,-0.00,0.00,0.00
2026-06-26 18:59:29.174,994.12,994.12,-0.68,-1.09,0.00,2.38,0.12,9.47,0.00,-0.00,0.00,0.00
2026-06-26 18:59:29.179,994.12,994.12,-0.68,-1.09,0.00,2.38,0.12,9.47,0.00,-0.00,0.00,0.00
2026-06-26 18:59:29.180,994.12,994.12,-0.68,-1.09,0.00,2.40,0.12,9.51,0.00,0.00,0.00,0.00
2026-06-26 18:59:29.182,994.12,994.12,-0.68,-1.09,0.00,2.40,0.12,9.51,0.00,0.00,0.00,0.00
2026-06-26 18:59:29.183,994.12,994.12,-0.68,-1.09,0.00,2.40,0.12,9.51,0.00,0.00,0.00,0.00
2026-06-26 18:59:29.184,994.12,994.12,-0.68,-1.09,0.00,2.40,0.12,9.51,0.00,0.00,0.00,0.00
2026-06-26 18:59:29.189,994.12,994.12,-0.68,-1.09,0.00,2.40,0.12,9.51,0.00,0.00,0.00,0.00
2026-06-26 18:59:29.191,994.12,994.12,-0.68,-1.09,0.00,2.40,0.14,9.50,0.00,-0.00,0.00,0.00
2026-06-26 18:59:29.192,994.12,994.12,-0.68,-1.09,0.00,2.40,0.14,9.50,0.00,-0.00,0.00,0.00
2026-06-26 18:59:29.193,994.12,994.12,-0.68,-1.09,0.00,2.40,0.14,9.50,0.00,-0.00,0.00,0.00
2026-06-26 18:59:29.194,994.12,994.12,-0.68,-1.09,0.00,2.40,0.14,9.50,0.00,-0.00,0.00,0.00
2026-06-26 18:59:29.195,994.12,994.12,-0.68,-1.09,0.00,2.40,0.14,9.50,0.00,-0.00,0.00,0.00
2026-06-26 18:59:29.197,994.12,994.12,-0.68,-1.09,0.00,2.40,0.14,9.50,0.00,-0.00,0.00,0.00
2026-06-26 18:59:29.198,994.12,994.12,-0.68,-1.09,0.00,2.40,0.14,9.50,0.00,-0.00,0.00,0.00
2026-06-26 18:59:29.200,994.12,994.12,-0.68,-1.09,0.00,2.40,0.14,9.50,0.00,-0.01,0.00,0.00
2026-06-26 18:59:29.202,994.12,994.12,-0.68,-1.09,0.00,2.39,0.12,9.50,0.00,-0.01,0.00,0.00
2026-06-26 18:59:29.203,994.12,994.12,-0.68,-1.09,0.00,2.39,0.12,9.50,0.00,-0.01,0.00,0.00
2026-06-26 18:59:29.204,994.12,994.12,-0.68,-1.09,0.00,2.39,0.12,9.50,0.00,-0.01,0.00,0.00
2026-06-26 18:59:29.207,994.12,994.12,-0.68,-1.09,0.00,2.39,0.12,9.50,0.00,-0.01,0.00,0.00
2026-06-26 18:59:29.210,994.12,994.12,-0.68,-1.09,0.00,2.39,0.12,9.50,0.00,0.00,0.00,0.00
2026-06-26 18:59:29.211,994.12,994.12,-0.68,-1.09,0.00,2.39,0.13,9.50,0.00,0.00,0.00,0.00
2026-06-26 18:59:29.213,994.12,994.12,-0.68,-1.09,0.00,2.39,0.13,9.50,0.00,0.00,0.00,0.00
2026-06-26 18:59:29.214,994.12,994.12,-0.68,-1.09,0.00,2.39,0.13,9.50,0.00,0.00,0.00,0.00
2026-06-26 18:59:29.217,994.12,994.12,-0.68,-1.09,0.00,2.39,0.13,9.50,0.00,0.00,0.00,0.00
2026-06-26 18:59:29.220,994.12,994.12,-0.68,-1.09,0.00,2.39,0.13,9.50,-0.00,-0.00,0.00,0.00
2026-06-26 18:59:29.221,994.12,994.12,-0.68,-1.09,0.00,2.41,0.11,9.47,-0.00,-0.00,0.00,0.00
2026-06-26 18:59:29.223,994.12,994.12,-0.68,-1.09,0.00,2.41,0.11,9.47,-0.00,-0.00,0.00,0.00
2026-06-26 18:59:29.224,994.12,994.12,-0.68,-1.09,0.00,2.41,0.11,9.47,-0.00,-0.00,0.00,0.00
2026-06-26 18:59:29.225,994.12,994.12,-0.68,-1.09,0.00,2.41,0.11,9.47,-0.00,-0.00,0.00,0.00
2026-06-26 18:59:29.230,994.12,994.12,-0.68,-1.09,0.00,2.41,0.11,9.47,-0.00,-0.00,0.00,0.00
2026-06-26 18:59:29.311,994.12,994.12,-0.10,-0.41,0.00,2.40,0.12,9.47,0.00,-0.01,0.00,0.00
2026-06-26 18:59:29.312,994.12,994.12,-0.10,-0.41,0.00,2.40,0.12,9.47,0.00,-0.01,0.00,0.00
2026-06-26 18:59:29.313,994.12,994.12,-0.10,-0.41,0.00,2.40,0.12,9.47,0.00,-0.01,0.00,0.00
2026-06-26 18:59:29.315,994.12,994.12,-0.10,-0.41,0.00,2.40,0.12,9.47,0.00,-0.01,0.00,0.00
2026-06-26 18:59:29.320,994.12,994.12,-0.10,-0.41,0.00,2.40,0.12,9.47,0.00,-0.01,0.00,0.00
2026-06-26 18:59:29.321,994.12,994.12,-0.10,-0.41,0.00,2.40,0.13,9.46,0.00,0.00,0.00,0.00
2026-06-26 18:59:29.322,994.12,994.12,-0.10,-0.41,0.00,2.40,0.13,9.46,0.00,0.00,0.00,0.00
2026-06-26 18:59:29.324,994.12,994.12,-0.10,-0.41,0.00,2.40,0.13,9.46,0.00,0.00,0.00,0.00
2026-06-26 18:59:29.325,994.12,994.12,-0.10,-0.41,0.00,2.40,0.13,9.46,0.00,0.00,0.00,0.00
2026-06-26 18:59:29.328,994.12,994.12,-0.10,-0.41,0.00,2.40,0.13,9.46,0.00,0.00,0.00,0.00
2026-06-26 18:59:29.330,994.12,994.12,-0.10,-0.41,0.00,2.40,0.13,9.46,0.00,-0.00,0.00,0.00
2026-06-26 18:59:29.332,994.12,994.12,-0.10,-0.41,0.00,2.40,0.12,9.49,0.00,-0.00,0.00,0.00
2026-06-26 18:59:29.333,994.12,994.12,-0.10,-0.41,0.00,2.40,0.12,9.49,0.00,-0.00,0.00,0.00
2026-06-26 18:59:29.334,994.12,994.12,-0.10,-0.41,0.00,2.40,0.12,9.49,0.00,-0.00,0.00,0.00
2026-06-26 18:59:29.338,994.12,994.12,-0.10,-0.41,0.00,2.40,0.12,9.49,0.00,-0.00,0.00,0.00
2026-06-26 18:59:29.341,994.12,994.12,-0.10,-0.41,0.00,2.40,0.12,9.49,0.00,0.00,0.00,0.00
2026-06-26 18:59:29.342,994.12,994.12,-0.10,-0.41,0.00,2.39,0.12,9.47,0.00,0.00,0.00,0.00
2026-06-26 18:59:29.343,994.12,994.12,-0.10,-0.41,0.00,2.39,0.12,9.47,0.00,0.00,0.00,0.00
2026-06-26 18:59:29.344,994.12,994.12,-0.10,-0.41,0.00,2.39,0.12,9.47,0.00,0.00,0.00,0.00
2026-06-26 18:59:29.345,994.12,994.12,-0.10,-0.41,0.00,2.39,0.12,9.47,0.00,0.00,0.00,0.00
2026-06-26 18:59:29.347,994.12,994.12,-0.10,-0.41,0.00,2.39,0.12,9.47,0.00,0.00,0.00,0.00
2026-06-26 18:59:29.348,994.12,994.12,-0.10,-0.41,0.00,2.39,0.12,9.47,0.00,0.00,0.00,0.00
2026-06-26 18:59:29.350,994.12,994.12,-0.10,-0.41,0.00,2.39,0.12,9.47,0.00,0.00,0.00,0.00
2026-06-26 18:59:29.352,994.12,994.12,-0.10,-0.41,0.00,2.38,0.10,9.50,0.00,0.00,0.00,0.00
2026-06-26 18:59:29.353,994.12,994.12,-0.10,-0.41,0.00,2.38,0.10,9.50,0.00,0.00,0.00,0.00
2026-06-26 18:59:29.354,994.12,994.12,-0.10,-0.41,0.00,2.38,0.10,9.50,0.00,0.00,0.00,0.00
2026-06-26 18:59:29.357,994.12,994.12,-0.10,-0.41,0.00,2.38,0.10,9.50,0.00,0.00,0.00,0.00
2026-06-26 18:59:29.360,994.12,994.12,-0.10,-0.41,0.00,2.38,0.10,9.50,0.00,0.00,0.00,0.00
2026-06-26 18:59:29.362,994.12,994.12,-0.10,-0.41,0.00,2.40,0.13,9.49,0.00,0.00,0.00,0.00
2026-06-26 18:59:29.363,994.12,994.12,-0.10,-0.41,0.00,2.40,0.13,9.49,0.00,0.00,0.00,0.00
2026-06-26 18:59:29.364,994.12,994.12,-0.10,-0.41,0.00,2.40,0.13,9.49,0.00,0.00,0.00,0.00
2026-06-26 18:59:29.367,994.12,994.12,-0.10,-0.41,0.00,2.40,0.13,9.49,0.00,0.00,0.00,0.00
2026-06-26 18:59:29.370,994.12,994.12,-0.10,-0.41,0.00,2.40,0.13,9.49,-0.00,0.00,0.00,0.00
2026-06-26 18:59:29.452,994.12,994.12,-0.27,-0.69,0.00,2.40,0.13,9.46,0.00,-0.00,0.00,0.00
2026-06-26 18:59:29.453,994.12,994.12,-0.27,-0.69,0.00,2.40,0.13,9.46,0.00,-0.00,0.00,0.00
2026-06-26 18:59:29.455,994.12,994.12,-0.27,-0.69,0.00,2.40,0.13,9.46,0.00,-0.00,0.00,0.00
2026-06-26 18:59:29.470,994.12,994.12,-0.27,-0.69,0.00,2.40,0.13,9.46,0.00,-0.00,0.00,0.00
2026-06-26 18:59:29.471,994.12,994.12,-0.27,-0.69,0.00,2.40,0.14,9.48,0.00,0.00,0.00,0.00
2026-06-26 18:59:29.472,994.12,994.12,-0.27,-0.69,0.00,2.40,0.14,9.48,0.00,0.00,0.00,0.00
2026-06-26 18:59:29.474,994.12,994.12,-0.27,-0.69,0.00,2.40,0.14,9.48,0.00,0.00,0.00,0.00
2026-06-26 18:59:29.475,994.12,994.12,-0.27,-0.69,0.00,2.40,0.14,9.48,0.00,0.00,0.00,0.00
2026-06-26 18:59:29.480,994.12,994.12,-0.27,-0.69,0.00,2.40,0.14,9.48,0.00,0.00,0.00,0.00
2026-06-26 18:59:29.481,994.12,994.12,-0.27,-0.69,0.00,2.41,0.13,9.51,0.00,0.00,0.00,0.00
2026-06-26 18:59:29.483,994.12,994.12,-0.27,-0.69,0.00,2.41,0.13,9.51,0.00,0.00,0.00,0.00
2026-06-26 18:59:29.484,994.12,994.12,-0.27,-0.69,0.00,2.41,0.13,9.51,0.00,0.00,0.00,0.00
2026-06-26 18:59:29.485,994.12,994.12,-0.27,-0.69,0.00,2.41,0.13,9.51,0.00,0.00,0.00,0.00
2026-06-26 18:59:29.490,994.12,994.12,-0.27,-0.69,0.00,2.41,0.13,9.51,0.00,0.00,0.00,0.00
2026-06-26 18:59:29.492,994.12,994.12,-0.27,-0.69,0.00,2.39,0.11,9.49,0.00,0.00,-0.00,0.00
2026-06-26 18:59:29.493,994.12,994.12,-0.27,-0.69,0.00,2.39,0.11,9.49,0.00,0.00,-0.00,0.00
2026-06-26 18:59:29.494,994.12,994.12,-0.27,-0.69,0.00,2.39,0.11,9.49,0.00,0.00,-0.00,0.00
2026-06-26 18:59:29.495,994.12,994.12,-0.27,-0.69,0.00,2.39,0.11,9.49,0.00,0.00,-0.00,0.00
2026-06-26 18:59:29.497,994.12,994.12,-0.27,-0.69,0.00,2.39,0.11,9.49,0.00,0.00,-0.00,0.00
2026-06-26 18:59:29.498,994.12,994.12,-0.27,-0.69,0.00,2.39,0.11,9.49,0.00,0.00,-0.00,0.00
2026-06-26 18:59:29.499,994.12,994.12,-0.27,-0.69,0.00,2.39,0.11,9.49,0.00,0.00,-0.00,0.00
2026-06-26 18:59:29.501,994.12,994.12,-0.27,-0.69,0.00,2.41,0.11,9.49,0.00,-0.00,0.00,0.00
2026-06-26 18:59:29.502,994.12,994.12,-0.27,-0.69,0.00,2.41,0.11,9.49,0.00,-0.00,0.00,0.00
2026-06-26 18:59:29.504,994.12,994.12,-0.27,-0.69,0.00,2.41,0.11,9.49,0.00,-0.00,0.00,0.00
2026-06-26 18:59:29.505,994.12,994.12,-0.27,-0.69,0.00,2.41,0.11,9.49,0.00,-0.00,0.00,0.00
2026-06-26 18:59:29.510,994.12,994.12,-0.27,-0.69,0.00,2.41,0.11,9.49,0.00,-0.00,0.00,0.00
2026-06-26 18:59:29.511,994.12,994.12,-0.27,-0.69,0.00,2.41,0.11,9.47,0.00,-0.00,0.00,0.00
2026-06-26 18:59:29.592,994.12,994.12,-0.44,-0.88,0.00,2.41,0.12,9.50,0.00,-0.00,-0.00,0.00
2026-06-26 18:59:29.594,994.12,994.12,-0.44,-0.88,0.00,2.41,0.12,9.50,0.00,-0.00,-0.00,0.00
2026-06-26 18:59:29.595,994.12,994.12,-0.44,-0.88,0.00,2.41,0.12,9.50,0.00,-0.00,-0.00,0.00
2026-06-26 18:59:29.596,994.12,994.12,-0.44,-0.88,0.00,2.41,0.12,9.50,0.00,-0.00,-0.00,0.00
2026-06-26 18:59:29.597,994.12,994.12,-0.44,-0.88,0.00,2.41,0.12,9.50,0.00,-0.00,-0.00,0.00
2026-06-26 18:59:29.598,994.12,994.12,-0.44,-0.88,0.00,2.41,0.12,9.50,0.00,-0.00,-0.00,0.00
2026-06-26 18:59:29.601,994.12,994.12,-0.44,-0.88,0.00,2.41,0.12,9.50,0.00,0.00,-0.00,0.00
2026-06-26 18:59:29.602,994.12,994.12,-0.44,-0.88,0.00,2.39,0.12,9.49,0.00,0.00,-0.00,0.00
2026-06-26 18:59:29.603,994.12,994.12,-0.44,-0.88,0.00,2.39,0.12,9.49,0.00,0.00,-0.00,0.00
2026-06-26 18:59:29.605,994.12,994.12,-0.44,-0.88,0.00,2.39,0.12,9.49,0.00,0.00,-0.00,0.00
2026-06-26 18:59:29.608,994.12,994.12,-0.44,-0.88,0.00,2.39,0.12,9.49,0.00,0.00,-0.00,0.00
2026-06-26 18:59:29.611,994.12,994.12,-0.44,-0.88,0.00,2.39,0.12,9.49,-0.00,-0.00,0.00,0.00
2026-06-26 18:59:29.612,994.12,994.12,-0.44,-0.88,0.00,2.40,0.11,9.47,-0.00,-0.00,0.00,0.00
2026-06-26 18:59:29.614,994.12,994.12,-0.44,-0.88,0.00,2.40,0.11,9.47,-0.00,-0.00,0.00,0.00
2026-06-26 18:59:29.615,994.12,994.12,-0.44,-0.88,0.00,2.40,0.11,9.47,-0.00,-0.00,0.00,0.00
2026-06-26 18:59:29.618,994.12,994.12,-0.44,-0.88,0.00,2.40,0.11,9.47,-0.00,-0.00,0.00,0.00
2026-06-26 18:59:29.621,994.12,994.12,-0.44,-0.88,0.00,2.40,0.11,9.47,0.00,-0.00,0.00,0.00
2026-06-26 18:59:29.622,994.12,994.12,-0.44,-0.88,0.00,2.40,0.12,9.49,0.00,-0.00,0.00,0.00
2026-06-26 18:59:29.623,994.12,994.12,-0.44,-0.88,0.00,2.40,0.12,9.49,0.00,-0.00,0.00,0.00
2026-06-26 18:59:29.625,994.12,994.12,-0.44,-0.88,0.00,2.40,0.12,9.49,0.00,-0.00,0.00,0.00
2026-06-26 18:59:29.626,994.12,994.12,-0.44,-0.88,0.00,2.40,0.12,9.49,0.00,-0.00,0.00,0.00
2026-06-26 18:59:29.630,994.12,994.12,-0.44,-0.88,0.00,2.40,0.12,9.49,0.00,-0.00,0.00,0.00
2026-06-26 18:59:29.632,994.12,994.12,-0.44,-0.88,0.00,2.39,0.13,9.50,0.00,0.00,-0.00,0.00
2026-06-26 18:59:29.633,994.12,994.12,-0.44,-0.88,0.00,2.39,0.13,9.50,0.00,0.00,-0.00,0.00
2026-06-26 18:59:29.634,994.12,994.12,-0.44,-0.88,0.00,2.39,0.13,9.50,0.00,0.00,-0.00,0.00
2026-06-26 18:59:29.635,994.12,994.12,-0.44,-0.88,0.00,2.39,0.13,9.50,0.00,0.00,-0.00,0.00
2026-06-26 18:59:29.641,994.12,994.12,-0.44,-0.88,0.00,2.39,0.13,9.50,0.00,0.00,-0.00,0.00
2026-06-26 18:59:29.642,994.12,994.12,-0.44,-0.88,0.00,2.39,0.12,9.51,0.00,-0.00,-0.00,0.00
2026-06-26 18:59:29.643,994.12,994.12,-0.44,-0.88,0.00,2.39,0.12,9.51,0.00,-0.00,-0.00,0.00
2026-06-26 18:59:29.644,994.12,994.12,-0.44,-0.88,0.00,2.39,0.12,9.51,0.00,-0.00,-0.00,0.00
2026-06-26 18:59:29.646,994.12,994.12,-0.44,-0.88,0.00,2.39,0.12,9.51,0.00,-0.00,-0.00,0.00
2026-06-26 18:59:29.647,994.12,994.12,-0.44,-0.88,0.00,2.39,0.12,9.51,0.00,-0.00,-0.00,0.00
2026-06-26 18:59:29.648,994.12,994.12,-0.44,-0.88,0.00,2.39,0.12,9.51,0.00,-0.00,-0.00,0.00
2026-06-26 18:59:29.650,994.12,994.12,-0.44,-0.88,0.00,2.39,0.12,9.51,0.00,-0.00,-0.00,0.00
2026-06-26 18:59:29.651,994.12,994.12,-0.44,-0.88,0.00,2.39,0.12,9.51,0.00,0.00,-0.00,0.00
2026-06-26 18:59:29.732,994.12,994.12,-0.42,-0.86,0.00,2.39,0.13,9.49,-0.00,-0.00,-0.00,0.00
2026-06-26 18:59:29.734,994.12,994.12,-0.42,-0.86,0.00,2.39,0.13,9.49,-0.00,-0.00,-0.00,0.00
2026-06-26 18:59:29.735,994.12,994.12,-0.42,-0.86,0.00,2.39,0.13,9.49,-0.00,-0.00,-0.00,0.00
2026-06-26 18:59:29.739,994.12,994.12,-0.42,-0.86,0.00,2.39,0.13,9.49,-0.00,-0.00,-0.00,0.00
2026-06-26 18:59:29.742,994.12,994.12,-0.42,-0.86,0.00,2.39,0.13,9.49,0.00,-0.00,-0.00,0.00
2026-06-26 18:59:29.743,994.12,994.12,-0.42,-0.86,0.00,2.39,0.11,9.49,0.00,-0.00,-0.00,0.00
2026-06-26 18:59:29.744,994.12,994.12,-0.42,-0.86,0.00,2.39,0.11,9.49,0.00,-0.00,-0.00,0.00
2026-06-26 18:59:29.745,994.12,994.12,-0.42,-0.86,0.00,2.39,0.11,9.49,0.00,-0.00,-0.00,0.00
2026-06-26 18:59:29.747,994.12,994.12,-0.42,-0.86,0.00,2.39,0.11,9.49,0.00,-0.00,-0.00,0.00
2026-06-26 18:59:29.748,994.12,994.12,-0.42,-0.86,0.00,2.39,0.11,9.49,0.00,-0.00,-0.00,0.00
2026-06-26 18:59:29.749,994.12,994.12,-0.42,-0.86,0.00,2.39,0.11,9.49,0.00,-0.00,-0.00,0.00
2026-06-26 18:59:29.751,994.12,994.12,-0.42,-0.86,0.00,2.39,0.11,9.49,0.00,0.00,-0.00,0.00
2026-06-26 18:59:29.753,994.12,994.12,-0.42,-0.86,0.00,2.41,0.13,9.50,0.00,0.00,-0.00,0.00
2026-06-26 18:59:29.754,994.12,994.12,-0.42,-0.86,0.00,2.41,0.13,9.50,0.00,0.00,-0.00,0.00
2026-06-26 18:59:29.755,994.12,994.12,-0.42,-0.86,0.00,2.41,0.13,9.50,0.00,0.00,-0.00,0.00
2026-06-26 18:59:29.758,994.12,994.12,-0.42,-0.86,0.00,2.41,0.13,9.50,0.00,0.00,-0.00,0.00
2026-06-26 18:59:29.761,994.12,994.12,-0.42,-0.86,0.00,2.41,0.13,9.50,0.00,-0.00,0.00,0.00
2026-06-26 18:59:29.763,994.12,994.12,-0.42,-0.86,0.00,2.39,0.12,9.48,0.00,-0.00,0.00,0.00
2026-06-26 18:59:29.764,994.12,994.12,-0.42,-0.86,0.00,2.39,0.12,9.48,0.00,-0.00,0.00,0.00
2026-06-26 18:59:29.765,994.12,994.12,-0.42,-0.86,0.00,2.39,0.12,9.48,0.00,-0.00,0.00,0.00
2026-06-26 18:59:29.768,994.12,994.12,-0.42,-0.86,0.00,2.39,0.12,9.48,0.00,-0.00,0.00,0.00
2026-06-26 18:59:29.771,994.12,994.12,-0.42,-0.86,0.00,2.39,0.12,9.48,-0.00,0.00,-0.00,0.00
2026-06-26 18:59:29.773,994.12,994.12,-0.42,-0.86,0.00,2.40,0.11,9.47,-0.00,0.00,-0.00,0.00
2026-06-26 18:59:29.774,994.12,994.12,-0.42,-0.86,0.00,2.40,0.11,9.47,-0.00,0.00,-0.00,0.00
2026-06-26 18:59:29.775,994.12,994.12,-0.42,-0.86,0.00,2.40,0.11,9.47,-0.00,0.00,-0.00,0.00
2026-06-26 18:59:29.779,994.12,994.12,-0.42,-0.86,0.00,2.40,0.11,9.47,-0.00,0.00,-0.00,0.00
2026-06-26 18:59:29.781,994.12,994.12,-0.42,-0.86,0.00,2.40,0.11,9.47,0.00,-0.00,0.00,0.00
2026-06-26 18:59:29.783,994.12,994.12,-0.42,-0.86,0.00,2.39,0.11,9.48,0.00,-0.00,0.00,0.00
2026-06-26 18:59:29.784,994.12,994.12,-0.42,-0.86,0.00,2.39,0.11,9.48,0.00,-0.00,0.00,0.00
2026-06-26 18:59:29.785,994.12,994.12,-0.42,-0.86,0.00,2.39,0.11,9.48,0.00,-0.00,0.00,0.00
2026-06-26 18:59:29.789,994.12,994.12,-0.42,-0.86,0.00,2.39,0.11,9.48,0.00,-0.00,0.00,0.00
2026-06-26 18:59:29.792,994.12,994.12,-0.42,-0.86,0.00,2.39,0.11,9.48,0.00,-0.00,0.00,0.00
2026-06-26 18:59:29.873,994.12,994.12,-0.17,-0.55,0.00,2.40,0.11,9.47,-0.00,-0.00,0.00,0.00
2026-06-26 18:59:29.875,994.12,994.12,-0.17,-0.55,0.00,2.40,0.11,9.47,-0.00,-0.00,0.00,0.00
2026-06-26 18:59:29.877,994.12,994.12,-0.17,-0.55,0.00,2.40,0.11,9.47,-0.00,-0.00,0.00,0.00
2026-06-26 18:59:29.881,994.12,994.12,-0.17,-0.55,0.00,2.40,0.11,9.47,-0.00,-0.00,0.00,0.00
2026-06-26 18:59:29.883,994.12,994.12,-0.17,-0.55,0.00,2.40,0.13,9.49,0.00,0.00,-0.00,0.00
2026-06-26 18:59:29.884,994.12,994.12,-0.17,-0.55,0.00,2.40,0.13,9.49,0.00,0.00,-0.00,0.00
2026-06-26 18:59:29.885,994.12,994.12,-0.17,-0.55,0.00,2.40,0.13,9.49,0.00,0.00,-0.00,0.00
2026-06-26 18:59:29.886,994.12,994.12,-0.17,-0.55,0.00,2.40,0.13,9.49,0.00,0.00,-0.00,0.00
2026-06-26 18:59:29.891,994.12,994.12,-0.17,-0.55,0.00,2.40,0.13,9.49,0.00,0.00,-0.00,0.00
2026-06-26 18:59:29.893,994.12,994.12,-0.17,-0.55,0.00,2.42,0.11,9.49,-0.00,0.00,0.00,0.00
2026-06-26 18:59:29.894,994.12,994.12,-0.17,-0.55,0.00,2.42,0.11,9.49,-0.00,0.00,0.00,0.00
2026-06-26 18:59:29.895,994.12,994.12,-0.17,-0.55,0.00,2.42,0.11,9.49,-0.00,0.00,0.00,0.00
2026-06-26 18:59:29.896,994.12,994.12,-0.17,-0.55,0.00,2.42,0.11,9.49,-0.00,0.00,0.00,0.00
2026-06-26 18:59:29.898,994.12,994.12,-0.17,-0.55,0.00,2.42,0.11,9.49,-0.00,0.00,0.00,0.00
2026-06-26 18:59:29.899,994.12,994.12,-0.17,-0.55,0.00,2.42,0.11,9.49,-0.00,0.00,0.00,0.00
2026-06-26 18:59:29.901,994.12,994.12,-0.17,-0.55,0.00,2.42,0.11,9.49,-0.00,0.00,0.00,0.00
2026-06-26 18:59:29.902,994.12,994.12,-0.17,-0.55,0.00,2.39,0.10,9.51,0.00,-0.00,0.00,0.00
2026-06-26 18:59:29.903,994.12,994.12,-0.17,-0.55,0.00,2.39,0.10,9.51,0.00,-0.00,0.00,0.00
2026-06-26 18:59:29.905,994.12,994.12,-0.17,-0.55,0.00,2.39,0.10,9.51,0.00,-0.00,0.00,0.00
2026-06-26 18:59:29.906,994.12,994.12,-0.17,-0.55,0.00,2.39,0.10,9.51,0.00,-0.00,0.00,0.00
2026-06-26 18:59:29.911,994.12,994.12,-0.17,-0.55,0.00,2.39,0.10,9.51,0.00,-0.00,0.00,0.00
2026-06-26 18:59:29.912,994.12,994.12,-0.17,-0.55,0.00,2.41,0.12,9.51,0.00,-0.00,0.00,0.00
2026-06-26 18:59:29.914,994.12,994.12,-0.17,-0.55,0.00,2.41,0.12,9.51,0.00,-0.00,0.00,0.00
2026-06-26 18:59:29.915,994.12,994.12,-0.17,-0.55,0.00,2.41,0.12,9.51,0.00,-0.00,0.00,0.00
2026-06-26 18:59:29.918,994.12,994.12,-0.17,-0.55,0.00,2.41,0.12,9.51,0.00,-0.00,0.00,0.00
2026-06-26 18:59:29.922,994.12,994.12,-0.17,-0.55,0.00,2.41,0.12,9.51,0.00,-0.00,0.00,0.00
2026-06-26 18:59:29.923,994.12,994.12,-0.17,-0.55,0.00,2.40,0.11,9.47,0.00,-0.00,0.00,0.00
2026-06-26 18:59:29.924,994.12,994.12,-0.17,-0.55,0.00,2.40,0.11,9.47,0.00,-0.00,0.00,0.00
2026-06-26 18:59:29.925,994.12,994.12,-0.17,-0.55,0.00,2.40,0.11,9.47,0.00,-0.00,0.00,0.00
2026-06-26 18:59:29.927,994.12,994.12,-0.17,-0.55,0.00,2.40,0.11,9.47,0.00,-0.00,0.00,0.00
2026-06-26 18:59:29.931,994.12,994.12,-0.17,-0.55,0.00,2.40,0.11,9.47,0.00,-0.00,0.00,0.00
2026-06-26 18:59:29.932,994.12,994.12,-0.17,-0.55,0.00,2.41,0.13,9.52,0.00,-0.00,0.00,0.00
2026-06-26 18:59:30.013,994.12,994.12,-0.37,-0.80,0.00,2.40,0.14,9.49,0.00,0.00,0.00,0.00
2026-06-26 18:59:30.015,994.12,994.12,-0.37,-0.80,0.00,2.40,0.14,9.49,0.00,0.00,0.00,0.00
2026-06-26 18:59:30.016,994.12,994.12,-0.37,-0.80,0.00,2.40,0.14,9.49,0.00,0.00,0.00,0.00
2026-06-26 18:59:30.021,994.12,994.12,-0.37,-0.80,0.00,2.40,0.14,9.49,0.00,0.00,0.00,0.00
2026-06-26 18:59:30.023,994.12,994.12,-0.37,-0.80,0.00,2.39,0.11,9.47,0.00,0.00,-0.00,0.00
2026-06-26 18:59:30.024,994.12,994.12,-0.37,-0.80,0.00,2.39,0.11,9.47,0.00,0.00,-0.00,0.00
2026-06-26 18:59:30.025,994.12,994.12,-0.37,-0.80,0.00,2.39,0.11,9.47,0.00,0.00,-0.00,0.00
2026-06-26 18:59:30.026,994.12,994.12,-0.37,-0.80,0.00,2.39,0.11,9.47,0.00,0.00,-0.00,0.00
2026-06-26 18:59:30.029,994.12,994.12,-0.37,-0.80,0.00,2.39,0.11,9.47,0.00,0.00,-0.00,0.00
2026-06-26 18:59:30.032,994.12,994.12,-0.37,-0.80,0.00,2.39,0.11,9.47,0.00,0.00,0.00,0.00
2026-06-26 18:59:30.033,994.12,994.12,-0.37,-0.80,0.00,2.43,0.12,9.47,0.00,0.00,0.00,0.00
2026-06-26 18:59:30.034,994.12,994.12,-0.37,-0.80,0.00,2.43,0.12,9.47,0.00,0.00,0.00,0.00
2026-06-26 18:59:30.036,994.12,994.12,-0.37,-0.80,0.00,2.43,0.12,9.47,0.00,0.00,0.00,0.00
2026-06-26 18:59:30.039,994.12,994.12,-0.37,-0.80,0.00,2.43,0.12,9.47,0.00,0.00,0.00,0.00
2026-06-26 18:59:30.042,994.12,994.12,-0.37,-0.80,0.00,2.43,0.12,9.47,0.00,-0.00,0.00,0.00
2026-06-26 18:59:30.043,994.12,994.12,-0.37,-0.80,0.00,2.41,0.12,9.51,0.00,-0.00,0.00,0.00
2026-06-26 18:59:30.045,994.12,994.12,-0.37,-0.80,0.00,2.41,0.12,9.51,0.00,-0.00,0.00,0.00
2026-06-26 18:59:30.046,994.12,994.12,-0.37,-0.80,0.00,2.41,0.12,9.51,0.00,-0.00,0.00,0.00
2026-06-26 18:59:30.047,994.12,994.12,-0.37,-0.80,0.00,2.41,0.12,9.51,0.00,-0.00,0.00,0.00
2026-06-26 18:59:30.048,994.12,994.12,-0.37,-0.80,0.00,2.41,0.12,9.51,0.00,-0.00,0.00,0.00
2026-06-26 18:59:30.049,994.12,994.12,-0.37,-0.80,0.00,2.41,0.12,9.51,0.00,-0.00,0.00,0.00
2026-06-26 18:59:30.051,994.12,994.12,-0.37,-0.80,0.00,2.41,0.12,9.51,0.00,-0.00,0.00,0.00
2026-06-26 18:59:30.052,994.12,994.12,-0.37,-0.80,0.00,2.40,0.14,9.50,0.00,-0.00,0.00,0.00
2026-06-26 18:59:30.054,994.12,994.12,-0.37,-0.80,0.00,2.40,0.14,9.50,0.00,-0.00,0.00,0.00
2026-06-26 18:59:30.055,994.12,994.12,-0.37,-0.80,0.00,2.40,0.14,9.50,0.00,-0.00,0.00,0.00
2026-06-26 18:59:30.056,994.12,994.12,-0.37,-0.80,0.00,2.40,0.14,9.50,0.00,-0.00,0.00,0.00
2026-06-26 18:59:30.061,994.12,994.12,-0.37,-0.80,0.00,2.40,0.14,9.50,0.00,-0.00,0.00,0.00
2026-06-26 18:59:30.062,994.12,994.12,-0.37,-0.80,0.00,2.40,0.12,9.49,0.00,-0.00,-0.00,0.00
2026-06-26 18:59:30.064,994.12,994.12,-0.37,-0.80,0.00,2.40,0.12,9.49,0.00,-0.00,-0.00,0.00
2026-06-26 18:59:30.065,994.12,994.12,-0.37,-0.80,0.00,2.40,0.12,9.49,0.00,-0.00,-0.00,0.00
2026-06-26 18:59:30.066,994.12,994.12,-0.37,-0.80,0.00,2.40,0.12,9.49,0.00,-0.00,-0.00,0.00
2026-06-26 18:59:30.071,994.12,994.12,-0.37,-0.80,0.00,2.40,0.12,9.49,0.00,-0.00,-0.00,0.00
2026-06-26 18:59:30.073,994.12,994.12,-0.37,-0.80,0.00,2.40,0.12,9.48,0.00,-0.00,0.00,0.00
2026-06-26 18:59:30.153,994.12,994.12,-0.37,-0.81,0.00,2.40,0.13,9.51,0.00,0.00,0.00,0.00
2026-06-26 18:59:30.155,994.12,994.12,-0.37,-0.81,0.00,2.40,0.13,9.51,0.00,0.00,0.00,0.00
2026-06-26 18:59:30.156,994.12,994.12,-0.37,-0.81,0.00,2.40,0.13,9.51,0.00,0.00,0.00,0.00
2026-06-26 18:59:30.161,994.12,994.12,-0.37,-0.81,0.00,2.40,0.13,9.51,0.00,0.00,0.00,0.00
2026-06-26 18:59:30.163,994.12,994.12,-0.37,-0.81,0.00,2.42,0.13,9.49,-0.00,-0.00,-0.00,0.00
2026-06-26 18:59:30.164,994.12,994.12,-0.37,-0.81,0.00,2.42,0.13,9.49,-0.00,-0.00,-0.00,0.00
2026-06-26 18:59:30.165,994.12,994.12,-0.37,-0.81,0.00,2.42,0.13,9.49,-0.00,-0.00,-0.00,0.00
2026-06-26 18:59:30.166,994.12,994.12,-0.37,-0.81,0.00,2.42,0.13,9.49,-0.00,-0.00,-0.00,0.00
2026-06-26 18:59:30.172,994.12,994.12,-0.37,-0.81,0.00,2.42,0.13,9.49,-0.00,-0.00,-0.00,0.00
2026-06-26 18:59:30.173,994.12,994.12,-0.37,-0.81,0.00,2.40,0.14,9.49,-0.00,0.00,0.00,0.00
2026-06-26 18:59:30.174,994.12,994.12,-0.37,-0.81,0.00,2.40,0.14,9.49,-0.00,0.00,0.00,0.00
2026-06-26 18:59:30.175,994.12,994.12,-0.37,-0.81,0.00,2.40,0.14,9.49,-0.00,0.00,0.00,0.00
2026-06-26 18:59:30.177,994.12,994.12,-0.37,-0.81,0.00,2.40,0.14,9.49,-0.00,0.00,0.00,0.00
2026-06-26 18:59:30.182,994.12,994.12,-0.37,-0.81,0.00,2.40,0.14,9.49,-0.00,0.00,0.00,0.00
2026-06-26 18:59:30.183,994.12,994.12,-0.37,-0.81,0.00,2.40,0.12,9.48,0.00,0.01,0.00,0.00
2026-06-26 18:59:30.184,994.12,994.12,-0.37,-0.81,0.00,2.40,0.12,9.48,0.00,0.01,0.00,0.00
2026-06-26 18:59:30.185,994.12,994.12,-0.37,-0.81,0.00,2.40,0.12,9.48,0.00,0.01,0.00,0.00
2026-06-26 18:59:30.187,994.12,994.12,-0.37,-0.81,0.00,2.40,0.12,9.48,0.00,0.01,0.00,0.00
2026-06-26 18:59:30.192,994.12,994.12,-0.37,-0.81,0.00,2.40,0.12,9.48,0.00,0.01,0.00,0.00
2026-06-26 18:59:30.193,994.12,994.12,-0.37,-0.81,0.00,2.40,0.14,9.49,0.00,0.00,0.00,0.00
2026-06-26 18:59:30.194,994.12,994.12,-0.37,-0.81,0.00,2.40,0.14,9.49,0.00,0.00,0.00,0.00
2026-06-26 18:59:30.196,994.12,994.12,-0.37,-0.81,0.00,2.40,0.14,9.49,0.00,0.00,0.00,0.00
2026-06-26 18:59:30.197,994.12,994.12,-0.37,-0.81,0.00,2.40,0.14,9.49,0.00,0.00,0.00,0.00
2026-06-26 18:59:30.198,994.12,994.12,-0.37,-0.81,0.00,2.40,0.14,9.49,0.00,0.00,0.00,0.00
2026-06-26 18:59:30.199,994.12,994.12,-0.37,-0.81,0.00,2.40,0.14,9.49,0.00,0.00,0.00,0.00
2026-06-26 18:59:30.202,994.12,994.12,-0.37,-0.81,0.00,2.40,0.14,9.49,0.00,0.00,0.00,0.00
2026-06-26 18:59:30.203,994.12,994.12,-0.37,-0.81,0.00,2.40,0.12,9.48,-0.00,0.00,0.00,0.00
2026-06-26 18:59:30.204,994.12,994.12,-0.37,-0.81,0.00,2.40,0.12,9.48,-0.00,0.00,0.00,0.00
2026-06-26 18:59:30.205,994.12,994.12,-0.37,-0.81,0.00,2.40,0.12,9.48,-0.00,0.00,0.00,0.00
2026-06-26 18:59:30.207,994.12,994.12,-0.37,-0.81,0.00,2.40,0.12,9.48,-0.00,0.00,0.00,0.00
2026-06-26 18:59:30.212,994.12,994.12,-0.37,-0.81,0.00,2.40,0.12,9.48,-0.00,0.00,0.00,0.00
2026-06-26 18:59:30.213,994.12,994.12,-0.37,-0.81,0.00,2.40,0.12,9.48,0.00,0.00,-0.00,0.00
2026-06-26 18:59:30.294,994.12,994.12,0.06,0.33,0.00,2.41,0.09,9.47,0.00,-0.00,0.00,0.00
2026-06-26 18:59:30.295,994.12,994.12,0.06,0.33,0.00,2.41,0.09,9.47,0.00,-0.00,0.00,0.00
2026-06-26 18:59:30.297,994.12,994.12,0.06,0.33,0.00,2.41,0.09,9.47,0.00,-0.00,0.00,0.00
2026-06-26 18:59:30.298,994.12,994.12,0.06,0.33,0.00,2.41,0.09,9.47,0.00,-0.00,0.00,0.00
2026-06-26 18:59:30.299,994.12,994.12,0.06,0.33,0.00,2.41,0.09,9.47,0.00,-0.00,0.00,0.00
2026-06-26 18:59:30.300,994.12,994.12,0.06,0.33,0.00,2.41,0.09,9.47,0.00,-0.00,0.00,0.00
2026-06-26 18:59:30.303,994.12,994.12,0.06,0.33,0.00,2.41,0.09,9.47,0.00,-0.00,-0.00,0.00
2026-06-26 18:59:30.304,994.12,994.12,0.06,0.33,0.00,2.40,0.12,9.50,0.00,-0.00,-0.00,0.00
2026-06-26 18:59:30.305,994.12,994.12,0.06,0.33,0.00,2.40,0.12,9.50,0.00,-0.00,-0.00,0.00
2026-06-26 18:59:30.306,994.12,994.12,0.06,0.33,0.00,2.40,0.12,9.50,0.00,-0.00,-0.00,0.00
2026-06-26 18:59:30.310,994.12,994.12,0.06,0.33,0.00,2.40,0.12,9.50,0.00,-0.00,-0.00,0.00
2026-06-26 18:59:30.313,994.12,994.12,0.06,0.33,0.00,2.40,0.12,9.50,0.00,-0.00,0.00,0.00
2026-06-26 18:59:30.314,994.12,994.12,0.06,0.33,0.00,2.40,0.11,9.49,0.00,-0.00,0.00,0.00
2026-06-26 18:59:30.315,994.12,994.12,0.06,0.33,0.00,2.40,0.11,9.49,0.00,-0.00,0.00,0.00
2026-06-26 18:59:30.316,994.12,994.12,0.06,0.33,0.00,2.40,0.11,9.49,0.00,-0.00,0.00,0.00
2026-06-26 18:59:30.320,994.12,994.12,0.06,0.33,0.00,2.40,0.11,9.49,0.00,-0.00,0.00,0.00
2026-06-26 18:59:30.323,994.12,994.12,0.06,0.33,0.00,2.40,0.11,9.49,0.00,0.00,-0.00,0.00
2026-06-26 18:59:30.324,994.12,994.12,0.06,0.33,0.00,2.38,0.14,9.48,0.00,0.00,-0.00,0.00
2026-06-26 18:59:30.325,994.12,994.12,0.06,0.33,0.00,2.38,0.14,9.48,0.00,0.00,-0.00,0.00
2026-06-26 18:59:30.326,994.12,994.12,0.06,0.33,0.00,2.38,0.14,9.48,0.00,0.00,-0.00,0.00
2026-06-26 18:59:30.328,994.12,994.12,0.06,0.33,0.00,2.38,0.14,9.48,0.00,0.00,-0.00,0.00
2026-06-26 18:59:30.332,994.12,994.12,0.06,0.33,0.00,2.38,0.14,9.48,0.00,0.00,-0.00,0.00
2026-06-26 18:59:30.333,994.12,994.12,0.06,0.33,0.00,2.38,0.12,9.47,-0.00,0.00,0.00,0.00
2026-06-26 18:59:30.334,994.12,994.12,0.06,0.33,0.00,2.38,0.12,9.47,-0.00,0.00,0.00,0.00
2026-06-26 18:59:30.336,994.12,994.12,0.06,0.33,0.00,2.38,0.12,9.47,-0.00,0.00,0.00,0.00
2026-06-26 18:59:30.337,994.12,994.12,0.06,0.33,0.00,2.38,0.12,9.47,-0.00,0.00,0.00,0.00
2026-06-26 18:59:30.342,994.12,994.12,0.06,0.33,0.00,2.38,0.12,9.47,-0.00,0.00,0.00,0.00
2026-06-26 18:59:30.343,994.12,994.12,0.06,0.33,0.00,2.38,0.15,9.47,0.00,0.00,-0.00,0.00
2026-06-26 18:59:30.345,994.12,994.12,0.06,0.33,0.00,2.38,0.15,9.47,0.00,0.00,-0.00,0.00
2026-06-26 18:59:30.346,994.12,994.12,0.06,0.33,0.00,2.38,0.15,9.47,0.00,0.00,-0.00,0.00
2026-06-26 18:59:30.347,994.12,994.12,0.06,0.33,0.00,2.38,0.15,9.47,0.00,0.00,-0.00,0.00
2026-06-26 18:59:30.348,994.12,994.12,0.06,0.33,0.00,2.38,0.15,9.47,0.00,0.00,-0.00,0.00
2026-06-26 18:59:30.349,994.12,994.12,0.06,0.33,0.00,2.38,0.15,9.47,0.00,0.00,-0.00,0.00
2026-06-26 18:59:30.351,994.12,994.12,0.06,0.33,0.00,2.38,0.15,9.47,0.00,0.00,-0.00,0.00
2026-06-26 18:59:30.353,994.12,994.12,0.06,0.33,0.00,2.38,0.12,9.47,0.00,0.00,0.00,0.00
2026-06-26 18:59:30.354,994.12,994.12,0.06,0.33,0.00,2.38,0.12,9.47,0.00,0.00,0.00,0.00
2026-06-26 18:59:30.435,994.12,994.12,-0.11,-0.44,0.00,2.40,0.11,9.51,0.00,0.01,0.00,0.00
2026-06-26 18:59:30.439,994.12,994.12,-0.11,-0.44,0.00,2.40,0.11,9.51,0.00,0.01,0.00,0.00
2026-06-26 18:59:30.443,994.12,994.12,-0.11,-0.44,0.00,2.40,0.11,9.51,0.00,0.00,-0.00,0.00
2026-06-26 18:59:30.444,994.12,994.12,-0.11,-0.44,0.00,2.41,0.12,9.46,0.00,0.00,-0.00,0.00
2026-06-26 18:59:30.445,994.12,994.12,-0.11,-0.44,0.00,2.41,0.12,9.46,0.00,0.00,-0.00,0.00
2026-06-26 18:59:30.447,994.12,994.12,-0.11,-0.44,0.00,2.41,0.12,9.46,0.00,0.00,-0.00,0.00
2026-06-26 18:59:30.448,994.12,994.12,-0.11,-0.44,0.00,2.41,0.12,9.46,0.00,0.00,-0.00,0.00
2026-06-26 18:59:30.449,994.12,994.12,-0.11,-0.44,0.00,2.41,0.12,9.46,0.00,0.00,-0.00,0.00
2026-06-26 18:59:30.450,994.12,994.12,-0.11,-0.44,0.00,2.41,0.12,9.46,0.00,0.00,-0.00,0.00
2026-06-26 18:59:30.453,994.12,994.12,-0.11,-0.44,0.00,2.41,0.12,9.46,-0.00,0.00,0.00,0.00
2026-06-26 18:59:30.454,994.12,994.12,-0.11,-0.44,0.00,2.40,0.14,9.50,-0.00,0.00,0.00,0.00
2026-06-26 18:59:30.455,994.12,994.12,-0.11,-0.44,0.00,2.40,0.14,9.50,-0.00,0.00,0.00,0.00
2026-06-26 18:59:30.456,994.12,994.12,-0.11,-0.44,0.00,2.40,0.14,9.50,-0.00,0.00,0.00,0.00
2026-06-26 18:59:30.458,994.12,994.12,-0.11,-0.44,0.00,2.40,0.14,9.50,-0.00,0.00,0.00,0.00
2026-06-26 18:59:30.463,994.12,994.12,-0.11,-0.44,0.00,2.40,0.14,9.50,0.00,0.00,0.00,0.00
2026-06-26 18:59:30.464,994.12,994.12,-0.11,-0.44,0.00,2.39,0.14,9.50,0.00,0.00,0.00,0.00
2026-06-26 18:59:30.465,994.12,994.12,-0.11,-0.44,0.00,2.39,0.14,9.50,0.00,0.00,0.00,0.00
2026-06-26 18:59:30.466,994.12,994.12,-0.11,-0.44,0.00,2.39,0.14,9.50,0.00,0.00,0.00,0.00
2026-06-26 18:59:30.469,994.12,994.12,-0.11,-0.44,0.00,2.39,0.14,9.50,0.00,0.00,0.00,0.00
2026-06-26 18:59:30.473,994.12,994.12,-0.11,-0.44,0.00,2.39,0.14,9.50,0.00,0.00,0.00,0.00
2026-06-26 18:59:30.474,994.12,994.12,-0.11,-0.44,0.00,2.40,0.11,9.49,0.00,0.00,0.00,0.00
2026-06-26 18:59:30.475,994.12,994.12,-0.11,-0.44,0.00,2.40,0.11,9.49,0.00,0.00,0.00,0.00
2026-06-26 18:59:30.476,994.12,994.12,-0.11,-0.44,0.00,2.40,0.11,9.49,0.00,0.00,0.00,0.00
2026-06-26 18:59:30.479,994.12,994.12,-0.11,-0.44,0.00,2.40,0.11,9.49,0.00,0.00,0.00,0.00
2026-06-26 18:59:30.483,994.12,994.12,-0.11,-0.44,0.00,2.40,0.11,9.49,-0.00,0.00,0.00,0.00
2026-06-26 18:59:30.484,994.12,994.12,-0.11,-0.44,0.00,2.41,0.11,9.49,-0.00,0.00,0.00,0.00
2026-06-26 18:59:30.485,994.12,994.12,-0.11,-0.44,0.00,2.41,0.11,9.49,-0.00,0.00,0.00,0.00
2026-06-26 18:59:30.486,994.12,994.12,-0.11,-0.44,0.00,2.41,0.11,9.49,-0.00,0.00,0.00,0.00
2026-06-26 18:59:30.489,994.12,994.12,-0.11,-0.44,0.00,2.41,0.11,9.49,-0.00,0.00,0.00,0.00
2026-06-26 18:59:30.493,994.12,994.12,-0.11,-0.44,0.00,2.41,0.11,9.49,0.00,-0.00,-0.00,0.00
2026-06-26 18:59:30.494,994.12,994.12,-0.11,-0.44,0.00,2.40,0.12,9.50,0.00,-0.00,-0.00,0.00
2026-06-26 18:59:30.575,994.12,994.12,-0.05,-0.28,0.00,2.40,0.13,9.47,0.00,0.00,-0.00,0.00
2026-06-26 18:59:30.577,994.12,994.12,-0.05,-0.28,0.00,2.40,0.13,9.47,0.00,0.00,-0.00,0.00
2026-06-26 18:59:30.581,994.12,994.12,-0.05,-0.28,0.00,2.40,0.13,9.47,0.00,0.00,-0.00,0.00
2026-06-26 18:59:30.583,994.12,994.12,-0.05,-0.28,0.00,2.39,0.13,9.50,0.00,0.00,0.00,0.00
2026-06-26 18:59:30.585,994.12,994.12,-0.05,-0.28,0.00,2.39,0.13,9.50,0.00,0.00,0.00,0.00
2026-06-26 18:59:30.586,994.12,994.12,-0.05,-0.28,0.00,2.39,0.13,9.50,0.00,0.00,0.00,0.00
2026-06-26 18:59:30.587,994.12,994.12,-0.05,-0.28,0.00,2.39,0.13,9.50,0.00,0.00,0.00,0.00
2026-06-26 18:59:30.591,994.12,994.12,-0.05,-0.28,0.00,2.39,0.13,9.50,0.00,0.00,0.00,0.00
2026-06-26 18:59:30.593,994.12,994.12,-0.05,-0.28,0.00,2.39,0.13,9.50,0.00,-0.00,-0.00,0.00
2026-06-26 18:59:30.595,994.12,994.12,-0.05,-0.28,0.00,2.38,0.12,9.49,0.00,-0.00,-0.00,0.00
2026-06-26 18:59:30.596,994.12,994.12,-0.05,-0.28,0.00,2.38,0.12,9.49,0.00,-0.00,-0.00,0.00
2026-06-26 18:59:30.597,994.12,994.12,-0.05,-0.28,0.00,2.38,0.12,9.49,0.00,-0.00,-0.00,0.00
2026-06-26 18:59:30.598,994.12,994.12,-0.05,-0.28,0.00,2.38,0.12,9.49,0.00,-0.00,-0.00,0.00
2026-06-26 18:59:30.600,994.12,994.12,-0.05,-0.28,0.00,2.38,0.12,9.49,0.00,-0.00,-0.00,0.00
2026-06-26 18:59:30.601,994.12,994.12,-0.05,-0.28,0.00,2.38,0.12,9.49,0.00,-0.00,-0.00,0.00
2026-06-26 18:59:30.603,994.12,994.12,-0.05,-0.28,0.00,2.38,0.12,9.49,-0.00,0.00,0.00,0.00
2026-06-26 18:59:30.604,994.12,994.12,-0.05,-0.28,0.00,2.39,0.11,9.49,-0.00,0.00,0.00,0.00
2026-06-26 18:59:30.606,994.12,994.12,-0.05,-0.28,0.00,2.39,0.11,9.49,-0.00,0.00,0.00,0.00
2026-06-26 18:59:30.608,994.12,994.12,-0.05,-0.28,0.00,2.39,0.11,9.49,-0.00,0.00,0.00,0.00
2026-06-26 18:59:30.613,994.12,994.12,-0.05,-0.28,0.00,2.39,0.11,9.49,-0.00,0.00,0.00,0.00
2026-06-26 18:59:30.614,994.12,994.12,-0.05,-0.28,0.00,2.40,0.09,9.47,0.00,0.00,0.00,0.00
2026-06-26 18:59:30.615,994.12,994.12,-0.05,-0.28,0.00,2.40,0.09,9.47,0.00,0.00,0.00,0.00
2026-06-26 18:59:30.616,994.12,994.12,-0.05,-0.28,0.00,2.40,0.09,9.47,0.00,0.00,0.00,0.00
2026-06-26 18:59:30.619,994.12,994.12,-0.05,-0.28,0.00,2.40,0.09,9.47,0.00,0.00,0.00,0.00
2026-06-26 18:59:30.623,994.12,994.12,-0.05,-0.28,0.00,2.40,0.09,9.47,-0.00,-0.00,0.00,0.00
2026-06-26 18:59:30.624,994.12,994.12,-0.05,-0.28,0.00,2.40,0.12,9.45,-0.00,-0.00,0.00,0.00
2026-06-26 18:59:30.626,994.12,994.12,-0.05,-0.28,0.00,2.40,0.12,9.45,-0.00,-0.00,0.00,0.00
2026-06-26 18:59:30.627,994.12,994.12,-0.05,-0.28,0.00,2.40,0.12,9.45,-0.00,-0.00,0.00,0.00
2026-06-26 18:59:30.628,994.12,994.12,-0.05,-0.28,0.00,2.40,0.12,9.45,-0.00,-0.00,0.00,0.00
2026-06-26 18:59:30.631,994.12,994.12,-0.05,-0.28,0.00,2.40,0.12,9.45,-0.00,-0.00,0.00,0.00
2026-06-26 18:59:30.633,994.12,994.12,-0.05,-0.28,0.00,2.41,0.11,9.47,0.00,0.00,-0.00,0.00
2026-06-26 18:59:30.635,994.12,994.12,-0.05,-0.28,0.00,2.41,0.11,9.47,0.00,0.00,-0.00,0.00
2026-06-26 18:59:30.716,994.12,994.12,-0.12,-0.46,0.00,2.39,0.11,9.48,-0.00,-0.00,0.00,0.00
2026-06-26 18:59:30.717,994.12,994.12,-0.12,-0.46,0.00,2.39,0.11,9.48,-0.00,-0.00,0.00,0.00
2026-06-26 18:59:30.721,994.12,994.12,-0.12,-0.46,0.00,2.39,0.11,9.48,-0.00,-0.00,0.00,0.00
2026-06-26 18:59:30.724,994.12,994.12,-0.12,-0.46,0.00,2.39,0.11,9.48,-0.00,0.00,0.00,0.00
2026-06-26 18:59:30.725,994.12,994.12,-0.12,-0.46,0.00,2.38,0.12,9.48,-0.00,0.00,0.00,0.00
2026-06-26 18:59:30.726,994.12,994.12,-0.12,-0.46,0.00,2.38,0.12,9.48,-0.00,0.00,0.00,0.00
2026-06-26 18:59:30.727,994.12,994.12,-0.12,-0.46,0.00,2.38,0.12,9.48,-0.00,0.00,0.00,0.00
2026-06-26 18:59:30.728,994.12,994.12,-0.12,-0.46,0.00,2.38,0.12,9.48,-0.00,0.00,0.00,0.00
2026-06-26 18:59:30.733,994.12,994.12,-0.12,-0.46,0.00,2.38,0.12,9.48,-0.00,0.00,0.00,0.00
2026-06-26 18:59:30.734,994.12,994.12,-0.12,-0.46,0.00,2.40,0.12,9.48,-0.00,-0.00,-0.00,0.00
2026-06-26 18:59:30.735,994.12,994.12,-0.12,-0.46,0.00,2.40,0.12,9.48,-0.00,-0.00,-0.00,0.00
2026-06-26 18:59:30.737,994.12,994.12,-0.12,-0.46,0.00,2.40,0.12,9.48,-0.00,-0.00,-0.00,0.00
2026-06-26 18:59:30.738,994.12,994.12,-0.12,-0.46,0.00,2.40,0.12,9.48,-0.00,-0.00,-0.00,0.00
2026-06-26 18:59:30.743,994.12,994.12,-0.12,-0.46,0.00,2.40,0.12,9.48,-0.00,-0.00,-0.00,0.00
2026-06-26 18:59:30.744,994.12,994.12,-0.12,-0.46,0.00,2.40,0.13,9.50,0.00,0.00,0.00,0.00
2026-06-26 18:59:30.745,994.12,994.12,-0.12,-0.46,0.00,2.40,0.13,9.50,0.00,0.00,0.00,0.00
2026-06-26 18:59:30.747,994.12,994.12,-0.12,-0.46,0.00,2.40,0.13,9.50,0.00,0.00,0.00,0.00
2026-06-26 18:59:30.748,994.12,994.12,-0.12,-0.46,0.00,2.40,0.13,9.50,0.00,0.00,0.00,0.00
2026-06-26 18:59:30.749,994.12,994.12,-0.12,-0.46,0.00,2.40,0.13,9.50,0.00,0.00,0.00,0.00
2026-06-26 18:59:30.750,994.12,994.12,-0.12,-0.46,0.00,2.40,0.13,9.50,0.00,0.00,0.00,0.00
2026-06-26 18:59:30.751,994.12,994.12,-0.12,-0.46,0.00,2.40,0.13,9.50,0.00,0.00,0.00,0.00
2026-06-26 18:59:30.754,994.12,994.12,-0.12,-0.46,0.00,2.40,0.13,9.50,-0.00,0.00,0.00,0.00
2026-06-26 18:59:30.755,994.12,994.12,-0.12,-0.46,0.00,2.41,0.12,9.49,-0.00,0.00,0.00,0.00
2026-06-26 18:59:30.756,994.12,994.12,-0.12,-0.46,0.00,2.41,0.12,9.49,-0.00,0.00,0.00,0.00
2026-06-26 18:59:30.757,994.12,994.12,-0.12,-0.46,0.00,2.41,0.12,9.49,-0.00,0.00,0.00,0.00
2026-06-26 18:59:30.761,994.12,994.12,-0.12,-0.46,0.00,2.41,0.12,9.49,-0.00,0.00,0.00,0.00
2026-06-26 18:59:30.764,994.12,994.12,-0.12,-0.46,0.00,2.41,0.12,9.49,-0.00,-0.00,0.00,0.00
2026-06-26 18:59:30.765,994.12,994.12,-0.12,-0.46,0.00,2.39,0.14,9.50,-0.00,-0.00,0.00,0.00
2026-06-26 18:59:30.766,994.12,994.12,-0.12,-0.46,0.00,2.39,0.14,9.50,-0.00,-0.00,0.00,0.00
2026-06-26 18:59:30.767,994.12,994.12,-0.12,-0.46,0.00,2.39,0.14,9.50,-0.00,-0.00,0.00,0.00
2026-06-26 18:59:30.771,994.12,994.12,-0.12,-0.46,0.00,2.39,0.14,9.50,-0.00,-0.00,0.00,0.00
2026-06-26 18:59:30.774,994.12,994.12,-0.12,-0.46,0.00,2.39,0.14,9.50,0.00,0.00,0.00,0.00
2026-06-26 18:59:30.775,994.12,994.12,-0.12,-0.46,0.00,2.43,0.13,9.47,0.00,0.00,0.00,0.00
2026-06-26 18:59:30.856,994.12,994.12,0.02,0.20,0.00,2.40,0.11,9.49,0.00,-0.00,-0.00,0.00
2026-06-26 18:59:30.860,994.12,994.12,0.02,0.20,0.00,2.40,0.11,9.49,0.00,-0.00,-0.00,0.00
2026-06-26 18:59:30.864,994.12,994.12,0.02,0.20,0.00,2.40,0.11,9.49,0.00,-0.00,0.00,0.00
2026-06-26 18:59:30.865,994.12,994.12,0.02,0.20,0.00,2.39,0.11,9.46,0.00,-0.00,0.00,0.00
2026-06-26 18:59:30.866,994.12,994.12,0.02,0.20,0.00,2.39,0.11,9.46,0.00,-0.00,0.00,0.00
2026-06-26 18:59:30.867,994.12,994.12,0.02,0.20,0.00,2.39,0.11,9.46,0.00,-0.00,0.00,0.00
2026-06-26 18:59:30.870,994.12,994.12,0.02,0.20,0.00,2.39,0.11,9.46,0.00,-0.00,0.00,0.00
2026-06-26 18:59:30.874,994.12,994.12,0.02,0.20,0.00,2.39,0.11,9.46,0.00,-0.00,-0.00,0.00
2026-06-26 18:59:30.875,994.12,994.12,0.02,0.20,0.00,2.39,0.11,9.47,0.00,-0.00,-0.00,0.00
2026-06-26 18:59:30.876,994.12,994.12,0.02,0.20,0.00,2.39,0.11,9.47,0.00,-0.00,-0.00,0.00
2026-06-26 18:59:30.877,994.12,994.12,0.02,0.20,0.00,2.39,0.11,9.47,0.00,-0.00,-0.00,0.00
2026-06-26 18:59:30.881,994.12,994.12,0.02,0.20,0.00,2.39,0.11,9.47,0.00,-0.00,-0.00,0.00
2026-06-26 18:59:30.884,994.12,994.12,0.02,0.20,0.00,2.39,0.11,9.47,0.00,-0.00,0.00,0.00
2026-06-26 18:59:30.885,994.12,994.12,0.02,0.20,0.00,2.39,0.14,9.47,0.00,-0.00,0.00,0.00
2026-06-26 18:59:30.886,994.12,994.12,0.02,0.20,0.00,2.39,0.14,9.47,0.00,-0.00,0.00,0.00
2026-06-26 18:59:30.888,994.12,994.12,0.02,0.20,0.00,2.39,0.14,9.47,0.00,-0.00,0.00,0.00
2026-06-26 18:59:30.891,994.12,994.12,0.02,0.20,0.00,2.39,0.14,9.47,0.00,-0.00,0.00,0.00
2026-06-26 18:59:30.894,994.12,994.12,0.02,0.20,0.00,2.39,0.14,9.47,0.00,-0.00,-0.00,0.00
2026-06-26 18:59:30.895,994.12,994.12,0.02,0.20,0.00,2.37,0.11,9.49,0.00,-0.00,-0.00,0.00
2026-06-26 18:59:30.897,994.12,994.12,0.02,0.20,0.00,2.37,0.11,9.49,0.00,-0.00,-0.00,0.00
2026-06-26 18:59:30.899,994.12,994.12,0.02,0.20,0.00,2.37,0.11,9.49,0.00,-0.00,-0.00,0.00
2026-06-26 18:59:30.900,994.12,994.12,0.02,0.20,0.00,2.37,0.11,9.49,0.00,-0.00,-0.00,0.00
2026-06-26 18:59:30.901,994.12,994.12,0.02,0.20,0.00,2.37,0.11,9.49,0.00,-0.00,-0.00,0.00
2026-06-26 18:59:30.904,994.12,994.12,0.02,0.20,0.00,2.37,0.11,9.49,-0.00,-0.00,0.00,0.00
2026-06-26 18:59:30.905,994.12,994.12,0.02,0.20,0.00,2.38,0.12,9.48,-0.00,-0.00,0.00,0.00
2026-06-26 18:59:30.906,994.12,994.12,0.02,0.20,0.00,2.38,0.12,9.48,-0.00,-0.00,0.00,0.00
2026-06-26 18:59:30.908,994.12,994.12,0.02,0.20,0.00,2.38,0.12,9.48,-0.00,-0.00,0.00,0.00
2026-06-26 18:59:30.912,994.12,994.12,0.02,0.20,0.00,2.38,0.12,9.48,-0.00,-0.00,0.00,0.00
2026-06-26 18:59:30.914,994.12,994.12,0.02,0.20,0.00,2.38,0.12,9.48,-0.00,-0.00,0.00,0.00
2026-06-26 18:59:30.915,994.12,994.12,0.02,0.20,0.00,2.39,0.12,9.47,-0.00,-0.00,0.00,0.00
2026-06-26 18:59:30.956,994.12,994.12,0.01,0.11,0.00,2.38,0.14,9.52,0.00,-0.01,-0.00,0.00
2026-06-26 18:59:30.998,994.12,994.12,0.09,0.40,0.00,2.39,0.12,9.49,0.00,-0.00,0.00,0.00
2026-06-26 18:59:30.999,994.12,994.12,0.09,0.40,0.00,2.39,0.12,9.49,0.00,-0.00,0.00,0.00
2026-06-26 18:59:30.000,994.12,994.12,0.09,0.40,0.00,2.39,0.12,9.49,0.00,-0.00,0.00,0.00
2026-06-26 18:59:30.002,994.12,994.12,0.09,0.40,0.00,2.39,0.12,9.49,0.00,-0.00,0.00,0.00
2026-06-26 18:59:31.004,994.12,994.12,0.09,0.40,0.00,2.40,0.12,9.48,0.00,-0.00,-0.00,0.00
2026-06-26 18:59:31.006,994.12,994.12,0.09,0.40,0.00,2.40,0.12,9.48,0.00,-0.00,-0.00,0.00
2026-06-26 18:59:31.007,994.12,994.12,0.09,0.40,0.00,2.40,0.12,9.48,0.00,-0.00,-0.00,0.00
2026-06-26 18:59:31.008,994.12,994.12,0.09,0.40,0.00,2.40,0.12,9.48,0.00,-0.00,-0.00,0.00
2026-06-26 18:59:31.014,994.12,994.12,0.09,0.40,0.00,2.40,0.12,9.48,0.00,-0.00,-0.00,0.00
2026-06-26 18:59:31.015,994.12,994.12,0.09,0.40,0.00,2.39,0.12,9.50,0.00,0.00,0.00,0.00
2026-06-26 18:59:31.016,994.12,994.12,0.09,0.40,0.00,2.39,0.12,9.50,0.00,0.00,0.00,0.00
2026-06-26 18:59:31.017,994.12,994.12,0.09,0.40,0.00,2.39,0.12,9.50,0.00,0.00,0.00,0.00
2026-06-26 18:59:31.020,994.12,994.12,0.09,0.40,0.00,2.39,0.12,9.50,0.00,0.00,0.00,0.00
2026-06-26 18:59:31.024,994.12,994.12,0.09,0.40,0.00,2.39,0.12,9.50,0.00,0.00,-0.00,0.00
2026-06-26 18:59:31.025,994.12,994.12,0.09,0.40,0.00,2.40,0.11,9.46,0.00,0.00,-0.00,0.00
2026-06-26 18:59:31.026,994.12,994.12,0.09,0.40,0.00,2.40,0.11,9.46,0.00,0.00,-0.00,0.00
2026-06-26 18:59:31.028,994.12,994.12,0.09,0.40,0.00,2.40,0.11,9.46,0.00,0.00,-0.00,0.00
2026-06-26 18:59:31.029,994.12,994.12,0.09,0.40,0.00,2.40,0.11,9.46,0.00,0.00,-0.00,0.00
2026-06-26 18:59:31.032,994.12,994.12,0.09,0.40,0.00,2.40,0.11,9.46,0.00,0.00,-0.00,0.00
2026-06-26 18:59:31.034,994.12,994.12,0.09,0.40,0.00,2.39,0.11,9.48,0.00,-0.00,0.00,0.00
2026-06-26 18:59:31.036,994.12,994.12,0.09,0.40,0.00,2.39,0.11,9.48,0.00,-0.00,0.00,0.00
2026-06-26 18:59:31.037,994.12,994.12,0.09,0.40,0.00,2.39,0.11,9.48,0.00,-0.00,0.00,0.00
2026-06-26 18:59:31.038,994.12,994.12,0.09,0.40,0.00,2.39,0.11,9.48,0.00,-0.00,0.00,0.00
2026-06-26 18:59:31.042,994.12,994.12,0.09,0.40,0.00,2.39,0.11,9.48,0.00,-0.00,0.00,0.00
2026-06-26 18:59:31.045,994.12,994.12,0.09,0.40,0.00,2.39,0.11,9.48,0.00,0.00,0.00,0.00
2026-06-26 18:59:31.046,994.12,994.12,0.09,0.40,0.00,2.40,0.14,9.49,0.00,0.00,0.00,0.00
2026-06-26 18:59:31.047,994.12,994.12,0.09,0.40,0.00,2.40,0.14,9.49,0.00,0.00,0.00,0.00
2026-06-26 18:59:31.048,994.12,994.12,0.09,0.40,0.00,2.40,0.14,9.49,0.00,0.00,0.00,0.00
2026-06-26 18:59:31.049,994.12,994.12,0.09,0.40,0.00,2.40,0.14,9.49,0.00,0.00,0.00,0.00
2026-06-26 18:59:31.051,994.12,994.12,0.09,0.40,0.00,2.40,0.14,9.49,0.00,0.00,0.00,0.00
2026-06-26 18:59:31.052,994.12,994.12,0.09,0.40,0.00,2.40,0.14,9.49,0.00,0.00,0.00,0.00
2026-06-26 18:59:31.053,994.12,994.12,0.09,0.40,0.00,2.40,0.14,9.49,0.00,0.00,0.00,0.00
2026-06-26 18:59:31.055,994.12,994.12,0.09,0.40,0.00,2.40,0.13,9.48,0.00,-0.00,0.00,0.00
2026-06-26 18:59:31.056,994.12,994.12,0.09,0.40,0.00,2.40,0.13,9.48,0.00,-0.00,0.00,0.00
2026-06-26 18:59:31.097,994.12,994.12,-0.10,-0.42,0.00,2.39,0.15,9.49,-0.00,0.00,0.00,0.00
2026-06-26 18:59:31.140,994.12,994.12,-0.12,-0.46,0.00,2.41,0.13,9.44,-0.00,0.00,0.00,0.00
2026-06-26 18:59:31.144,994.12,994.12,-0.12,-0.46,0.00,2.41,0.13,9.44,0.00,0.00,-0.00,0.00
2026-06-26 18:59:31.145,994.12,994.12,-0.12,-0.46,0.00,2.41,0.10,9.49,0.00,0.00,-0.00,0.00
2026-06-26 18:59:31.147,994.12,994.12,-0.12,-0.46,0.00,2.41,0.10,9.49,0.00,0.00,-0.00,0.00
2026-06-26 18:59:31.148,994.12,994.12,-0.12,-0.46,0.00,2.41,0.10,9.49,0.00,0.00,-0.00,0.00
2026-06-26 18:59:31.149,994.12,994.12,-0.12,-0.46,0.00,2.41,0.10,9.49,0.00,0.00,-0.00,0.00
2026-06-26 18:59:31.150,994.12,994.12,-0.12,-0.46,0.00,2.41,0.10,9.49,0.00,0.00,-0.00,0.00
2026-06-26 18:59:31.151,994.12,994.12,-0.12,-0.46,0.00,2.41,0.10,9.49,0.00,0.00,-0.00,0.00
2026-06-26 18:59:31.154,994.12,994.12,-0.12,-0.46,0.00,2.41,0.10,9.49,0.00,0.00,-0.00,0.00
2026-06-26 18:59:31.155,994.12,994.12,-0.12,-0.46,0.00,2.39,0.12,9.51,0.00,0.00,0.00,0.00
2026-06-26 18:59:31.156,994.12,994.12,-0.12,-0.46,0.00,2.39,0.12,9.51,0.00,0.00,0.00,0.00
2026-06-26 18:59:31.157,994.12,994.12,-0.12,-0.46,0.00,2.39,0.12,9.51,0.00,0.00,0.00,0.00
2026-06-26 18:59:31.159,994.12,994.12,-0.12,-0.46,0.00,2.39,0.12,9.51,0.00,0.00,0.00,0.00
2026-06-26 18:59:31.164,994.12,994.12,-0.12,-0.46,0.00,2.39,0.12,9.51,0.00,0.00,0.00,0.00
2026-06-26 18:59:31.165,994.12,994.12,-0.12,-0.46,0.00,2.39,0.11,9.49,-0.00,0.00,0.00,0.00
2026-06-26 18:59:31.166,994.12,994.12,-0.12,-0.46,0.00,2.39,0.11,9.49,-0.00,0.00,0.00,0.00
2026-06-26 18:59:31.168,994.12,994.12,-0.12,-0.46,0.00,2.39,0.11,9.49,-0.00,0.00,0.00,0.00
2026-06-26 18:59:31.169,994.12,994.12,-0.12,-0.46,0.00,2.39,0.11,9.49,-0.00,0.00,0.00,0.00
2026-06-26 18:59:31.174,994.12,994.12,-0.12,-0.46,0.00,2.39,0.11,9.49,-0.00,0.00,0.00,0.00
2026-06-26 18:59:31.175,994.12,994.12,-0.12,-0.46,0.00,2.39,0.12,9.46,-0.00,0.00,-0.00,0.00
2026-06-26 18:59:31.176,994.12,994.12,-0.12,-0.46,0.00,2.39,0.12,9.46,-0.00,0.00,-0.00,0.00
2026-06-26 18:59:31.178,994.12,994.12,-0.12,-0.46,0.00,2.39,0.12,9.46,-0.00,0.00,-0.00,0.00
2026-06-26 18:59:31.179,994.12,994.12,-0.12,-0.46,0.00,2.39,0.12,9.46,-0.00,0.00,-0.00,0.00
2026-06-26 18:59:31.184,994.12,994.12,-0.12,-0.46,0.00,2.39,0.12,9.46,-0.00,0.00,-0.00,0.00
2026-06-26 18:59:31.185,994.12,994.12,-0.12,-0.46,0.00,2.42,0.11,9.49,-0.00,0.00,0.00,0.00
2026-06-26 18:59:31.186,994.12,994.12,-0.12,-0.46,0.00,2.42,0.11,9.49,-0.00,0.00,0.00,0.00
2026-06-26 18:59:31.188,994.12,994.12,-0.12,-0.46,0.00,2.42,0.11,9.49,-0.00,0.00,0.00,0.00
2026-06-26 18:59:31.189,994.12,994.12,-0.12,-0.46,0.00,2.42,0.11,9.49,-0.00,0.00,0.00,0.00
2026-06-26 18:59:31.194,994.12,994.12,-0.12,-0.46,0.00,2.42,0.11,9.49,-0.00,0.00,0.00,0.00
2026-06-26 18:59:31.195,994.12,994.12,-0.12,-0.46,0.00,2.41,0.12,9.47,-0.00,0.00,0.00,0.00
2026-06-26 18:59:31.197,994.12,994.12,-0.12,-0.46,0.00,2.41,0.12,9.47,-0.00,0.00,0.00,0.00
2026-06-26 18:59:31.238,994.12,994.12,-0.20,-0.59,0.00,2.40,0.11,9.49,-0.00,0.00,-0.00,0.00
2026-06-26 18:59:31.284,994.12,994.12,-0.42,-0.86,0.00,2.41,0.13,9.47,-0.00,0.00,0.00,0.00
2026-06-26 18:59:31.285,994.12,994.12,-0.42,-0.86,0.00,2.39,0.12,9.48,0.00,0.00,-0.00,0.00
2026-06-26 18:59:31.287,994.12,994.12,-0.42,-0.86,0.00,2.39,0.12,9.48,0.00,0.00,-0.00,0.00
2026-06-26 18:59:31.288,994.12,994.12,-0.42,-0.86,0.00,2.39,0.12,9.48,0.00,0.00,-0.00,0.00
2026-06-26 18:59:31.291,994.12,994.12,-0.42,-0.86,0.00,2.39,0.12,9.48,0.00,0.00,-0.00,0.00
2026-06-26 18:59:31.295,994.12,994.12,-0.42,-0.86,0.00,2.39,0.12,9.48,0.00,0.00,0.00,0.00
2026-06-26 18:59:31.296,994.12,994.12,-0.42,-0.86,0.00,2.40,0.12,9.49,0.00,0.00,0.00,0.00
2026-06-26 18:59:31.297,994.12,994.12,-0.42,-0.86,0.00,2.40,0.12,9.49,0.00,0.00,0.00,0.00
2026-06-26 18:59:31.299,994.12,994.12,-0.42,-0.86,0.00,2.40,0.12,9.49,0.00,0.00,0.00,0.00
2026-06-26 18:59:31.300,994.12,994.12,-0.42,-0.86,0.00,2.40,0.12,9.49,0.00,0.00,0.00,0.00
2026-06-26 18:59:31.301,994.12,994.12,-0.42,-0.86,0.00,2.40,0.12,9.49,0.00,0.00,0.00,0.00
2026-06-26 18:59:31.302,994.12,994.12,-0.42,-0.86,0.00,2.40,0.12,9.49,0.00,0.00,0.00,0.00
2026-06-26 18:59:31.305,994.12,994.12,-0.42,-0.86,0.00,2.40,0.12,9.49,0.00,-0.00,0.00,0.00
2026-06-26 18:59:31.306,994.12,994.12,-0.42,-0.86,0.00,2.38,0.13,9.48,0.00,-0.00,0.00,0.00
2026-06-26 18:59:31.307,994.12,994.12,-0.42,-0.86,0.00,2.38,0.13,9.48,0.00,-0.00,0.00,0.00
2026-06-26 18:59:31.308,994.12,994.12,-0.42,-0.86,0.00,2.38,0.13,9.48,0.00,-0.00,0.00,0.00
2026-06-26 18:59:31.313,994.12,994.12,-0.42,-0.86,0.00,2.38,0.13,9.48,0.00,-0.00,0.00,0.00
2026-06-26 18:59:31.315,994.12,994.12,-0.42,-0.86,0.00,2.38,0.13,9.48,-0.00,0.00,0.00,0.00
2026-06-26 18:59:31.316,994.12,994.12,-0.42,-0.86,0.00,2.40,0.14,9.50,-0.00,0.00,0.00,0.00
2026-06-26 18:59:31.317,994.12,994.12,-0.42,-0.86,0.00,2.40,0.14,9.50,-0.00,0.00,0.00,0.00
2026-06-26 18:59:31.319,994.12,994.12,-0.42,-0.86,0.00,2.40,0.14,9.50,-0.00,0.00,0.00,0.00
2026-06-26 18:59:31.324,994.12,994.12,-0.42,-0.86,0.00,2.40,0.14,9.50,-0.00,0.00,0.00,0.00
2026-06-26 18:59:31.325,994.12,994.12,-0.42,-0.86,0.00,2.39,0.12,9.46,-0.00,0.00,0.00,0.00
2026-06-26 18:59:31.326,994.12,994.12,-0.42,-0.86,0.00,2.39,0.12,9.46,-0.00,0.00,0.00,0.00
2026-06-26 18:59:31.328,994.12,994.12,-0.42,-0.86,0.00,2.39,0.12,9.46,-0.00,0.00,0.00,0.00
2026-06-26 18:59:31.329,994.12,994.12,-0.42,-0.86,0.00,2.39,0.12,9.46,-0.00,0.00,0.00,0.00
2026-06-26 18:59:31.332,994.12,994.12,-0.42,-0.86,0.00,2.39,0.12,9.46,-0.00,0.00,0.00,0.00
2026-06-26 18:59:31.335,994.12,994.12,-0.42,-0.86,0.00,2.39,0.12,9.46,-0.00,0.00,-0.00,0.00
2026-06-26 18:59:31.336,994.12,994.12,-0.42,-0.86,0.00,2.41,0.12,9.49,-0.00,0.00,-0.00,0.00
2026-06-26 18:59:31.337,994.12,994.12,-0.42,-0.86,0.00,2.41,0.12,9.49,-0.00,0.00,-0.00,0.00
2026-06-26 18:59:31.383,994.12,994.12,-0.15,-0.52,0.00,2.40,0.13,9.48,0.00,0.00,0.00,0.00
2026-06-26 18:59:31.426,994.12,994.12,-0.21,-0.60,0.00,2.40,0.14,9.49,0.00,0.00,0.00,0.00
2026-06-26 18:59:31.427,994.12,994.12,-0.21,-0.60,0.00,2.40,0.14,9.49,0.00,0.00,0.00,0.00
2026-06-26 18:59:31.429,994.12,994.12,-0.21,-0.60,0.00,2.40,0.14,9.49,0.00,0.00,0.00,0.00
2026-06-26 18:59:31.434,994.12,994.12,-0.21,-0.60,0.00,2.40,0.14,9.49,0.00,0.00,0.00,0.00
2026-06-26 18:59:31.436,994.12,994.12,-0.21,-0.60,0.00,2.40,0.11,9.50,-0.00,0.00,0.00,0.00
2026-06-26 18:59:31.438,994.12,994.12,-0.21,-0.60,0.00,2.40,0.11,9.50,-0.00,0.00,0.00,0.00
2026-06-26 18:59:31.441,994.12,994.12,-0.21,-0.60,0.00,2.40,0.11,9.50,-0.00,0.00,0.00,0.00
2026-06-26 18:59:31.446,994.12,994.12,-0.21,-0.60,0.00,2.38,0.13,9.49,0.00,0.00,-0.00,0.00
2026-06-26 18:59:31.447,994.12,994.12,-0.21,-0.60,0.00,2.38,0.13,9.49,0.00,0.00,-0.00,0.00
2026-06-26 18:59:31.449,994.12,994.12,-0.21,-0.60,0.00,2.38,0.13,9.49,0.00,0.00,-0.00,0.00
2026-06-26 18:59:31.451,994.12,994.12,-0.21,-0.60,0.00,2.38,0.13,9.49,0.00,0.00,-0.00,0.00
2026-06-26 18:59:31.452,994.12,994.12,-0.21,-0.60,0.00,2.38,0.13,9.49,0.00,0.00,-0.00,0.00
2026-06-26 18:59:31.455,994.12,994.12,-0.21,-0.60,0.00,2.38,0.13,9.49,-0.00,-0.00,0.00,0.00
2026-06-26 18:59:31.457,994.12,994.12,-0.21,-0.60,0.00,2.39,0.14,9.50,-0.00,-0.00,0.00,0.00
2026-06-26 18:59:31.459,994.12,994.12,-0.21,-0.60,0.00,2.39,0.14,9.50,-0.00,-0.00,0.00,0.00
2026-06-26 18:59:31.464,994.12,994.12,-0.21,-0.60,0.00,2.39,0.14,9.50,-0.00,-0.00,0.00,0.00
2026-06-26 18:59:31.466,994.12,994.12,-0.21,-0.60,0.00,2.41,0.11,9.50,-0.00,-0.00,0.00,0.00
2026-06-26 18:59:31.468,994.12,994.12,-0.21,-0.60,0.00,2.41,0.11,9.50,-0.00,-0.00,0.00,0.00
2026-06-26 18:59:31.471,994.12,994.12,-0.21,-0.60,0.00,2.41,0.11,9.50,-0.00,-0.00,0.00,0.00
2026-06-26 18:59:31.475,994.12,994.12,-0.21,-0.60,0.00,2.41,0.11,9.50,0.00,0.00,0.00,0.00
2026-06-26 18:59:31.477,994.12,994.12,-0.21,-0.60,0.00,2.42,0.12,9.46,0.00,0.00,0.00,0.00
2026-06-26 18:59:31.478,994.12,994.12,-0.21,-0.60,0.00,2.42,0.12,9.46,0.00,0.00,0.00,0.00
2026-06-26 18:59:31.525,994.12,994.12,-0.46,-0.90,0.00,2.43,0.11,9.49,-0.00,0.00,-0.00,0.00
2026-06-26 18:59:31.567,994.12,994.12,-0.11,-0.44,0.00,2.39,0.13,9.51,0.00,0.00,-0.00,0.00
2026-06-26 18:59:31.569,994.12,994.12,-0.11,-0.44,0.00,2.39,0.13,9.51,0.00,0.00,-0.00,0.00
2026-06-26 18:59:31.575,994.12,994.12,-0.11,-0.44,0.00,2.39,0.13,9.51,0.00,0.00,-0.00,0.00
2026-06-26 18:59:31.577,994.12,994.12,-0.11,-0.44,0.00,2.44,0.09,9.50,0.00,-0.00,-0.00,0.00
2026-06-26 18:59:31.578,994.12,994.12,-0.11,-0.44,0.00,2.44,0.09,9.50,0.00,-0.00,-0.00,0.00
2026-06-26 18:59:31.584,994.12,994.12,-0.11,-0.44,0.00,2.44,0.09,9.50,0.00,-0.00,-0.00,0.00
2026-06-26 18:59:31.586,994.12,994.12,-0.11,-0.44,0.00,2.40,0.09,9.52,0.00,0.00,0.00,0.00
2026-06-26 18:59:31.588,994.12,994.12,-0.11,-0.44,0.00,2.40,0.09,9.52,0.00,0.00,0.00,0.00
2026-06-26 18:59:31.590,994.12,994.12,-0.11,-0.44,0.00,2.40,0.09,9.52,0.00,0.00,0.00,0.00
2026-06-26 18:59:31.595,994.12,994.12,-0.11,-0.44,0.00,2.40,0.09,9.52,0.00,0.00,0.00,0.00
2026-06-26 18:59:31.597,994.12,994.12,-0.11,-0.44,0.00,2.37,0.13,9.46,0.00,0.00,0.00,0.00
2026-06-26 18:59:31.599,994.12,994.12,-0.11,-0.44,0.00,2.37,0.13,9.46,0.00,0.00,0.00,0.00
2026-06-26 18:59:31.600,994.12,994.12,-0.11,-0.44,0.00,2.37,0.13,9.46,0.00,0.00,0.00,0.00
2026-06-26 18:59:31.602,994.12,994.12,-0.11,-0.44,0.00,2.37,0.13,9.46,0.00,0.00,0.00,0.00
2026-06-26 18:59:31.606,994.12,994.12,-0.11,-0.44,0.00,2.37,0.13,9.46,0.00,0.00,0.00,0.00
2026-06-26 18:59:31.607,994.12,994.12,-0.11,-0.44,0.00,2.38,0.13,9.48,0.00,0.00,0.00,0.00
2026-06-26 18:59:31.609,994.12,994.12,-0.11,-0.44,0.00,2.38,0.13,9.48,0.00,0.00,0.00,0.00
2026-06-26 18:59:31.615,994.12,994.12,-0.11,-0.44,0.00,2.38,0.13,9.48,0.00,0.00,0.00,0.00
2026-06-26 18:59:31.617,994.12,994.12,-0.11,-0.44,0.00,2.42,0.14,9.48,0.00,0.00,0.00,0.00
2026-06-26 18:59:31.618,994.12,994.12,-0.11,-0.44,0.00,2.42,0.14,9.48,0.00,0.00,0.00,0.00
2026-06-26 18:59:31.622,994.12,994.12,-0.11,-0.44,0.00,2.42,0.14,9.48,0.00,0.00,0.00,0.00
2026-06-26 18:59:31.666,994.12,994.12,0.13,0.48,0.00,2.40,0.12,9.50,0.00,0.00,0.00,0.00
2026-06-26 18:59:31.708,994.12,994.12,0.08,0.37,0.00,2.40,0.11,9.51,0.00,0.00,0.00,0.00
2026-06-26 18:59:31.712,994.12,994.12,0.08,0.37,0.00,2.40,0.11,9.51,0.00,0.00,0.00,0.00
2026-06-26 18:59:31.716,994.12,994.12,0.08,0.37,0.00,2.40,0.11,9.51,0.00,-0.00,0.00,0.00
2026-06-26 18:59:31.717,994.12,994.12,0.08,0.37,0.00,2.39,0.11,9.49,0.00,-0.00,0.00,0.00
2026-06-26 18:59:31.719,994.12,994.12,0.08,0.37,0.00,2.39,0.11,9.49,0.00,-0.00,0.00,0.00
2026-06-26 18:59:31.723,994.12,994.12,0.08,0.37,0.00,2.39,0.11,9.49,0.00,-0.00,0.00,0.00
2026-06-26 18:59:31.726,994.12,994.12,0.08,0.37,0.00,2.39,0.11,9.49,-0.00,0.00,-0.00,0.00
2026-06-26 18:59:31.727,994.12,994.12,0.08,0.37,0.00,2.39,0.11,9.48,-0.00,0.00,-0.00,0.00
2026-06-26 18:59:31.729,994.12,994.12,0.08,0.37,0.00,2.39,0.11,9.48,-0.00,0.00,-0.00,0.00
2026-06-26 18:59:31.730,994.12,994.12,0.08,0.37,0.00,2.39,0.11,9.48,-0.00,0.00,-0.00,0.00
2026-06-26 18:59:31.735,994.12,994.12,0.08,0.37,0.00,2.39,0.11,9.48,-0.00,0.00,-0.00,0.00
2026-06-26 18:59:31.737,994.12,994.12,0.08,0.37,0.00,2.39,0.14,9.46,0.00,0.00,-0.00,0.00
2026-06-26 18:59:31.738,994.12,994.12,0.08,0.37,0.00,2.39,0.14,9.46,0.00,0.00,-0.00,0.00
2026-06-26 18:59:31.740,994.12,994.12,0.08,0.37,0.00,2.39,0.14,9.46,0.00,0.00,-0.00,0.00
2026-06-26 18:59:31.745,994.12,994.12,0.08,0.37,0.00,2.39,0.14,9.46,0.00,0.00,-0.00,0.00
2026-06-26 18:59:31.747,994.12,994.12,0.08,0.37,0.00,2.39,0.16,9.49,0.00,-0.00,0.00,0.00
2026-06-26 18:59:31.748,994.12,994.12,0.08,0.37,0.00,2.39,0.16,9.49,0.00,-0.00,0.00,0.00
2026-06-26 18:59:31.750,994.12,994.12,0.08,0.37,0.00,2.39,0.16,9.49,0.00,-0.00,0.00,0.00
2026-06-26 18:59:31.752,994.12,994.12,0.08,0.37,0.00,2.39,0.16,9.49,0.00,-0.00,0.00,0.00
2026-06-26 18:59:31.754,994.12,994.12,0.08,0.37,0.00,2.39,0.16,9.49,0.00,-0.00,0.00,0.00
2026-06-26 18:59:31.756,994.12,994.12,0.08,0.37,0.00,2.39,0.11,9.50,0.00,-0.00,0.00,0.00
2026-06-26 18:59:31.758,994.12,994.12,0.08,0.37,0.00,2.39,0.11,9.50,0.00,-0.00,0.00,0.00
2026-06-26 18:59:31.759,994.12,994.12,0.08,0.37,0.00,2.39,0.11,9.50,0.00,-0.00,0.00,0.00
2026-06-26 18:59:31.765,994.12,994.12,0.08,0.37,0.00,2.39,0.11,9.50,0.00,-0.00,0.00,0.00
2026-06-26 18:59:31.808,994.12,994.13,0.35,0.78,0.00,2.39,0.11,9.48,0.00,0.01,-0.00,0.00
2026-06-26 18:59:31.851,994.12,994.13,0.40,0.83,0.00,2.39,0.11,9.49,0.00,-0.00,-0.00,0.00
2026-06-26 18:59:31.855,994.12,994.13,0.40,0.83,0.00,2.39,0.11,9.49,0.00,-0.00,-0.00,0.00
2026-06-26 18:59:31.857,994.12,994.13,0.40,0.83,0.00,2.40,0.13,9.50,0.00,0.00,-0.00,0.00
2026-06-26 18:59:31.859,994.12,994.13,0.40,0.83,0.00,2.40,0.13,9.50,0.00,0.00,-0.00,0.00
2026-06-26 18:59:31.864,994.12,994.13,0.40,0.83,0.00,2.40,0.13,9.50,0.00,0.00,-0.00,0.00
2026-06-26 18:59:31.866,994.12,994.13,0.40,0.83,0.00,2.40,0.13,9.50,0.00,0.00,0.00,0.00
2026-06-26 18:59:31.868,994.12,994.13,0.40,0.83,0.00,2.40,0.09,9.49,0.00,0.00,0.00,0.00
2026-06-26 18:59:31.870,994.12,994.13,0.40,0.83,0.00,2.40,0.09,9.49,0.00,0.00,0.00,0.00
2026-06-26 18:59:31.875,994.12,994.13,0.40,0.83,0.00,2.40,0.09,9.49,0.00,0.00,0.00,0.00
2026-06-26 18:59:31.877,994.12,994.13,0.40,0.83,0.00,2.40,0.13,9.47,0.00,0.00,-0.00,0.00
2026-06-26 18:59:31.879,994.12,994.13,0.40,0.83,0.00,2.40,0.13,9.47,0.00,0.00,-0.00,0.00
2026-06-26 18:59:31.885,994.12,994.13,0.40,0.83,0.00,2.40,0.13,9.47,0.00,0.00,-0.00,0.00
2026-06-26 18:59:31.887,994.12,994.13,0.40,0.83,0.00,2.40,0.11,9.48,0.00,0.00,0.00,0.00
2026-06-26 18:59:31.888,994.12,994.13,0.40,0.83,0.00,2.40,0.11,9.48,0.00,0.00,0.00,0.00
2026-06-26 18:59:31.892,994.12,994.13,0.40,0.83,0.00,2.40,0.11,9.48,0.00,0.00,0.00,0.00
2026-06-26 18:59:31.896,994.12,994.13,0.40,0.83,0.00,2.40,0.11,9.48,-0.00,0.00,0.00,0.00
2026-06-26 18:59:31.898,994.12,994.13,0.40,0.83,0.00,2.42,0.13,9.49,-0.00,0.00,0.00,0.00
2026-06-26 18:59:31.900,994.12,994.13,0.40,0.83,0.00,2.42,0.13,9.49,-0.00,0.00,0.00,0.00
2026-06-26 18:59:31.902,994.12,994.13,0.40,0.83,0.00,2.42,0.13,9.49,-0.00,0.00,0.00,0.00
2026-06-26 18:59:31.905,994.12,994.13,0.40,0.83,0.00,2.42,0.13,9.49,-0.00,0.00,0.00,0.00
2026-06-26 18:59:31.907,994.12,994.13,0.40,0.83,0.00,2.40,0.13,9.50,0.00,0.00,-0.00,0.00
2026-06-26 18:59:31.950,994.12,994.13,0.46,0.90,0.00,2.40,0.15,9.51,0.00,-0.00,0.00,0.00
2026-06-26 18:59:31.996,994.12,994.13,0.54,0.97,0.00,2.40,0.11,9.47,0.00,-0.00,0.00,0.00
2026-06-26 18:59:31.998,994.12,994.13,0.54,0.97,0.00,2.40,0.12,9.50,0.00,0.00,-0.00,0.00
2026-06-26 18:59:31.999,994.12,994.13,0.54,0.97,0.00,2.40,0.12,9.50,0.00,0.00,-0.00,0.00
2026-06-26 18:59:31.001,994.12,994.13,0.54,0.97,0.00,2.40,0.12,9.50,0.00,0.00,-0.00,0.00
2026-06-26 18:59:31.003,994.12,994.13,0.54,0.97,0.00,2.40,0.12,9.50,0.00,0.00,-0.00,0.00
2026-06-26 18:59:32.006,994.12,994.13,0.54,0.97,0.00,2.40,0.12,9.50,-0.00,0.00,-0.00,0.00
2026-06-26 18:59:32.008,994.12,994.13,0.54,0.97,0.00,2.38,0.11,9.49,-0.00,0.00,-0.00,0.00
2026-06-26 18:59:32.009,994.12,994.13,0.54,0.97,0.00,2.38,0.11,9.49,-0.00,0.00,-0.00,0.00
2026-06-26 18:59:32.013,994.12,994.13,0.54,0.97,0.00,2.38,0.11,9.49,-0.00,0.00,-0.00,0.00
2026-06-26 18:59:32.016,994.12,994.13,0.54,0.97,0.00,2.38,0.11,9.49,0.00,0.00,0.00,0.00
2026-06-26 18:59:32.018,994.12,994.13,0.54,0.97,0.00,2.39,0.10,9.49,0.00,0.00,0.00,0.00
2026-06-26 18:59:32.020,994.12,994.13,0.54,0.97,0.00,2.39,0.10,9.49,0.00,0.00,0.00,0.00
2026-06-26 18:59:32.025,994.12,994.13,0.54,0.97,0.00,2.39,0.10,9.49,0.00,0.00,0.00,0.00
2026-06-26 18:59:32.027,994.12,994.13,0.54,0.97,0.00,2.41,0.10,9.45,0.00,0.00,0.00,0.00
2026-06-26 18:59:32.029,994.12,994.13,0.54,0.97,0.00,2.41,0.10,9.45,0.00,0.00,0.00,0.00
2026-06-26 18:59:32.030,994.12,994.13,0.54,0.97,0.00,2.41,0.10,9.45,0.00,0.00,0.00,0.00
2026-06-26 18:59:32.034,994.12,994.13,0.54,0.97,0.00,2.41,0.10,9.45,0.00,0.00,0.00,0.00
2026-06-26 18:59:32.037,994.12,994.13,0.54,0.97,0.00,2.41,0.10,9.45,0.00,0.00,0.00,0.00
2026-06-26 18:59:32.038,994.12,994.13,0.54,0.97,0.00,2.39,0.12,9.49,0.00,0.00,0.00,0.00
2026-06-26 18:59:32.040,994.12,994.13,0.54,0.97,0.00,2.39,0.12,9.49,0.00,0.00,0.00,0.00
2026-06-26 18:59:32.045,994.12,994.13,0.54,0.97,0.00,2.39,0.12,9.49,0.00,0.00,0.00,0.00
2026-06-26 18:59:32.047,994.12,994.13,0.54,0.97,0.00,2.39,0.10,9.50,0.00,-0.00,0.00,0.00
2026-06-26 18:59:32.049,994.12,994.13,0.54,0.97,0.00,2.39,0.10,9.50,0.00,-0.00,0.00,0.00
2026-06-26 18:59:32.096,994.12,994.13,0.63,1.05,0.00,2.40,0.15,9.47,0.00,0.00,0.00,0.00
2026-06-26 18:59:32.138,994.12,994.13,0.65,1.06,0.00,2.41,0.11,9.47,-0.00,-0.00,0.00,0.00
2026-06-26 18:59:32.139,994.12,994.13,0.65,1.06,0.00,2.41,0.11,9.47,-0.00,-0.00,0.00,0.00
2026-06-26 18:59:32.143,994.12,994.13,0.65,1.06,0.00,2.41,0.11,9.47,-0.00,-0.00,0.00,0.00
2026-06-26 18:59:32.147,994.12,994.13,0.65,1.06,0.00,2.41,0.11,9.47,0.00,-0.00,-0.00,0.00
2026-06-26 18:59:32.149,994.12,994.13,0.65,1.06,0.00,2.39,0.11,9.49,0.00,-0.00,-0.00,0.00
2026-06-26 18:59:32.150,994.12,994.13,0.65,1.06,0.00,2.39,0.11,9.49,0.00,-0.00,-0.00,0.00
2026-06-26 18:59:32.153,994.12,994.13,0.65,1.06,0.00,2.39,0.11,9.49,0.00,-0.00,-0.00,0.00
2026-06-26 18:59:32.157,994.12,994.13,0.65,1.06,0.00,2.39,0.11,9.49,0.00,-0.00,0.00,0.00
2026-06-26 18:59:32.158,994.12,994.13,0.65,1.06,0.00,2.40,0.13,9.45,0.00,-0.00,0.00,0.00
2026-06-26 18:59:32.160,994.12,994.13,0.65,1.06,0.00,2.40,0.13,9.45,0.00,-0.00,0.00,0.00
2026-06-26 18:59:32.165,994.12,994.13,0.65,1.06,0.00,2.40,0.13,9.45,0.00,-0.00,0.00,0.00
2026-06-26 18:59:32.167,994.12,994.13,0.65,1.06,0.00,2.39,0.14,9.49,0.00,-0.00,0.00,0.00
2026-06-26 18:59:32.169,994.12,994.13,0.65,1.06,0.00,2.39,0.14,9.49,0.00,-0.00,0.00,0.00
2026-06-26 18:59:32.172,994.12,994.13,0.65,1.06,0.00,2.39,0.14,9.49,0.00,-0.00,0.00,0.00
2026-06-26 18:59:32.176,994.12,994.13,0.65,1.06,0.00,2.39,0.14,9.49,-0.00,0.00,0.00,0.00
2026-06-26 18:59:32.178,994.12,994.13,0.65,1.06,0.00,2.41,0.12,9.46,-0.00,0.00,0.00,0.00
2026-06-26 18:59:32.180,994.12,994.13,0.65,1.06,0.00,2.41,0.12,9.46,-0.00,0.00,0.00,0.00
2026-06-26 18:59:32.186,994.12,994.13,0.65,1.06,0.00,2.41,0.12,9.46,-0.00,0.00,0.00,0.00
2026-06-26 18:59:32.187,994.12,994.13,0.65,1.06,0.00,2.39,0.11,9.50,0.00,0.00,0.00,0.00
2026-06-26 18:59:32.189,994.12,994.13,0.65,1.06,0.00,2.39,0.11,9.50,0.00,0.00,0.00,0.00
2026-06-26 18:59:32.192,994.12,994.13,0.65,1.06,0.00,2.39,0.11,9.50,0.00,0.00,0.00,0.00
2026-06-26 18:59:32.237,994.12,994.13,0.45,0.89,0.00,2.40,0.13,9.46,-0.00,0.00,-0.00,0.00
2026-06-26 18:59:32.280,994.12,994.13,0.37,0.80,0.00,2.40,0.14,9.47,-0.00,0.00,-0.00,0.00
2026-06-26 18:59:32.285,994.12,994.13,0.37,0.80,0.00,2.40,0.14,9.47,-0.00,0.00,-0.00,0.00
2026-06-26 18:59:32.287,994.12,994.13,0.37,0.80,0.00,2.39,0.11,9.47,0.00,-0.00,-0.00,0.00
2026-06-26 18:59:32.289,994.12,994.13,0.37,0.80,0.00,2.39,0.11,9.47,0.00,-0.00,-0.00,0.00
2026-06-26 18:59:32.291,994.12,994.13,0.37,0.80,0.00,2.39,0.11,9.47,0.00,-0.00,-0.00,0.00
2026-06-26 18:59:32.297,994.12,994.13,0.37,0.80,0.00,2.39,0.11,9.47,0.00,-0.00,-0.00,0.00
2026-06-26 18:59:32.298,994.12,994.13,0.37,0.80,0.00,2.39,0.12,9.51,-0.00,-0.00,0.00,0.00
2026-06-26 18:59:32.300,994.12,994.13,0.37,0.80,0.00,2.39,0.12,9.51,-0.00,-0.00,0.00,0.00
2026-06-26 18:59:32.301,994.12,994.13,0.37,0.80,0.00,2.39,0.12,9.51,-0.00,-0.00,0.00,0.00
2026-06-26 18:59:32.303,994.12,994.13,0.37,0.80,0.00,2.39,0.12,9.51,-0.00,-0.00,0.00,0.00
2026-06-26 18:59:32.306,994.12,994.13,0.37,0.80,0.00,2.39,0.12,9.51,-0.00,-0.00,0.00,0.00
2026-06-26 18:59:32.308,994.12,994.13,0.37,0.80,0.00,2.39,0.12,9.50,0.00,-0.00,0.00,0.00
2026-06-26 18:59:32.310,994.12,994.13,0.37,0.80,0.00,2.39,0.12,9.50,0.00,-0.00,0.00,0.00
2026-06-26 18:59:32.313,994.12,994.13,0.37,0.80,0.00,2.39,0.12,9.50,0.00,-0.00,0.00,0.00
2026-06-26 18:59:32.317,994.12,994.13,0.37,0.80,0.00,2.39,0.12,9.50,-0.00,-0.00,0.00,0.00
2026-06-26 18:59:32.319,994.12,994.13,0.37,0.80,0.00,2.39,0.11,9.49,-0.00,-0.00,0.00,0.00
2026-06-26 18:59:32.320,994.12,994.13,0.37,0.80,0.00,2.39,0.11,9.49,-0.00,-0.00,0.00,0.00
2026-06-26 18:59:32.326,994.12,994.13,0.37,0.80,0.00,2.39,0.11,9.49,-0.00,-0.00,0.00,0.00
2026-06-26 18:59:32.328,994.12,994.13,0.37,0.80,0.00,2.40,0.11,9.47,0.00,0.00,0.00,0.00
2026-06-26 18:59:32.329,994.12,994.13,0.37,0.80,0.00,2.40,0.11,9.47,0.00,0.00,0.00,0.00
2026-06-26 18:59:32.331,994.12,994.13,0.37,0.80,0.00,2.40,0.11,9.47,0.00,0.00,0.00,0.00
2026-06-26 18:59:32.335,994.12,994.13,0.37,0.80,0.00,2.40,0.11,9.47,0.00,0.00,0.00,0.00
2026-06-26 18:59:32.378,994.12,994.12,0.19,0.58,0.00,2.40,0.13,9.47,-0.00,0.00,0.00,0.00
2026-06-26 18:59:32.379,994.12,994.12,0.19,0.58,0.00,2.40,0.13,9.47,-0.00,0.00,0.00,0.00
2026-06-26 18:59:32.426,994.12,994.12,0.44,0.88,0.00,2.40,0.10,9.48,0.00,-0.00,0.00,0.00
2026-06-26 18:59:32.428,994.12,994.12,0.44,0.88,0.00,2.40,0.13,9.47,-0.00,0.00,0.00,0.00
2026-06-26 18:59:32.430,994.12,994.12,0.44,0.88,0.00,2.40,0.13,9.47,-0.00,0.00,0.00,0.00
2026-06-26 18:59:32.431,994.12,994.12,0.44,0.88,0.00,2.40,0.13,9.47,-0.00,0.00,0.00,0.00
2026-06-26 18:59:32.437,994.12,994.12,0.44,0.88,0.00,2.40,0.13,9.47,-0.00,0.00,0.00,0.00
2026-06-26 18:59:32.438,994.12,994.12,0.44,0.88,0.00,2.40,0.11,9.47,-0.00,0.00,0.00,0.00
2026-06-26 18:59:32.440,994.12,994.12,0.44,0.88,0.00,2.40,0.11,9.47,-0.00,0.00,0.00,0.00
2026-06-26 18:59:32.443,994.12,994.12,0.44,0.88,0.00,2.40,0.11,9.47,-0.00,0.00,0.00,0.00
2026-06-26 18:59:32.447,994.12,994.12,0.44,0.88,0.00,2.40,0.11,9.47,0.00,-0.00,-0.00,0.00
2026-06-26 18:59:32.449,994.12,994.12,0.44,0.88,0.00,2.39,0.14,9.47,0.00,-0.00,-0.00,0.00
2026-06-26 18:59:32.451,994.12,994.12,0.44,0.88,0.00,2.39,0.14,9.47,0.00,-0.00,-0.00,0.00
2026-06-26 18:59:32.452,994.12,994.12,0.44,0.88,0.00,2.39,0.14,9.47,0.00,-0.00,-0.00,0.00
2026-06-26 18:59:32.454,994.12,994.12,0.44,0.88,0.00,2.39,0.14,9.47,0.00,-0.00,-0.00,0.00
2026-06-26 18:59:32.457,994.12,994.12,0.44,0.88,0.00,2.39,0.14,9.47,-0.00,0.00,-0.00,0.00
2026-06-26 18:59:32.459,994.12,994.12,0.44,0.88,0.00,2.40,0.11,9.51,-0.00,0.00,-0.00,0.00
2026-06-26 18:59:32.460,994.12,994.12,0.44,0.88,0.00,2.40,0.11,9.51,-0.00,0.00,-0.00,0.00
2026-06-26 18:59:32.465,994.12,994.12,0.44,0.88,0.00,2.40,0.11,9.51,-0.00,0.00,-0.00,0.00
2026-06-26 18:59:32.468,994.12,994.12,0.44,0.88,0.00,2.40,0.11,9.51,0.00,0.00,-0.00,0.00
2026-06-26 18:59:32.469,994.12,994.12,0.44,0.88,0.00,2.40,0.11,9.51,0.00,0.00,-0.00,0.00
2026-06-26 18:59:32.471,994.12,994.12,0.44,0.88,0.00,2.40,0.11,9.51,0.00,0.00,-0.00,0.00
2026-06-26 18:59:32.477,994.12,994.12,0.44,0.88,0.00,2.40,0.11,9.51,0.00,0.00,-0.00,0.00
2026-06-26 18:59:32.519,994.12,994.13,0.89,1.25,0.00,2.40,0.12,9.49,-0.00,0.01,-0.00,0.00
2026-06-26 18:59:32.521,994.12,994.13,0.89,1.25,0.00,2.40,0.12,9.49,-0.00,0.01,-0.00,0.00
2026-06-26 18:59:32.567,994.12,994.13,0.90,1.26,0.00,2.38,0.13,9.50,-0.00,0.00,-0.00,0.00
2026-06-26 18:59:32.569,994.12,994.13,0.90,1.26,0.00,2.41,0.13,9.51,0.00,0.00,-0.00,0.00
2026-06-26 18:59:32.571,994.12,994.13,0.90,1.26,0.00,2.41,0.13,9.51,0.00,0.00,-0.00,0.00
2026-06-26 18:59:32.576,994.12,994.13,0.90,1.26,0.00,2.41,0.13,9.51,0.00,0.00,-0.00,0.00
2026-06-26 18:59:32.578,994.12,994.13,0.90,1.26,0.00,2.40,0.12,9.48,0.00,0.00,0.00,0.00
2026-06-26 18:59:32.580,994.12,994.13,0.90,1.26,0.00,2.40,0.12,9.48,0.00,0.00,0.00,0.00
2026-06-26 18:59:32.582,994.12,994.13,0.90,1.26,0.00,2.40,0.12,9.48,0.00,0.00,0.00,0.00
2026-06-26 18:59:32.587,994.12,994.13,0.90,1.26,0.00,2.40,0.12,9.48,0.00,0.00,0.00,0.00
2026-06-26 18:59:32.589,994.12,994.13,0.90,1.26,0.00,2.41,0.11,9.46,0.00,-0.00,-0.00,0.00
2026-06-26 18:59:32.591,994.12,994.13,0.90,1.26,0.00,2.41,0.11,9.46,0.00,-0.00,-0.00,0.00
2026-06-26 18:59:32.595,994.12,994.13,0.90,1.26,0.00,2.41,0.11,9.46,0.00,-0.00,-0.00,0.00
2026-06-26 18:59:32.598,994.12,994.13,0.90,1.26,0.00,2.41,0.11,9.46,0.00,-0.00,-0.00,0.00
2026-06-26 18:59:32.600,994.12,994.13,0.90,1.26,0.00,2.38,0.10,9.50,0.00,-0.00,-0.00,0.00
2026-06-26 18:59:32.601,994.12,994.13,0.90,1.26,0.00,2.38,0.10,9.50,0.00,-0.00,-0.00,0.00
2026-06-26 18:59:32.603,994.12,994.13,0.90,1.26,0.00,2.38,0.10,9.50,0.00,-0.00,-0.00,0.00
2026-06-26 18:59:32.606,994.12,994.13,0.90,1.26,0.00,2.38,0.10,9.50,0.00,-0.00,-0.00,0.00
2026-06-26 18:59:32.608,994.12,994.13,0.90,1.26,0.00,2.40,0.12,9.48,0.00,0.00,0.00,0.00
2026-06-26 18:59:32.610,994.12,994.13,0.90,1.26,0.00,2.40,0.12,9.48,0.00,0.00,0.00,0.00
2026-06-26 18:59:32.613,994.12,994.13,0.90,1.26,0.00,2.40,0.12,9.48,0.00,0.00,0.00,0.00
2026-06-26 18:59:32.618,994.12,994.13,0.90,1.26,0.00,2.40,0.12,9.48,0.00,0.00,-0.00,0.00
2026-06-26 18:59:32.661,994.12,994.13,0.61,1.04,0.00,2.39,0.12,9.52,0.00,0.00,-0.00,0.00
2026-06-26 18:59:32.667,994.12,994.13,0.61,1.04,0.00,2.39,0.12,9.52,0.00,0.00,-0.00,0.00
2026-06-26 18:59:32.710,994.12,994.13,0.63,1.05,0.00,2.38,0.12,9.48,0.00,-0.00,0.00,0.00
2026-06-26 18:59:32.715,994.12,994.13,0.63,1.05,0.00,2.38,0.12,9.48,0.00,-0.00,0.00,0.00
2026-06-26 18:59:32.718,994.12,994.13,0.63,1.05,0.00,2.38,0.12,9.48,0.00,0.00,-0.00,0.00
2026-06-26 18:59:32.719,994.12,994.13,0.63,1.05,0.00,2.40,0.10,9.50,0.00,0.00,-0.00,0.00
2026-06-26 18:59:32.721,994.12,994.13,0.63,1.05,0.00,2.40,0.10,9.50,0.00,0.00,-0.00,0.00
2026-06-26 18:59:32.726,994.12,994.13,0.63,1.05,0.00,2.40,0.10,9.50,0.00,0.00,-0.00,0.00
2026-06-26 18:59:32.728,994.12,994.13,0.63,1.05,0.00,2.40,0.11,9.49,0.00,0.00,0.00,0.00
2026-06-26 18:59:32.730,994.12,994.13,0.63,1.05,0.00,2.40,0.11,9.49,0.00,0.00,0.00,0.00
2026-06-26 18:59:32.731,994.12,994.13,0.63,1.05,0.00,2.40,0.11,9.49,0.00,0.00,0.00,0.00
2026-06-26 18:59:32.735,994.12,994.13,0.63,1.05,0.00,2.40,0.11,9.49,0.00,0.00,0.00,0.00
2026-06-26 18:59:32.738,994.12,994.13,0.63,1.05,0.00,2.40,0.11,9.49,0.00,-0.00,0.00,0.00
2026-06-26 18:59:32.740,994.12,994.13,0.63,1.05,0.00,2.39,0.12,9.48,0.00,-0.00,0.00,0.00
2026-06-26 18:59:32.741,994.12,994.13,0.63,1.05,0.00,2.39,0.12,9.48,0.00,-0.00,0.00,0.00
2026-06-26 18:59:32.746,994.12,994.13,0.63,1.05,0.00,2.39,0.12,9.48,0.00,-0.00,0.00,0.00
2026-06-26 18:59:32.748,994.12,994.13,0.63,1.05,0.00,2.39,0.12,9.48,-0.00,0.00,0.00,0.00
2026-06-26 18:59:32.750,994.12,994.13,0.63,1.05,0.00,2.40,0.11,9.52,-0.00,0.00,0.00,0.00
2026-06-26 18:59:32.751,994.12,994.13,0.63,1.05,0.00,2.40,0.11,9.52,-0.00,0.00,0.00,0.00
2026-06-26 18:59:32.753,994.12,994.13,0.63,1.05,0.00,2.40,0.11,9.52,-0.00,0.00,0.00,0.00
2026-06-26 18:59:32.755,994.12,994.13,0.63,1.05,0.00,2.40,0.11,9.52,-0.00,0.00,0.00,0.00
2026-06-26 18:59:32.758,994.12,994.13,0.63,1.05,0.00,2.40,0.11,9.52,0.00,-0.00,0.00,0.00
2026-06-26 18:59:32.759,994.12,994.13,0.63,1.05,0.00,2.39,0.12,9.51,0.00,-0.00,0.00,0.00
2026-06-26 18:59:32.801,994.12,994.12,0.48,0.92,0.00,2.40,0.11,9.48,0.00,-0.00,0.00,0.00
2026-06-26 18:59:32.803,994.12,994.12,0.48,0.92,0.00,2.40,0.11,9.48,0.00,-0.00,0.00,0.00
2026-06-26 18:59:32.805,994.12,994.12,0.48,0.92,0.00,2.40,0.11,9.48,0.00,-0.00,0.00,0.00
2026-06-26 18:59:32.808,994.12,994.12,0.48,0.92,0.00,2.40,0.11,9.48,-0.00,-0.00,0.00,0.00
2026-06-26 18:59:32.810,994.12,994.12,0.48,0.92,0.00,2.41,0.12,9.50,-0.00,-0.00,0.00,0.00
2026-06-26 18:59:32.852,994.12,994.12,0.53,0.96,0.00,2.40,0.12,9.48,0.00,0.00,0.00,0.00
2026-06-26 18:59:32.854,994.12,994.12,0.53,0.96,0.00,2.40,0.12,9.48,0.00,0.00,0.00,0.00
2026-06-26 18:59:32.858,994.12,994.12,0.53,0.96,0.00,2.40,0.12,9.48,-0.00,0.00,0.00,0.00
2026-06-26 18:59:32.860,994.12,994.12,0.53,0.96,0.00,2.40,0.12,9.48,-0.00,0.00,0.00,0.00
2026-06-26 18:59:32.861,994.12,994.12,0.53,0.96,0.00,2.40,0.12,9.48,-0.00,0.00,0.00,0.00
2026-06-26 18:59:32.865,994.12,994.12,0.53,0.96,0.00,2.40,0.12,9.48,-0.00,0.00,0.00,0.00
2026-06-26 18:59:32.868,994.12,994.12,0.53,0.96,0.00,2.40,0.12,9.48,0.00,0.00,0.00,0.00
2026-06-26 18:59:32.870,994.12,994.12,0.53,0.96,0.00,2.40,0.12,9.46,0.00,0.00,0.00,0.00
2026-06-26 18:59:32.872,994.12,994.12,0.53,0.96,0.00,2.40,0.12,9.46,0.00,0.00,0.00,0.00
2026-06-26 18:59:32.878,994.12,994.12,0.53,0.96,0.00,2.40,0.12,9.46,-0.00,0.00,0.00,0.00
2026-06-26 18:59:32.880,994.12,994.12,0.53,0.96,0.00,2.40,0.11,9.47,-0.00,0.00,0.00,0.00
2026-06-26 18:59:32.882,994.12,994.12,0.53,0.96,0.00,2.40,0.11,9.47,-0.00,0.00,0.00,0.00
2026-06-26 18:59:32.888,994.12,994.12,0.53,0.96,0.00,2.40,0.11,9.47,-0.00,0.00,0.00,0.00
2026-06-26 18:59:32.889,994.12,994.12,0.53,0.96,0.00,2.40,0.13,9.46,0.00,0.00,-0.00,0.00
2026-06-26 18:59:32.891,994.12,994.12,0.53,0.96,0.00,2.40,0.13,9.46,0.00,0.00,-0.00,0.00
2026-06-26 18:59:32.895,994.12,994.12,0.53,0.96,0.00,2.40,0.13,9.46,0.00,0.00,-0.00,0.00
2026-06-26 18:59:32.898,994.12,994.12,0.53,0.96,0.00,2.40,0.13,9.46,0.00,0.00,0.00,0.00
2026-06-26 18:59:32.900,994.12,994.12,0.53,0.96,0.00,2.40,0.11,9.52,0.00,0.00,0.00,0.00
2026-06-26 18:59:32.947,994.12,994.12,0.53,0.96,0.00,2.40,0.11,9.51,-0.00,-0.00,0.00,0.00
2026-06-26 18:59:32.949,994.12,994.12,0.53,0.96,0.00,2.38,0.15,9.50,-0.00,-0.00,-0.00,0.00
2026-06-26 18:59:32.951,994.12,994.12,0.53,0.96,0.00,2.38,0.15,9.50,-0.00,-0.00,-0.00,0.00
2026-06-26 18:59:32.998,994.12,994.12,0.37,0.80,0.00,2.39,0.13,9.50,-0.00,-0.00,0.00,0.00
2026-06-26 18:59:32.000,994.12,994.12,0.37,0.80,0.00,2.40,0.10,9.48,-0.00,0.00,-0.00,0.00
2026-06-26 18:59:32.001,994.12,994.12,0.37,0.80,0.00,2.40,0.10,9.48,-0.00,0.00,-0.00,0.00
2026-06-26 18:59:33.003,994.12,994.12,0.37,0.80,0.00,2.40,0.10,9.48,-0.00,0.00,-0.00,0.00
2026-06-26 18:59:33.005,994.12,994.12,0.37,0.80,0.00,2.40,0.10,9.48,-0.00,0.00,-0.00,0.00
2026-06-26 18:59:33.008,994.12,994.12,0.37,0.80,0.00,2.40,0.10,9.48,0.00,-0.00,-0.00,0.00
2026-06-26 18:59:33.010,994.12,994.12,0.37,0.80,0.00,2.38,0.11,9.51,0.00,-0.00,-0.00,0.00
2026-06-26 18:59:33.012,994.12,994.12,0.37,0.80,0.00,2.38,0.11,9.51,0.00,-0.00,-0.00,0.00
2026-06-26 18:59:33.017,994.12,994.12,0.37,0.80,0.00,2.38,0.11,9.51,0.00,-0.00,-0.00,0.00
2026-06-26 18:59:33.019,994.12,994.12,0.37,0.80,0.00,2.40,0.11,9.49,-0.00,0.00,0.00,0.00
2026-06-26 18:59:33.021,994.12,994.12,0.37,0.80,0.00,2.40,0.11,9.49,-0.00,0.00,0.00,0.00
2026-06-26 18:59:33.022,994.12,994.12,0.37,0.80,0.00,2.40,0.11,9.49,-0.00,0.00,0.00,0.00
2026-06-26 18:59:33.028,994.12,994.12,0.37,0.80,0.00,2.40,0.11,9.49,-0.00,0.00,0.00,0.00
2026-06-26 18:59:33.030,994.12,994.12,0.37,0.80,0.00,2.41,0.14,9.47,-0.00,0.00,-0.00,0.00
2026-06-26 18:59:33.031,994.12,994.12,0.37,0.80,0.00,2.41,0.14,9.47,-0.00,0.00,-0.00,0.00
2026-06-26 18:59:33.033,994.12,994.12,0.37,0.80,0.00,2.41,0.14,9.47,-0.00,0.00,-0.00,0.00
2026-06-26 18:59:33.038,994.12,994.12,0.37,0.80,0.00,2.41,0.14,9.47,-0.00,0.00,-0.00,0.00
2026-06-26 18:59:33.040,994.12,994.12,0.37,0.80,0.00,2.40,0.14,9.48,0.00,0.00,-0.00,0.00
2026-06-26 18:59:33.041,994.12,994.12,0.37,0.80,0.00,2.40,0.14,9.48,0.00,0.00,-0.00,0.00
2026-06-26 18:59:33.088,994.12,994.12,0.16,0.53,0.00,2.42,0.11,9.48,0.00,0.00,0.00,0.00
2026-06-26 18:59:33.090,994.12,994.12,0.16,0.53,0.00,2.39,0.11,9.47,0.00,0.00,0.00,0.00
2026-06-26 18:59:33.092,994.12,994.12,0.16,0.53,0.00,2.39,0.11,9.47,0.00,0.00,0.00,0.00
2026-06-26 18:59:33.138,994.12,994.12,0.14,0.50,0.00,2.40,0.12,9.44,0.00,0.00,0.00,0.00
2026-06-26 18:59:33.140,994.12,994.12,0.14,0.50,0.00,2.39,0.12,9.53,0.00,0.00,-0.00,0.00
2026-06-26 18:59:33.142,994.12,994.12,0.14,0.50,0.00,2.39,0.12,9.53,0.00,0.00,-0.00,0.00
2026-06-26 18:59:33.145,994.12,994.12,0.14,0.50,0.00,2.39,0.12,9.53,0.00,0.00,-0.00,0.00
2026-06-26 18:59:33.149,994.12,994.12,0.14,0.50,0.00,2.39,0.12,9.53,0.00,-0.00,0.00,0.00
2026-06-26 18:59:33.151,994.12,994.12,0.14,0.50,0.00,2.39,0.14,9.48,0.00,-0.00,0.00,0.00
2026-06-26 18:59:33.152,994.12,994.12,0.14,0.50,0.00,2.39,0.14,9.48,0.00,-0.00,0.00,0.00
2026-06-26 18:59:33.154,994.12,994.12,0.14,0.50,0.00,2.39,0.14,9.48,0.00,-0.00,0.00,0.00
2026-06-26 18:59:33.155,994.12,994.12,0.14,0.50,0.00,2.39,0.14,9.48,0.00,-0.00,0.00,0.00
2026-06-26 18:59:33.159,994.12,994.12,0.14,0.50,0.00,2.39,0.14,9.48,0.00,-0.00,0.00,0.00
2026-06-26 18:59:33.160,994.12,994.12,0.14,0.50,0.00,2.40,0.09,9.48,0.00,-0.00,0.00,0.00
2026-06-26 18:59:33.162,994.12,994.12,0.14,0.50,0.00,2.40,0.09,9.48,0.00,-0.00,0.00,0.00
2026-06-26 18:59:33.166,994.12,994.12,0.14,0.50,0.00,2.40,0.09,9.48,0.00,-0.00,0.00,0.00
2026-06-26 18:59:33.169,994.12,994.12,0.14,0.50,0.00,2.40,0.09,9.48,0.00,-0.00,0.00,0.00
2026-06-26 18:59:33.171,994.12,994.12,0.14,0.50,0.00,2.40,0.11,9.50,0.00,-0.00,0.00,0.00
2026-06-26 18:59:33.172,994.12,994.12,0.14,0.50,0.00,2.40,0.11,9.50,0.00,-0.00,0.00,0.00
2026-06-26 18:59:33.178,994.12,994.12,0.14,0.50,0.00,2.40,0.11,9.50,0.00,-0.00,0.00,0.00
2026-06-26 18:59:33.180,994.12,994.12,0.14,0.50,0.00,2.38,0.12,9.47,0.00,0.00,-0.00,0.00
2026-06-26 18:59:33.182,994.12,994.12,0.14,0.50,0.00,2.38,0.12,9.47,0.00,0.00,-0.00,0.00
2026-06-26 18:59:33.185,994.12,994.12,0.14,0.50,0.00,2.38,0.12,9.47,0.00,0.00,-0.00,0.00
2026-06-26 18:59:33.229,994.12,994.12,0.24,0.64,0.00,2.37,0.12,9.50,0.00,-0.00,0.00,0.00
2026-06-26 18:59:33.231,994.12,994.12,0.24,0.64,0.00,2.41,0.12,9.48,0.00,-0.00,0.00,0.00
2026-06-26 18:59:33.233,994.12,994.12,0.24,0.64,0.00,2.41,0.12,9.48,0.00,-0.00,0.00,0.00
2026-06-26 18:59:33.279,994.12,994.12,0.01,0.14,0.00,2.41,0.13,9.51,0.00,0.00,-0.00,0.00
2026-06-26 18:59:33.280,994.12,994.12,0.01,0.14,0.00,2.40,0.12,9.45,0.00,0.00,-0.00,0.00
2026-06-26 18:59:33.282,994.12,994.12,0.01,0.14,0.00,2.40,0.12,9.45,0.00,0.00,-0.00,0.00
2026-06-26 18:59:33.288,994.12,994.12,0.01,0.14,0.00,2.40,0.12,9.45,0.00,0.00,-0.00,0.00
2026-06-26 18:59:33.290,994.12,994.12,0.01,0.14,0.00,2.41,0.11,9.47,0.00,-0.00,0.00,0.00
2026-06-26 18:59:33.292,994.12,994.12,0.01,0.14,0.00,2.41,0.11,9.47,0.00,-0.00,0.00,0.00
2026-06-26 18:59:33.295,994.12,994.12,0.01,0.14,0.00,2.41,0.11,9.47,0.00,-0.00,0.00,0.00
2026-06-26 18:59:33.299,994.12,994.12,0.01,0.14,0.00,2.41,0.11,9.47,0.00,-0.00,0.00,0.00
2026-06-26 18:59:33.301,994.12,994.12,0.01,0.14,0.00,2.39,0.11,9.50,0.00,-0.00,0.00,0.00
2026-06-26 18:59:33.303,994.12,994.12,0.01,0.14,0.00,2.39,0.11,9.50,0.00,-0.00,0.00,0.00
2026-06-26 18:59:33.305,994.12,994.12,0.01,0.14,0.00,2.39,0.11,9.50,0.00,-0.00,0.00,0.00
2026-06-26 18:59:33.308,994.12,994.12,0.01,0.14,0.00,2.39,0.11,9.50,0.00,-0.00,0.00,0.00
2026-06-26 18:59:33.310,994.12,994.12,0.01,0.14,0.00,2.40,0.11,9.49,0.00,0.00,-0.00,0.00
2026-06-26 18:59:33.312,994.12,994.12,0.01,0.14,0.00,2.40,0.11,9.49,0.00,0.00,-0.00,0.00
2026-06-26 18:59:33.314,994.12,994.12,0.01,0.14,0.00,2.40,0.11,9.49,0.00,0.00,-0.00,0.00
2026-06-26 18:59:33.319,994.12,994.12,0.01,0.14,0.00,2.40,0.11,9.49,0.00,0.00,-0.00,0.00
2026-06-26 18:59:33.321,994.12,994.12,0.01,0.14,0.00,2.39,0.11,9.52,0.00,-0.00,-0.00,0.00
2026-06-26 18:59:33.322,994.12,994.12,0.01,0.14,0.00,2.39,0.11,9.52,0.00,-0.00,-0.00,0.00
2026-06-26 18:59:33.328,994.12,994.12,0.01,0.14,0.00,2.39,0.11,9.52,0.00,-0.00,-0.00,0.00
2026-06-26 18:59:33.371,994.12,994.12,0.04,0.28,0.00,2.41,0.11,9.48,0.00,-0.00,-0.00,0.00
2026-06-26 18:59:33.372,994.12,994.12,0.04,0.28,0.00,2.41,0.11,9.48,0.00,-0.00,-0.00,0.00
2026-06-26 18:59:33.377,994.12,994.12,0.04,0.28,0.00,2.41,0.11,9.48,0.00,-0.00,-0.00,0.00
2026-06-26 18:59:33.420,994.13,994.12,-0.25,-0.67,0.00,2.40,0.13,9.49,0.00,0.00,0.00,0.00
2026-06-26 18:59:33.422,994.13,994.12,-0.25,-0.67,0.00,2.40,0.13,9.49,0.00,0.00,0.00,0.00
2026-06-26 18:59:33.423,994.13,994.12,-0.25,-0.67,0.00,2.40,0.13,9.49,0.00,0.00,0.00,0.00
2026-06-26 18:59:33.429,994.13,994.12,-0.25,-0.67,0.00,2.40,0.13,9.49,0.00,0.00,0.00,0.00
2026-06-26 18:59:33.430,994.13,994.12,-0.25,-0.67,0.00,2.41,0.12,9.48,-0.00,0.00,-0.00,0.00
2026-06-26 18:59:33.432,994.13,994.12,-0.25,-0.67,0.00,2.41,0.12,9.48,-0.00,0.00,-0.00,0.00
2026-06-26 18:59:33.434,994.13,994.12,-0.25,-0.67,0.00,2.41,0.12,9.48,-0.00,0.00,-0.00,0.00
2026-06-26 18:59:33.438,994.13,994.12,-0.25,-0.67,0.00,2.41,0.12,9.48,-0.00,0.00,-0.00,0.00
2026-06-26 18:59:33.440,994.13,994.12,-0.25,-0.67,0.00,2.42,0.13,9.51,0.00,-0.00,0.00,0.00
2026-06-26 18:59:33.442,994.13,994.12,-0.25,-0.67,0.00,2.42,0.13,9.51,0.00,-0.00,0.00,0.00
2026-06-26 18:59:33.443,994.13,994.12,-0.25,-0.67,0.00,2.42,0.13,9.51,0.00,-0.00,0.00,0.00
2026-06-26 18:59:33.449,994.13,994.12,-0.25,-0.67,0.00,2.42,0.13,9.51,0.00,-0.00,0.00,0.00
2026-06-26 18:59:33.450,994.13,994.12,-0.25,-0.67,0.00,2.40,0.10,9.48,-0.00,0.00,0.00,0.00
2026-06-26 18:59:33.452,994.13,994.12,-0.25,-0.67,0.00,2.40,0.10,9.48,-0.00,0.00,0.00,0.00
2026-06-26 18:59:33.453,994.13,994.12,-0.25,-0.67,0.00,2.40,0.10,9.48,-0.00,0.00,0.00,0.00
2026-06-26 18:59:33.455,994.13,994.12,-0.25,-0.67,0.00,2.40,0.10,9.48,-0.00,0.00,0.00,0.00
2026-06-26 18:59:33.456,994.13,994.12,-0.25,-0.67,0.00,2.40,0.10,9.48,-0.00,0.00,0.00,0.00
2026-06-26 18:59:33.460,994.13,994.12,-0.25,-0.67,0.00,2.40,0.10,9.48,-0.00,-0.00,-0.00,0.00
2026-06-26 18:59:33.461,994.13,994.12,-0.25,-0.67,0.00,2.39,0.11,9.50,-0.00,-0.00,-0.00,0.00
2026-06-26 18:59:33.463,994.13,994.12,-0.25,-0.67,0.00,2.39,0.11,9.50,-0.00,-0.00,-0.00,0.00
2026-06-26 18:59:33.467,994.13,994.12,-0.25,-0.67,0.00,2.39,0.11,9.50,-0.00,-0.00,-0.00,0.00
2026-06-26 18:59:33.470,994.13,994.12,-0.25,-0.67,0.00,2.39,0.11,9.50,0.00,0.00,0.00,0.00
2026-06-26 18:59:33.512,994.13,994.12,-0.12,-0.47,0.00,2.40,0.14,9.48,0.00,0.00,-0.00,0.00
2026-06-26 18:59:33.518,994.13,994.12,-0.12,-0.47,0.00,2.40,0.14,9.48,0.00,0.00,-0.00,0.00
2026-06-26 18:59:33.561,994.13,994.12,-0.11,-0.44,0.00,2.42,0.10,9.49,0.00,0.01,0.00,0.00
2026-06-26 18:59:33.562,994.13,994.12,-0.11,-0.44,0.00,2.42,0.10,9.49,0.00,0.01,0.00,0.00
2026-06-26 18:59:33.565,994.13,994.12,-0.11,-0.44,0.00,2.42,0.10,9.49,0.00,0.01,0.00,0.00
2026-06-26 18:59:33.569,994.13,994.12,-0.11,-0.44,0.00,2.42,0.10,9.49,0.00,0.00,0.00,0.00
2026-06-26 18:59:33.571,994.13,994.12,-0.11,-0.44,0.00,2.39,0.12,9.48,0.00,0.00,0.00,0.00
2026-06-26 18:59:33.573,994.13,994.12,-0.11,-0.44,0.00,2.39,0.12,9.48,0.00,0.00,0.00,0.00
2026-06-26 18:59:33.579,994.13,994.12,-0.11,-0.44,0.00,2.39,0.12,9.48,0.00,0.00,0.00,0.00
2026-06-26 18:59:33.580,994.13,994.12,-0.11,-0.44,0.00,2.34,0.17,9.41,-0.00,0.00,-0.00,0.00
2026-06-26 18:59:33.582,994.13,994.12,-0.11,-0.44,0.00,2.34,0.17,9.41,-0.00,0.00,-0.00,0.00
2026-06-26 18:59:33.585,994.13,994.12,-0.11,-0.44,0.00,2.34,0.17,9.41,-0.00,0.00,-0.00,0.00
2026-06-26 18:59:33.589,994.13,994.12,-0.11,-0.44,0.00,2.34,0.17,9.41,-0.00,-0.00,0.00,0.00
2026-06-26 18:59:33.591,994.13,994.12,-0.11,-0.44,0.00,2.14,0.23,9.58,-0.00,-0.00,0.00,0.00
2026-06-26 18:59:33.593,994.13,994.12,-0.11,-0.44,0.00,2.14,0.23,9.58,-0.00,-0.00,0.00,0.00
2026-06-26 18:59:33.598,994.13,994.12,-0.11,-0.44,0.00,2.14,0.23,9.58,-0.00,-0.00,0.00,0.00
2026-06-26 18:59:33.600,994.13,994.12,-0.11,-0.44,0.00,2.19,0.20,9.63,-0.00,-0.01,0.01,0.00
2026-06-26 18:59:33.602,994.13,994.12,-0.11,-0.44,0.00,2.19,0.20,9.63,-0.00,-0.01,0.01,0.00
2026-06-26 18:59:33.604,994.13,994.12,-0.11,-0.44,0.00,2.19,0.20,9.63,-0.00,-0.01,0.01,0.00
2026-06-26 18:59:33.606,994.13,994.12,-0.11,-0.44,0.00,2.19,0.20,9.63,-0.00,-0.01,0.01,0.00
2026-06-26 18:59:33.609,994.13,994.12,-0.11,-0.44,0.00,2.19,0.20,9.63,-0.00,-0.01,0.01,0.00
2026-06-26 18:59:33.611,994.13,994.12,-0.11,-0.44,0.00,2.55,0.09,9.49,0.00,-0.00,0.00,0.00
2026-06-26 18:59:33.654,994.13,994.13,0.27,0.69,0.00,2.43,0.11,9.13,0.00,0.01,-0.00,0.00
2026-06-26 18:59:33.655,994.13,994.13,0.27,0.69,0.00,2.43,0.11,9.13,0.00,0.01,-0.00,0.00
2026-06-26 18:59:33.660,994.13,994.13,0.27,0.69,0.00,2.43,0.11,9.13,0.00,0.00,0.00,0.00
2026-06-26 18:59:33.702,994.13,994.13,0.18,0.56,0.00,2.52,0.07,9.60,0.00,-0.01,-0.00,0.00
2026-06-26 18:59:33.704,994.13,994.13,0.18,0.56,0.00,2.52,0.07,9.60,0.00,-0.01,-0.00,0.00
2026-06-26 18:59:33.705,994.13,994.13,0.18,0.56,0.00,2.52,0.07,9.60,0.00,-0.01,-0.00,0.00
2026-06-26 18:59:33.709,994.13,994.13,0.18,0.56,0.00,2.52,0.07,9.60,0.00,-0.01,-0.00,0.00
2026-06-26 18:59:33.713,994.13,994.13,0.18,0.56,0.00,2.46,0.13,9.50,0.00,0.00,-0.00,0.00
2026-06-26 18:59:33.719,994.13,994.13,0.18,0.56,0.00,2.46,0.13,9.50,0.00,0.00,-0.00,0.00
2026-06-26 18:59:33.721,994.13,994.13,0.18,0.56,0.00,2.35,0.09,9.35,0.00,0.00,-0.00,0.00
2026-06-26 18:59:33.722,994.13,994.13,0.18,0.56,0.00,2.35,0.09,9.35,0.00,0.00,-0.00,0.00
2026-06-26 18:59:33.724,994.13,994.13,0.18,0.56,0.00,2.35,0.09,9.35,0.00,0.00,-0.00,0.00
2026-06-26 18:59:33.730,994.13,994.13,0.18,0.56,0.00,2.35,0.09,9.35,0.00,0.00,-0.00,0.00
2026-06-26 18:59:33.731,994.13,994.13,0.18,0.56,0.00,2.10,0.26,9.53,0.00,0.00,-0.00,0.00
2026-06-26 18:59:33.733,994.13,994.13,0.18,0.56,0.00,2.10,0.26,9.53,0.00,0.00,-0.00,0.00
2026-06-26 18:59:33.734,994.13,994.13,0.18,0.56,0.00,2.10,0.26,9.53,0.00,0.00,-0.00,0.00
2026-06-26 18:59:33.738,994.13,994.13,0.18,0.56,0.00,2.10,0.26,9.53,0.00,0.00,-0.00,0.00
2026-06-26 18:59:33.740,994.13,994.13,0.18,0.56,0.00,2.25,0.23,9.57,-0.00,-0.00,0.00,0.00
2026-06-26 18:59:33.742,994.13,994.13,0.18,0.56,0.00,2.25,0.23,9.57,-0.00,-0.00,0.00,0.00
2026-06-26 18:59:33.744,994.13,994.13,0.18,0.56,0.00,2.25,0.23,9.57,-0.00,-0.00,0.00,0.00
2026-06-26 18:59:33.749,994.13,994.13,0.18,0.56,0.00,2.25,0.23,9.57,-0.00,-0.00,0.00,0.00
2026-06-26 18:59:33.751,994.13,994.13,0.18,0.56,0.00,2.39,0.23,9.46,0.00,0.00,0.00,0.00
2026-06-26 18:59:33.752,994.13,994.13,0.18,0.56,0.00,2.39,0.23,9.46,0.00,0.00,0.00,0.00
2026-06-26 18:59:33.798,994.13,994.13,0.00,0.07,0.00,2.20,0.14,9.43,0.00,-0.00,0.00,0.00
2026-06-26 18:59:33.801,994.13,994.13,0.00,0.07,0.00,2.46,0.11,9.53,0.00,-0.00,0.00,0.00
2026-06-26 18:59:33.846,994.13,994.13,0.08,0.38,0.00,2.44,0.05,9.48,0.00,0.00,0.00,0.00
2026-06-26 18:59:33.850,994.13,994.13,0.08,0.38,0.00,2.44,0.05,9.48,-0.00,0.00,-0.00,0.00
2026-06-26 18:59:33.852,994.13,994.13,0.08,0.38,0.00,2.52,0.07,9.49,-0.00,0.00,-0.00,0.00
2026-06-26 18:59:33.854,994.13,994.13,0.08,0.38,0.00,2.52,0.07,9.49,-0.00,0.00,-0.00,0.00
2026-06-26 18:59:33.855,994.13,994.13,0.08,0.38,0.00,2.52,0.07,9.49,-0.00,0.00,-0.00,0.00
2026-06-26 18:59:33.857,994.13,994.13,0.08,0.38,0.00,2.52,0.07,9.49,-0.00,0.00,-0.00,0.00
2026-06-26 18:59:33.860,994.13,994.13,0.08,0.38,0.00,2.52,0.07,9.49,0.00,-0.00,0.00,0.00
2026-06-26 18:59:33.862,994.13,994.13,0.08,0.38,0.00,2.53,0.07,9.43,0.00,-0.00,0.00,0.00
2026-06-26 18:59:33.864,994.13,994.13,0.08,0.38,0.00,2.53,0.07,9.43,0.00,-0.00,0.00,0.00
2026-06-26 18:59:33.869,994.13,994.13,0.08,0.38,0.00,2.53,0.07,9.43,0.00,-0.00,0.00,0.00
2026-06-26 18:59:33.883,994.13,994.13,0.08,0.38,0.00,2.47,0.01,9.53,0.00,0.00,-0.00,0.00
2026-06-26 18:59:33.893,994.13,994.13,0.08,0.38,0.00,2.63,0.08,9.52,0.00,0.02,-0.01,0.00
2026-06-26 18:59:33.901,994.13,994.13,0.08,0.38,0.00,2.90,-0.02,9.53,0.00,0.02,-0.02,0.00
2026-06-26 18:59:33.941,994.13,994.12,-0.21,-0.60,0.00,2.27,0.02,9.55,0.01,0.06,-0.00,0.00
2026-06-26 18:59:33.943,994.13,994.12,-0.21,-0.60,0.00,2.77,-0.17,9.47,0.01,0.06,-0.00,0.00
2026-06-26 18:59:33.990,994.12,994.12,-0.03,-0.23,0.00,2.92,-0.56,9.34,0.02,0.13,-0.05,0.00
2026-06-26 18:59:33.992,994.12,994.12,-0.03,-0.23,0.00,2.85,-0.59,9.57,0.02,0.16,-0.05,0.00
2026-06-26 18:59:33.993,994.12,994.12,-0.03,-0.23,0.00,2.85,-0.59,9.57,0.02,0.16,-0.05,0.00
2026-06-26 18:59:33.995,994.12,994.12,-0.03,-0.23,0.00,2.85,-0.59,9.57,0.02,0.16,-0.05,0.00
2026-06-26 18:59:33.000,994.12,994.12,-0.03,-0.23,0.00,2.85,-0.59,9.57,0.02,0.16,-0.05,0.00
2026-06-26 18:59:33.002,994.12,994.12,-0.03,-0.23,0.00,2.97,-0.59,9.63,0.02,0.19,-0.05,0.00
2026-06-26 18:59:34.003,994.12,994.12,-0.03,-0.23,0.00,2.97,-0.59,9.63,0.02,0.19,-0.05,0.00
2026-06-26 18:59:34.005,994.12,994.12,-0.03,-0.23,0.00,2.97,-0.59,9.63,0.02,0.19,-0.05,0.00
2026-06-26 18:59:34.006,994.12,994.12,-0.03,-0.23,0.00,2.97,-0.59,9.63,0.02,0.19,-0.05,0.00
2026-06-26 18:59:34.008,994.12,994.12,-0.03,-0.23,0.00,2.97,-0.59,9.63,0.02,0.19,-0.05,0.00
2026-06-26 18:59:34.009,994.12,994.12,-0.03,-0.23,0.00,2.97,-0.59,9.63,0.02,0.19,-0.05,0.00
2026-06-26 18:59:34.011,994.12,994.12,-0.03,-0.23,0.00,2.97,-0.59,9.63,0.02,0.22,-0.04,0.00
2026-06-26 18:59:34.012,994.12,994.12,-0.03,-0.23,0.00,3.19,-0.73,9.57,0.02,0.22,-0.04,0.00
2026-06-26 18:59:34.013,994.12,994.12,-0.03,-0.23,0.00,3.19,-0.73,9.57,0.02,0.22,-0.04,0.00
2026-06-26 18:59:34.015,994.12,994.12,-0.03,-0.23,0.00,3.19,-0.73,9.57,0.02,0.22,-0.04,0.00
2026-06-26 18:59:34.016,994.12,994.12,-0.03,-0.23,0.00,3.19,-0.73,9.57,0.02,0.22,-0.04,0.00
2026-06-26 18:59:34.017,994.12,994.12,-0.03,-0.23,0.00,3.19,-0.73,9.57,0.02,0.22,-0.04,0.00
2026-06-26 18:59:34.019,994.12,994.12,-0.03,-0.23,0.00,3.19,-0.73,9.57,0.02,0.22,-0.04,0.00
2026-06-26 18:59:34.020,994.12,994.12,-0.03,-0.23,0.00,3.19,-0.73,9.57,0.02,0.22,-0.04,0.00
2026-06-26 18:59:34.022,994.12,994.12,-0.03,-0.23,0.00,3.21,-0.60,9.42,0.03,0.25,-0.04,0.00
2026-06-26 18:59:34.023,994.12,994.12,-0.03,-0.23,0.00,3.21,-0.60,9.42,0.03,0.25,-0.04,0.00
2026-06-26 18:59:34.024,994.12,994.12,-0.03,-0.23,0.00,3.21,-0.60,9.42,0.03,0.25,-0.04,0.00
2026-06-26 18:59:34.025,994.12,994.12,-0.03,-0.23,0.00,3.21,-0.60,9.42,0.03,0.25,-0.04,0.00
2026-06-26 18:59:34.027,994.12,994.12,-0.03,-0.23,0.00,3.21,-0.60,9.42,0.03,0.25,-0.04,0.00
2026-06-26 18:59:34.028,994.12,994.12,-0.03,-0.23,0.00,3.21,-0.60,9.42,0.03,0.25,-0.04,0.00
2026-06-26 18:59:34.031,994.12,994.12,-0.03,-0.23,0.00,3.21,-0.60,9.42,0.03,0.28,-0.04,0.00
2026-06-26 18:59:34.032,994.12,994.12,-0.03,-0.23,0.00,3.50,-0.54,9.51,0.03,0.28,-0.04,0.00
2026-06-26 18:59:34.033,994.12,994.12,-0.03,-0.23,0.00,3.50,-0.54,9.51,0.03,0.28,-0.04,0.00
2026-06-26 18:59:34.034,994.12,994.12,-0.03,-0.23,0.00,3.50,-0.54,9.51,0.03,0.28,-0.04,0.00
2026-06-26 18:59:34.035,994.12,994.12,-0.03,-0.23,0.00,3.50,-0.54,9.51,0.03,0.28,-0.04,0.00
2026-06-26 18:59:34.040,994.12,994.12,-0.03,-0.23,0.00,3.50,-0.54,9.51,0.03,0.28,-0.04,0.00
2026-06-26 18:59:34.081,994.12,994.12,-0.21,-0.60,0.00,2.04,0.11,9.53,0.04,0.38,-0.07,0.00
2026-06-26 18:59:34.082,994.12,994.12,-0.21,-0.60,0.00,2.04,0.11,9.53,0.04,0.38,-0.07,0.00
2026-06-26 18:59:34.084,994.12,994.12,-0.21,-0.60,0.00,2.04,0.11,9.53,0.04,0.38,-0.07,0.00
2026-06-26 18:59:34.085,994.12,994.12,-0.21,-0.60,0.00,2.04,0.11,9.53,0.04,0.38,-0.07,0.00
2026-06-26 18:59:34.130,994.13,994.12,-0.53,-0.97,0.00,1.65,0.43,9.55,0.04,0.37,-0.06,0.00
2026-06-26 18:59:34.132,994.13,994.12,-0.53,-0.97,0.00,1.31,0.54,9.46,0.04,0.35,-0.06,0.00
2026-06-26 18:59:34.133,994.13,994.12,-0.53,-0.97,0.00,1.31,0.54,9.46,0.04,0.35,-0.06,0.00
2026-06-26 18:59:34.134,994.13,994.12,-0.53,-0.97,0.00,1.31,0.54,9.46,0.04,0.35,-0.06,0.00
2026-06-26 18:59:34.135,994.13,994.12,-0.53,-0.97,0.00,1.31,0.54,9.46,0.04,0.35,-0.06,0.00
2026-06-26 18:59:34.139,994.13,994.12,-0.53,-0.97,0.00,1.31,0.54,9.46,0.04,0.35,-0.06,0.00
2026-06-26 18:59:34.141,994.13,994.12,-0.53,-0.97,0.00,0.88,0.61,9.49,0.03,0.33,-0.06,0.00
2026-06-26 18:59:34.142,994.13,994.12,-0.53,-0.97,0.00,0.88,0.61,9.49,0.03,0.33,-0.06,0.00
2026-06-26 18:59:34.144,994.13,994.12,-0.53,-0.97,0.00,0.88,0.61,9.49,0.03,0.33,-0.06,0.00
2026-06-26 18:59:34.145,994.13,994.12,-0.53,-0.97,0.00,0.88,0.61,9.49,0.03,0.33,-0.06,0.00
2026-06-26 18:59:34.149,994.13,994.12,-0.53,-0.97,0.00,0.88,0.61,9.49,0.03,0.33,-0.06,0.00
2026-06-26 18:59:34.152,994.13,994.12,-0.53,-0.97,0.00,1.07,0.61,9.56,0.03,0.32,-0.06,0.00
2026-06-26 18:59:34.153,994.13,994.12,-0.53,-0.97,0.00,1.07,0.61,9.56,0.03,0.32,-0.06,0.00
2026-06-26 18:59:34.154,994.13,994.12,-0.53,-0.97,0.00,1.07,0.61,9.56,0.03,0.32,-0.06,0.00
2026-06-26 18:59:34.155,994.13,994.12,-0.53,-0.97,0.00,1.07,0.61,9.56,0.03,0.32,-0.06,0.00
2026-06-26 18:59:34.156,994.13,994.12,-0.53,-0.97,0.00,1.07,0.61,9.56,0.03,0.32,-0.06,0.00
2026-06-26 18:59:34.158,994.13,994.12,-0.53,-0.97,0.00,1.07,0.61,9.56,0.03,0.32,-0.06,0.00
2026-06-26 18:59:34.159,994.13,994.12,-0.53,-0.97,0.00,1.07,0.61,9.56,0.03,0.32,-0.06,0.00
2026-06-26 18:59:34.160,994.13,994.12,-0.53,-0.97,0.00,1.07,0.61,9.56,0.03,0.32,-0.06,0.00
2026-06-26 18:59:34.161,994.13,994.12,-0.53,-0.97,0.00,0.95,0.60,9.62,0.03,0.29,-0.06,0.00
2026-06-26 18:59:34.162,994.13,994.12,-0.53,-0.97,0.00,0.95,0.60,9.62,0.03,0.29,-0.06,0.00
2026-06-26 18:59:34.164,994.13,994.12,-0.53,-0.97,0.00,0.95,0.60,9.62,0.03,0.29,-0.06,0.00
2026-06-26 18:59:34.165,994.13,994.12,-0.53,-0.97,0.00,0.95,0.60,9.62,0.03,0.29,-0.06,0.00
2026-06-26 18:59:34.166,994.13,994.12,-0.53,-0.97,0.00,0.95,0.60,9.62,0.03,0.29,-0.06,0.00
2026-06-26 18:59:34.167,994.13,994.12,-0.53,-0.97,0.00,0.95,0.60,9.62,0.03,0.29,-0.06,0.00
2026-06-26 18:59:34.168,994.13,994.12,-0.53,-0.97,0.00,0.95,0.60,9.62,0.03,0.29,-0.06,0.00
2026-06-26 18:59:34.170,994.13,994.12,-0.53,-0.97,0.00,0.95,0.60,9.62,0.03,0.29,-0.06,0.00
2026-06-26 18:59:34.171,994.13,994.12,-0.53,-0.97,0.00,0.95,0.60,9.62,0.03,0.25,-0.05,0.00
2026-06-26 18:59:34.172,994.13,994.12,-0.53,-0.97,0.00,0.86,0.61,9.54,0.03,0.25,-0.05,0.00
2026-06-26 18:59:34.173,994.13,994.12,-0.53,-0.97,0.00,0.86,0.61,9.54,0.03,0.25,-0.05,0.00
2026-06-26 18:59:34.175,994.13,994.12,-0.53,-0.97,0.00,0.86,0.61,9.54,0.03,0.25,-0.05,0.00
2026-06-26 18:59:34.176,994.13,994.12,-0.53,-0.97,0.00,0.86,0.61,9.54,0.03,0.25,-0.05,0.00
2026-06-26 18:59:34.177,994.13,994.12,-0.53,-0.97,0.00,0.86,0.61,9.54,0.03,0.25,-0.05,0.00
2026-06-26 18:59:34.178,994.13,994.12,-0.53,-0.97,0.00,0.86,0.61,9.54,0.03,0.25,-0.05,0.00
2026-06-26 18:59:34.179,994.13,994.12,-0.53,-0.97,0.00,0.86,0.61,9.54,0.03,0.25,-0.05,0.00
2026-06-26 18:59:34.181,994.13,994.12,-0.53,-0.97,0.00,0.77,0.75,9.47,0.02,0.21,-0.04,0.00
2026-06-26 18:59:34.222,994.13,994.13,-0.12,-0.46,0.00,1.49,0.72,9.47,0.01,0.11,-0.05,0.00
2026-06-26 18:59:34.224,994.13,994.13,-0.12,-0.46,0.00,1.49,0.72,9.47,0.01,0.11,-0.05,0.00
2026-06-26 18:59:34.225,994.13,994.13,-0.12,-0.46,0.00,1.49,0.72,9.47,0.01,0.11,-0.05,0.00
2026-06-26 18:59:34.271,994.13,994.13,-0.38,-0.82,0.00,0.46,0.45,9.58,-0.00,0.01,-0.01,0.00
2026-06-26 18:59:34.272,994.13,994.13,-0.38,-0.82,0.00,0.79,0.74,9.46,-0.01,-0.00,0.02,0.00
2026-06-26 18:59:34.273,994.13,994.13,-0.38,-0.82,0.00,0.79,0.74,9.46,-0.01,-0.00,0.02,0.00
2026-06-26 18:59:34.275,994.13,994.13,-0.38,-0.82,0.00,0.79,0.74,9.46,-0.01,-0.00,0.02,0.00
2026-06-26 18:59:34.280,994.13,994.13,-0.38,-0.82,0.00,0.79,0.74,9.46,-0.01,-0.00,0.02,0.00
2026-06-26 18:59:34.282,994.13,994.13,-0.38,-0.82,0.00,1.40,1.01,9.29,-0.01,-0.01,0.02,0.00
2026-06-26 18:59:34.283,994.13,994.13,-0.38,-0.82,0.00,1.40,1.01,9.29,-0.01,-0.01,0.02,0.00
2026-06-26 18:59:34.284,994.13,994.13,-0.38,-0.82,0.00,1.40,1.01,9.29,-0.01,-0.01,0.02,0.00
2026-06-26 18:59:34.287,994.13,994.13,-0.38,-0.82,0.00,1.40,1.01,9.29,-0.01,-0.01,0.02,0.00
2026-06-26 18:59:34.291,994.13,994.13,-0.38,-0.82,0.00,1.40,1.01,9.29,-0.00,-0.01,0.01,0.00
2026-06-26 18:59:34.293,994.13,994.13,-0.38,-0.82,0.00,2.44,0.86,9.73,-0.00,-0.01,0.01,0.00
2026-06-26 18:59:34.295,994.13,994.13,-0.38,-0.82,0.00,2.44,0.86,9.73,-0.00,-0.01,0.01,0.00
2026-06-26 18:59:34.301,994.13,994.13,-0.38,-0.82,0.00,2.44,0.86,9.73,-0.00,-0.01,0.01,0.00
2026-06-26 18:59:34.304,994.13,994.13,-0.38,-0.82,0.00,1.81,0.63,9.70,0.00,-0.04,-0.02,0.00
2026-06-26 18:59:34.306,994.13,994.13,-0.38,-0.82,0.00,1.81,0.63,9.70,0.00,-0.04,-0.02,0.00
2026-06-26 18:59:34.309,994.13,994.13,-0.38,-0.82,0.00,1.81,0.63,9.70,0.00,-0.04,-0.02,0.00
2026-06-26 18:59:34.312,994.13,994.13,-0.38,-0.82,0.00,1.81,0.63,9.70,0.00,-0.04,-0.02,0.00
2026-06-26 18:59:34.314,994.13,994.13,-0.38,-0.82,0.00,1.79,0.49,9.50,0.00,-0.04,-0.04,0.00
2026-06-26 18:59:34.317,994.13,994.13,-0.38,-0.82,0.00,1.79,0.49,9.50,0.00,-0.04,-0.04,0.00
2026-06-26 18:59:34.318,994.13,994.13,-0.38,-0.82,0.00,1.79,0.49,9.50,0.00,-0.04,-0.04,0.00
2026-06-26 18:59:34.320,994.13,994.13,-0.38,-0.82,0.00,1.79,0.49,9.50,0.00,-0.04,-0.04,0.00
2026-06-26 18:59:34.322,994.13,994.13,-0.38,-0.82,0.00,1.79,0.49,9.50,0.00,-0.03,-0.05,0.00
2026-06-26 18:59:34.363,994.13,994.13,-0.38,-0.82,0.00,1.30,0.59,9.71,-0.00,0.01,0.01,0.00
2026-06-26 18:59:34.371,994.13,994.13,-0.38,-0.82,0.00,1.30,0.59,9.71,-0.00,0.01,0.01,0.00
2026-06-26 18:59:34.412,994.13,994.13,-0.37,-0.81,0.00,2.32,-1.88,9.71,0.00,0.10,-0.00,0.00
2026-06-26 18:59:34.413,994.13,994.13,-0.37,-0.81,0.00,2.87,-0.52,9.61,0.00,0.10,-0.00,0.00
