timestamp,pressure_bag,pressure_bme,diff_pressure,v_wind_est,speed,accel_x,accel_y,accel_z,gyro_x,gyro_y,gyro_z,power
2026-06-27 10:13:26.402,995.03,994.95,-7.98,-3.73,0.00,-0.33,0.36,9.38,0.00,-0.00,0.00,0.00
2026-06-27 10:13:26.403,995.03,994.95,-7.98,-3.73,0.00,-0.32,0.39,9.36,0.00,-0.00,0.00,0.00
2026-06-27 10:13:26.405,995.03,994.95,-7.98,-3.73,0.00,-0.32,0.39,9.36,0.00,-0.00,0.00,0.00
2026-06-27 10:13:26.406,995.03,994.95,-7.98,-3.73,0.00,-0.32,0.39,9.36,0.00,-0.00,0.00,0.00
2026-06-27 10:13:26.409,995.03,994.95,-7.98,-3.73,0.00,-0.32,0.39,9.36,0.00,-0.00,0.00,0.00
2026-06-27 10:13:26.412,995.03,994.95,-7.98,-3.73,0.00,-0.32,0.39,9.36,0.00,0.00,0.00,0.00
2026-06-27 10:13:26.414,995.03,994.95,-7.98,-3.73,0.00,-0.33,0.37,9.35,0.00,0.00,0.00,0.00
2026-06-27 10:13:26.419,995.03,994.95,-7.98,-3.73,0.00,-0.33,0.37,9.35,0.00,0.00,0.00,0.00
2026-06-27 10:13:26.423,995.03,994.95,-7.98,-3.73,0.00,-0.33,0.37,9.35,-0.00,0.00,0.00,0.00
2026-06-27 10:13:26.424,995.03,994.95,-7.98,-3.73,0.00,-0.33,0.35,9.38,-0.00,0.00,0.00,0.00
2026-06-27 10:13:26.426,995.03,994.95,-7.98,-3.73,0.00,-0.33,0.35,9.38,-0.00,0.00,0.00,0.00
2026-06-27 10:13:26.432,995.03,994.95,-7.98,-3.73,0.00,-0.33,0.35,9.38,-0.00,0.00,0.00,0.00
2026-06-27 10:13:26.434,995.03,994.95,-7.98,-3.73,0.00,-0.31,0.38,9.36,0.00,0.00,-0.00,0.00
2026-06-27 10:13:26.575,995.01,994.98,-3.16,-2.35,0.00,-0.32,0.36,9.37,0.00,0.00,-0.00,0.00
2026-06-27 10:13:26.579,995.01,994.98,-3.16,-2.35,0.00,-0.32,0.36,9.37,0.00,0.00,-0.00,0.00
2026-06-27 10:13:26.583,995.01,994.98,-3.16,-2.35,0.00,-0.32,0.36,9.37,0.00,0.00,0.00,0.00
2026-06-27 10:13:26.585,995.01,994.98,-3.16,-2.35,0.00,-0.34,0.38,9.39,0.00,0.00,0.00,0.00
2026-06-27 10:13:26.586,995.01,994.98,-3.16,-2.35,0.00,-0.34,0.38,9.39,0.00,0.00,0.00,0.00
2026-06-27 10:13:26.591,995.01,994.98,-3.16,-2.35,0.00,-0.34,0.38,9.39,0.00,0.00,0.00,0.00
2026-06-27 10:13:26.593,995.01,994.98,-3.16,-2.35,0.00,-0.33,0.38,9.38,0.00,-0.00,0.00,0.00
2026-06-27 10:13:26.594,995.01,994.98,-3.16,-2.35,0.00,-0.33,0.38,9.38,0.00,-0.00,0.00,0.00
2026-06-27 10:13:26.595,995.01,994.98,-3.16,-2.35,0.00,-0.33,0.38,9.38,0.00,-0.00,0.00,0.00
2026-06-27 10:13:26.597,995.01,994.98,-3.16,-2.35,0.00,-0.33,0.38,9.38,0.00,-0.00,0.00,0.00
2026-06-27 10:13:26.602,995.01,994.98,-3.16,-2.35,0.00,-0.33,0.38,9.38,0.00,-0.00,0.00,0.00
2026-06-27 10:13:26.603,995.01,994.98,-3.16,-2.35,0.00,-0.33,0.37,9.37,0.00,0.00,0.00,0.00
2026-06-27 10:13:26.604,995.01,994.98,-3.16,-2.35,0.00,-0.33,0.37,9.37,0.00,0.00,0.00,0.00
2026-06-27 10:13:26.606,995.01,994.98,-3.16,-2.35,0.00,-0.33,0.37,9.37,0.00,0.00,0.00,0.00
2026-06-27 10:13:26.607,995.01,994.98,-3.16,-2.35,0.00,-0.33,0.37,9.37,0.00,0.00,0.00,0.00
2026-06-27 10:13:26.610,995.01,994.98,-3.16,-2.35,0.00,-0.33,0.37,9.37,0.00,0.00,0.00,0.00
2026-06-27 10:13:26.753,995.02,994.98,-4.11,-2.68,0.00,-0.32,0.36,9.36,-0.00,0.00,-0.00,0.00
2026-06-27 10:13:26.754,995.02,994.98,-4.11,-2.68,0.00,-0.33,0.36,9.36,-0.00,-0.00,0.00,0.00
2026-06-27 10:13:26.755,995.02,994.98,-4.11,-2.68,0.00,-0.33,0.36,9.36,-0.00,-0.00,0.00,0.00
2026-06-27 10:13:26.757,995.02,994.98,-4.11,-2.68,0.00,-0.33,0.36,9.36,-0.00,-0.00,0.00,0.00
2026-06-27 10:13:26.761,995.02,994.98,-4.11,-2.68,0.00,-0.33,0.36,9.36,-0.00,-0.00,0.00,0.00
2026-06-27 10:13:26.763,995.02,994.98,-4.11,-2.68,0.00,-0.33,0.36,9.36,-0.00,0.00,0.00,0.00
2026-06-27 10:13:26.765,995.02,994.98,-4.11,-2.68,0.00,-0.33,0.40,9.36,-0.00,0.00,0.00,0.00
2026-06-27 10:13:26.766,995.02,994.98,-4.11,-2.68,0.00,-0.33,0.40,9.36,-0.00,0.00,0.00,0.00
2026-06-27 10:13:26.772,995.02,994.98,-4.11,-2.68,0.00,-0.33,0.40,9.36,-0.00,0.00,0.00,0.00
2026-06-27 10:13:26.774,995.02,994.98,-4.11,-2.68,0.00,-0.32,0.37,9.37,-0.00,0.00,0.00,0.00
2026-06-27 10:13:26.775,995.02,994.98,-4.11,-2.68,0.00,-0.32,0.37,9.37,-0.00,0.00,0.00,0.00
2026-06-27 10:13:26.777,995.02,994.98,-4.11,-2.68,0.00,-0.32,0.37,9.37,-0.00,0.00,0.00,0.00
2026-06-27 10:13:26.783,995.02,994.98,-4.11,-2.68,0.00,-0.32,0.37,9.37,-0.00,0.00,0.00,0.00
2026-06-27 10:13:26.785,995.02,994.98,-4.11,-2.68,0.00,-0.34,0.38,9.38,-0.00,0.00,-0.00,0.00
2026-06-27 10:13:26.926,995.02,994.98,-3.50,-2.47,0.00,-0.33,0.37,9.38,-0.00,0.00,0.00,0.00
2026-06-27 10:13:26.931,995.02,994.98,-3.50,-2.47,0.00,-0.33,0.37,9.38,-0.00,0.00,0.00,0.00
2026-06-27 10:13:26.934,995.02,994.98,-3.50,-2.47,0.00,-0.33,0.37,9.38,0.00,0.00,-0.00,0.00
2026-06-27 10:13:26.935,995.02,994.98,-3.50,-2.47,0.00,-0.34,0.37,9.36,0.00,0.00,-0.00,0.00
2026-06-27 10:13:26.936,995.02,994.98,-3.50,-2.47,0.00,-0.34,0.37,9.36,0.00,0.00,-0.00,0.00
2026-06-27 10:13:26.938,995.02,994.98,-3.50,-2.47,0.00,-0.34,0.37,9.36,0.00,0.00,-0.00,0.00
2026-06-27 10:13:26.943,995.02,994.98,-3.50,-2.47,0.00,-0.34,0.37,9.36,0.00,0.00,-0.00,0.00
2026-06-27 10:13:26.945,995.02,994.98,-3.50,-2.47,0.00,-0.31,0.38,9.36,-0.00,0.00,0.00,0.00
2026-06-27 10:13:26.946,995.02,994.98,-3.50,-2.47,0.00,-0.31,0.38,9.36,-0.00,0.00,0.00,0.00
2026-06-27 10:13:26.947,995.02,994.98,-3.50,-2.47,0.00,-0.31,0.38,9.36,-0.00,0.00,0.00,0.00
2026-06-27 10:13:26.953,995.02,994.98,-3.50,-2.47,0.00,-0.31,0.38,9.36,-0.00,0.00,0.00,0.00
2026-06-27 10:13:26.954,995.02,994.98,-3.50,-2.47,0.00,-0.32,0.38,9.38,-0.00,0.00,0.00,0.00
2026-06-27 10:13:26.955,995.02,994.98,-3.50,-2.47,0.00,-0.32,0.38,9.38,-0.00,0.00,0.00,0.00
2026-06-27 10:13:26.957,995.02,994.98,-3.50,-2.47,0.00,-0.32,0.38,9.38,-0.00,0.00,0.00,0.00
2026-06-27 10:13:26.958,995.02,994.98,-3.50,-2.47,0.00,-0.32,0.38,9.38,-0.00,0.00,0.00,0.00
2026-06-27 10:13:26.963,995.02,994.98,-3.50,-2.47,0.00,-0.32,0.38,9.38,-0.00,0.00,0.00,0.00
2026-06-27 10:13:27.104,995.02,994.97,-5.49,-3.09,0.00,-0.34,0.38,9.37,0.00,0.00,0.00,0.00
2026-06-27 10:13:27.106,995.02,994.97,-5.49,-3.09,0.00,-0.34,0.36,9.37,0.00,0.00,0.00,0.00
2026-06-27 10:13:27.107,995.02,994.97,-5.49,-3.09,0.00,-0.34,0.36,9.37,0.00,0.00,0.00,0.00
2026-06-27 10:13:27.108,995.02,994.97,-5.49,-3.09,0.00,-0.34,0.36,9.37,0.00,0.00,0.00,0.00
2026-06-27 10:13:27.110,995.02,994.97,-5.49,-3.09,0.00,-0.34,0.36,9.37,0.00,0.00,0.00,0.00
2026-06-27 10:13:27.114,995.02,994.97,-5.49,-3.09,0.00,-0.34,0.36,9.37,-0.00,0.00,0.00,0.00
2026-06-27 10:13:27.115,995.02,994.97,-5.49,-3.09,0.00,-0.33,0.37,9.36,-0.00,0.00,0.00,0.00
2026-06-27 10:13:27.116,995.02,994.97,-5.49,-3.09,0.00,-0.33,0.37,9.36,-0.00,0.00,0.00,0.00
2026-06-27 10:13:27.117,995.02,994.97,-5.49,-3.09,0.00,-0.33,0.37,9.36,-0.00,0.00,0.00,0.00
2026-06-27 10:13:27.120,995.02,994.97,-5.49,-3.09,0.00,-0.33,0.37,9.36,-0.00,0.00,0.00,0.00
2026-06-27 10:13:27.124,995.02,994.97,-5.49,-3.09,0.00,-0.33,0.37,9.36,-0.00,-0.00,0.00,0.00
2026-06-27 10:13:27.125,995.02,994.97,-5.49,-3.09,0.00,-0.34,0.38,9.36,-0.00,-0.00,0.00,0.00
2026-06-27 10:13:27.126,995.02,994.97,-5.49,-3.09,0.00,-0.34,0.38,9.36,-0.00,-0.00,0.00,0.00
2026-06-27 10:13:27.128,995.02,994.97,-5.49,-3.09,0.00,-0.34,0.38,9.36,-0.00,-0.00,0.00,0.00
2026-06-27 10:13:27.134,995.02,994.97,-5.49,-3.09,0.00,-0.34,0.38,9.36,-0.00,-0.00,0.00,0.00
2026-06-27 10:13:27.135,995.02,994.97,-5.49,-3.09,0.00,-0.34,0.37,9.35,0.00,-0.00,0.00,0.00
2026-06-27 10:13:27.136,995.02,994.97,-5.49,-3.09,0.00,-0.34,0.37,9.35,0.00,-0.00,0.00,0.00
2026-06-27 10:13:27.138,995.02,994.97,-5.49,-3.09,0.00,-0.34,0.37,9.35,0.00,-0.00,0.00,0.00
2026-06-27 10:13:27.276,995.03,994.97,-5.39,-3.06,0.00,-0.33,0.37,9.35,0.00,0.00,0.00,0.00
2026-06-27 10:13:27.277,995.03,994.97,-5.39,-3.06,0.00,-0.33,0.37,9.35,0.00,0.00,0.00,0.00
2026-06-27 10:13:27.280,995.03,994.97,-5.39,-3.06,0.00,-0.33,0.37,9.35,0.00,0.00,0.00,0.00
2026-06-27 10:13:27.284,995.03,994.97,-5.39,-3.06,0.00,-0.33,0.37,9.35,0.00,0.00,0.00,0.00
2026-06-27 10:13:27.286,995.03,994.97,-5.39,-3.06,0.00,-0.33,0.39,9.38,0.00,0.00,0.00,0.00
2026-06-27 10:13:27.287,995.03,994.97,-5.39,-3.06,0.00,-0.33,0.39,9.38,0.00,0.00,0.00,0.00
2026-06-27 10:13:27.288,995.03,994.97,-5.39,-3.06,0.00,-0.33,0.39,9.38,0.00,0.00,0.00,0.00
2026-06-27 10:13:27.293,995.03,994.97,-5.39,-3.06,0.00,-0.33,0.39,9.38,0.00,0.00,0.00,0.00
2026-06-27 10:13:27.295,995.03,994.97,-5.39,-3.06,0.00,-0.33,0.36,9.38,0.00,0.00,0.00,0.00
2026-06-27 10:13:27.296,995.03,994.97,-5.39,-3.06,0.00,-0.33,0.36,9.38,0.00,0.00,0.00,0.00
2026-06-27 10:13:27.297,995.03,994.97,-5.39,-3.06,0.00,-0.33,0.36,9.38,0.00,0.00,0.00,0.00
2026-06-27 10:13:27.299,995.03,994.97,-5.39,-3.06,0.00,-0.33,0.36,9.38,0.00,0.00,0.00,0.00
2026-06-27 10:13:27.304,995.03,994.97,-5.39,-3.06,0.00,-0.33,0.36,9.38,0.00,0.00,0.00,0.00
2026-06-27 10:13:27.305,995.03,994.97,-5.39,-3.06,0.00,-0.33,0.36,9.38,-0.00,0.00,0.00,0.00
2026-06-27 10:13:27.307,995.03,994.97,-5.39,-3.06,0.00,-0.33,0.36,9.38,-0.00,0.00,0.00,0.00
2026-06-27 10:13:27.308,995.03,994.97,-5.39,-3.06,0.00,-0.33,0.36,9.38,-0.00,0.00,0.00,0.00
2026-06-27 10:13:27.309,995.03,994.97,-5.39,-3.06,0.00,-0.33,0.36,9.38,-0.00,0.00,0.00,0.00
2026-06-27 10:13:27.312,995.03,994.97,-5.39,-3.06,0.00,-0.33,0.36,9.38,-0.00,0.00,0.00,0.00
2026-06-27 10:13:27.455,995.03,994.99,-3.80,-2.57,0.00,-0.35,0.39,9.37,0.00,0.00,0.00,0.00
2026-06-27 10:13:27.456,995.03,994.99,-3.80,-2.57,0.00,-0.31,0.37,9.39,0.00,0.00,0.00,0.00
2026-06-27 10:13:27.458,995.03,994.99,-3.80,-2.57,0.00,-0.31,0.37,9.39,0.00,0.00,0.00,0.00
2026-06-27 10:13:27.459,995.03,994.99,-3.80,-2.57,0.00,-0.31,0.37,9.39,0.00,0.00,0.00,0.00
2026-06-27 10:13:27.464,995.03,994.99,-3.80,-2.57,0.00,-0.31,0.37,9.39,0.00,0.00,0.00,0.00
2026-06-27 10:13:27.466,995.03,994.99,-3.80,-2.57,0.00,-0.32,0.37,9.36,0.00,0.00,0.00,0.00
2026-06-27 10:13:27.467,995.03,994.99,-3.80,-2.57,0.00,-0.32,0.37,9.36,0.00,0.00,0.00,0.00
2026-06-27 10:13:27.468,995.03,994.99,-3.80,-2.57,0.00,-0.32,0.37,9.36,0.00,0.00,0.00,0.00
2026-06-27 10:13:27.472,995.03,994.99,-3.80,-2.57,0.00,-0.32,0.37,9.36,0.00,0.00,0.00,0.00
2026-06-27 10:13:27.475,995.03,994.99,-3.80,-2.57,0.00,-0.32,0.37,9.36,0.00,-0.00,0.00,0.00
2026-06-27 10:13:27.477,995.03,994.99,-3.80,-2.57,0.00,-0.33,0.38,9.36,0.00,-0.00,0.00,0.00
2026-06-27 10:13:27.478,995.03,994.99,-3.80,-2.57,0.00,-0.33,0.38,9.36,0.00,-0.00,0.00,0.00
2026-06-27 10:13:27.482,995.03,994.99,-3.80,-2.57,0.00,-0.33,0.38,9.36,0.00,-0.00,0.00,0.00
2026-06-27 10:13:27.485,995.03,994.99,-3.80,-2.57,0.00,-0.33,0.38,9.36,0.00,0.00,0.00,0.00
2026-06-27 10:13:27.486,995.03,994.99,-3.80,-2.57,0.00,-0.33,0.37,9.38,0.00,0.00,0.00,0.00
2026-06-27 10:13:27.488,995.03,994.99,-3.80,-2.57,0.00,-0.33,0.37,9.38,0.00,0.00,0.00,0.00
2026-06-27 10:13:27.489,995.03,994.99,-3.80,-2.57,0.00,-0.33,0.37,9.38,0.00,0.00,0.00,0.00
2026-06-27 10:13:27.631,995.03,994.99,-4.59,-2.83,0.00,-0.33,0.36,9.36,0.00,-0.00,-0.00,0.00
2026-06-27 10:13:27.635,995.03,994.99,-4.59,-2.83,0.00,-0.33,0.36,9.36,-0.00,0.00,-0.00,0.00
2026-06-27 10:13:27.637,995.03,994.99,-4.59,-2.83,0.00,-0.31,0.37,9.37,-0.00,0.00,-0.00,0.00
2026-06-27 10:13:27.638,995.03,994.99,-4.59,-2.83,0.00,-0.31,0.37,9.37,-0.00,0.00,-0.00,0.00
2026-06-27 10:13:27.639,995.03,994.99,-4.59,-2.83,0.00,-0.31,0.37,9.37,-0.00,0.00,-0.00,0.00
2026-06-27 10:13:27.645,995.03,994.99,-4.59,-2.83,0.00,-0.31,0.37,9.37,-0.00,0.00,-0.00,0.00
2026-06-27 10:13:27.647,995.03,994.99,-4.59,-2.83,0.00,-0.34,0.38,9.39,-0.00,0.00,0.00,0.00
2026-06-27 10:13:27.649,995.03,994.99,-4.59,-2.83,0.00,-0.34,0.38,9.39,-0.00,0.00,0.00,0.00
2026-06-27 10:13:27.655,995.03,994.99,-4.59,-2.83,0.00,-0.34,0.38,9.39,-0.00,0.00,0.00,0.00
2026-06-27 10:13:27.656,995.03,994.99,-4.59,-2.83,0.00,-0.33,0.39,9.35,0.00,0.00,-0.00,0.00
2026-06-27 10:13:27.658,995.03,994.99,-4.59,-2.83,0.00,-0.33,0.39,9.35,0.00,0.00,-0.00,0.00
2026-06-27 10:13:27.659,995.03,994.99,-4.59,-2.83,0.00,-0.33,0.39,9.35,0.00,0.00,-0.00,0.00
2026-06-27 10:13:27.662,995.03,994.99,-4.59,-2.83,0.00,-0.33,0.39,9.35,0.00,0.00,-0.00,0.00
2026-06-27 10:13:27.666,995.03,994.99,-4.59,-2.83,0.00,-0.33,0.39,9.35,0.00,-0.00,-0.00,0.00
2026-06-27 10:13:27.806,995.03,994.96,-7.14,-3.53,0.00,-0.31,0.36,9.36,0.00,0.00,0.00,0.00
2026-06-27 10:13:27.809,995.03,994.96,-7.14,-3.53,0.00,-0.33,0.37,9.36,0.00,0.00,0.00,0.00
2026-06-27 10:13:27.810,995.03,994.96,-7.14,-3.53,0.00,-0.33,0.37,9.36,0.00,0.00,0.00,0.00
2026-06-27 10:13:27.816,995.03,994.96,-7.14,-3.53,0.00,-0.33,0.37,9.36,0.00,0.00,0.00,0.00
2026-06-27 10:13:27.817,995.03,994.96,-7.14,-3.53,0.00,-0.34,0.38,9.38,0.00,0.00,0.00,0.00
2026-06-27 10:13:27.818,995.03,994.96,-7.14,-3.53,0.00,-0.34,0.38,9.38,0.00,0.00,0.00,0.00
2026-06-27 10:13:27.819,995.03,994.96,-7.14,-3.53,0.00,-0.34,0.38,9.38,0.00,0.00,0.00,0.00
2026-06-27 10:13:27.823,995.03,994.96,-7.14,-3.53,0.00,-0.34,0.38,9.38,0.00,0.00,0.00,0.00
2026-06-27 10:13:27.826,995.03,994.96,-7.14,-3.53,0.00,-0.34,0.38,9.38,0.00,0.00,-0.00,0.00
2026-06-27 10:13:27.827,995.03,994.96,-7.14,-3.53,0.00,-0.34,0.37,9.37,0.00,0.00,-0.00,0.00
2026-06-27 10:13:27.829,995.03,994.96,-7.14,-3.53,0.00,-0.34,0.37,9.37,0.00,0.00,-0.00,0.00
2026-06-27 10:13:27.830,995.03,994.96,-7.14,-3.53,0.00,-0.34,0.37,9.37,0.00,0.00,-0.00,0.00
2026-06-27 10:13:27.835,995.03,994.96,-7.14,-3.53,0.00,-0.34,0.37,9.37,0.00,0.00,-0.00,0.00
2026-06-27 10:13:27.836,995.03,994.96,-7.14,-3.53,0.00,-0.32,0.37,9.37,0.00,-0.00,0.00,0.00
2026-06-27 10:13:27.838,995.03,994.96,-7.14,-3.53,0.00,-0.32,0.37,9.37,0.00,-0.00,0.00,0.00
2026-06-27 10:13:27.839,995.03,994.96,-7.14,-3.53,0.00,-0.32,0.37,9.37,0.00,-0.00,0.00,0.00
2026-06-27 10:13:27.842,995.03,994.96,-7.14,-3.53,0.00,-0.32,0.37,9.37,0.00,-0.00,0.00,0.00
2026-06-27 10:13:27.986,995.02,994.99,-2.72,-2.18,0.00,-0.33,0.37,9.36,-0.00,-0.00,-0.00,0.00
2026-06-27 10:13:27.987,995.02,994.99,-2.72,-2.18,0.00,-0.34,0.36,9.38,0.00,-0.00,0.00,0.00
2026-06-27 10:13:27.989,995.02,994.99,-2.72,-2.18,0.00,-0.34,0.36,9.38,0.00,-0.00,0.00,0.00
2026-06-27 10:13:27.990,995.02,994.99,-2.72,-2.18,0.00,-0.34,0.36,9.38,0.00,-0.00,0.00,0.00
2026-06-27 10:13:27.992,995.02,994.99,-2.72,-2.18,0.00,-0.34,0.36,9.38,0.00,-0.00,0.00,0.00
2026-06-27 10:13:27.996,995.02,994.99,-2.72,-2.18,0.00,-0.34,0.36,9.38,0.00,0.00,0.00,0.00
2026-06-27 10:13:27.998,995.02,994.99,-2.72,-2.18,0.00,-0.32,0.36,9.36,0.00,0.00,0.00,0.00
2026-06-27 10:13:27.999,995.02,994.99,-2.72,-2.18,0.00,-0.32,0.36,9.36,0.00,0.00,0.00,0.00
2026-06-27 10:13:27.000,995.02,994.99,-2.72,-2.18,0.00,-0.32,0.36,9.36,0.00,0.00,0.00,0.00
2026-06-27 10:13:28.006,995.02,994.99,-2.72,-2.18,0.00,-0.32,0.36,9.36,0.00,0.00,0.00,0.00
2026-06-27 10:13:28.009,995.02,994.99,-2.72,-2.18,0.00,-0.33,0.38,9.38,-0.00,0.00,0.00,0.00
2026-06-27 10:13:28.016,995.02,994.99,-2.72,-2.18,0.00,-0.33,0.38,9.38,-0.00,0.00,0.00,0.00
2026-06-27 10:13:28.018,995.02,994.99,-2.72,-2.18,0.00,-0.33,0.36,9.38,0.00,0.01,-0.00,0.00
2026-06-27 10:13:28.158,995.03,994.98,-5.00,-2.95,0.00,-0.31,0.37,9.35,0.00,0.00,0.00,0.00
2026-06-27 10:13:28.159,995.03,994.98,-5.00,-2.95,0.00,-0.31,0.37,9.35,0.00,0.00,0.00,0.00
2026-06-27 10:13:28.161,995.03,994.98,-5.00,-2.95,0.00,-0.31,0.37,9.35,0.00,0.00,0.00,0.00
2026-06-27 10:13:28.166,995.03,994.98,-5.00,-2.95,0.00,-0.31,0.37,9.35,0.00,0.00,0.00,0.00
2026-06-27 10:13:28.168,995.03,994.98,-5.00,-2.95,0.00,-0.33,0.36,9.38,0.00,-0.00,0.00,0.00
2026-06-27 10:13:28.169,995.03,994.98,-5.00,-2.95,0.00,-0.33,0.36,9.38,0.00,-0.00,0.00,0.00
2026-06-27 10:13:28.171,995.03,994.98,-5.00,-2.95,0.00,-0.33,0.36,9.38,0.00,-0.00,0.00,0.00
2026-06-27 10:13:28.177,995.03,994.98,-5.00,-2.95,0.00,-0.33,0.36,9.38,0.00,-0.00,0.00,0.00
2026-06-27 10:13:28.178,995.03,994.98,-5.00,-2.95,0.00,-0.34,0.35,9.34,0.00,-0.00,0.00,0.00
2026-06-27 10:13:28.179,995.03,994.98,-5.00,-2.95,0.00,-0.34,0.35,9.34,0.00,-0.00,0.00,0.00
2026-06-27 10:13:28.180,995.03,994.98,-5.00,-2.95,0.00,-0.34,0.35,9.34,0.00,-0.00,0.00,0.00
2026-06-27 10:13:28.185,995.03,994.98,-5.00,-2.95,0.00,-0.34,0.35,9.34,0.00,-0.00,0.00,0.00
2026-06-27 10:13:28.187,995.03,994.98,-5.00,-2.95,0.00,-0.34,0.36,9.36,0.00,-0.00,-0.00,0.00
2026-06-27 10:13:28.189,995.03,994.98,-5.00,-2.95,0.00,-0.34,0.36,9.36,0.00,-0.00,-0.00,0.00
2026-06-27 10:13:28.190,995.03,994.98,-5.00,-2.95,0.00,-0.34,0.36,9.36,0.00,-0.00,-0.00,0.00
2026-06-27 10:13:28.193,995.03,994.98,-5.00,-2.95,0.00,-0.34,0.36,9.36,0.00,-0.00,-0.00,0.00
2026-06-27 10:13:28.198,995.03,994.98,-5.00,-2.95,0.00,-0.34,0.36,9.36,0.00,-0.00,0.00,0.00
2026-06-27 10:13:28.337,995.02,994.99,-2.73,-2.18,0.00,-0.33,0.39,9.39,0.00,0.00,0.00,0.00
2026-06-27 10:13:28.339,995.02,994.99,-2.73,-2.18,0.00,-0.32,0.38,9.40,0.00,0.00,0.00,0.00
2026-06-27 10:13:28.340,995.02,994.99,-2.73,-2.18,0.00,-0.32,0.38,9.40,0.00,0.00,0.00,0.00
2026-06-27 10:13:28.342,995.02,994.99,-2.73,-2.18,0.00,-0.32,0.38,9.40,0.00,0.00,0.00,0.00
2026-06-27 10:13:28.347,995.02,994.99,-2.73,-2.18,0.00,-0.32,0.38,9.40,0.00,0.00,0.00,0.00
2026-06-27 10:13:28.348,995.02,994.99,-2.73,-2.18,0.00,-0.30,0.37,9.36,0.00,0.00,0.00,0.00
2026-06-27 10:13:28.349,995.02,994.99,-2.73,-2.18,0.00,-0.30,0.37,9.36,0.00,0.00,0.00,0.00
2026-06-27 10:13:28.351,995.02,994.99,-2.73,-2.18,0.00,-0.30,0.37,9.36,0.00,0.00,0.00,0.00
2026-06-27 10:13:28.354,995.02,994.99,-2.73,-2.18,0.00,-0.30,0.37,9.36,0.00,0.00,0.00,0.00
2026-06-27 10:13:28.358,995.02,994.99,-2.73,-2.18,0.00,-0.30,0.37,9.36,-0.00,0.00,0.00,0.00
2026-06-27 10:13:28.359,995.02,994.99,-2.73,-2.18,0.00,-0.33,0.36,9.34,-0.00,0.00,0.00,0.00
2026-06-27 10:13:28.362,995.02,994.99,-2.73,-2.18,0.00,-0.33,0.36,9.34,-0.00,0.00,0.00,0.00
2026-06-27 10:13:28.367,995.02,994.99,-2.73,-2.18,0.00,-0.33,0.36,9.34,-0.00,0.00,0.00,0.00
2026-06-27 10:13:28.368,995.02,994.99,-2.73,-2.18,0.00,-0.32,0.36,9.36,-0.00,0.00,-0.00,0.00
2026-06-27 10:13:28.369,995.02,994.99,-2.73,-2.18,0.00,-0.32,0.36,9.36,-0.00,0.00,-0.00,0.00
2026-06-27 10:13:28.371,995.02,994.99,-2.73,-2.18,0.00,-0.32,0.36,9.36,-0.00,0.00,-0.00,0.00
2026-06-27 10:13:28.374,995.02,994.99,-2.73,-2.18,0.00,-0.32,0.36,9.36,-0.00,0.00,-0.00,0.00
2026-06-27 10:13:28.518,995.03,994.97,-5.84,-3.19,0.00,-0.33,0.37,9.37,-0.00,-0.00,0.00,0.00
2026-06-27 10:13:28.520,995.03,994.97,-5.84,-3.19,0.00,-0.31,0.37,9.34,-0.00,-0.00,0.00,0.00
2026-06-27 10:13:28.524,995.03,994.97,-5.84,-3.19,0.00,-0.31,0.37,9.34,-0.00,-0.00,0.00,0.00
2026-06-27 10:13:28.528,995.03,994.97,-5.84,-3.19,0.00,-0.31,0.37,9.34,0.00,-0.00,0.00,0.00
2026-06-27 10:13:28.529,995.03,994.97,-5.84,-3.19,0.00,-0.31,0.36,9.37,0.00,-0.00,0.00,0.00
2026-06-27 10:13:28.530,995.03,994.97,-5.84,-3.19,0.00,-0.31,0.36,9.37,0.00,-0.00,0.00,0.00
2026-06-27 10:13:28.532,995.03,994.97,-5.84,-3.19,0.00,-0.31,0.36,9.37,0.00,-0.00,0.00,0.00
2026-06-27 10:13:28.537,995.03,994.97,-5.84,-3.19,0.00,-0.31,0.36,9.37,0.00,-0.00,0.00,0.00
2026-06-27 10:13:28.539,995.03,994.97,-5.84,-3.19,0.00,-0.33,0.37,9.37,-0.00,0.00,-0.00,0.00
2026-06-27 10:13:28.540,995.03,994.97,-5.84,-3.19,0.00,-0.33,0.37,9.37,-0.00,0.00,-0.00,0.00
2026-06-27 10:13:28.541,995.03,994.97,-5.84,-3.19,0.00,-0.33,0.37,9.37,-0.00,0.00,-0.00,0.00
2026-06-27 10:13:28.545,995.03,994.97,-5.84,-3.19,0.00,-0.33,0.37,9.37,-0.00,0.00,-0.00,0.00
2026-06-27 10:13:28.548,995.03,994.97,-5.84,-3.19,0.00,-0.33,0.37,9.37,-0.00,-0.00,0.00,0.00
2026-06-27 10:13:28.549,995.03,994.97,-5.84,-3.19,0.00,-0.34,0.36,9.38,-0.00,-0.00,0.00,0.00
2026-06-27 10:13:28.689,995.02,994.99,-2.72,-2.18,0.00,-0.33,0.37,9.38,0.00,0.00,0.00,0.00
2026-06-27 10:13:28.690,995.02,994.99,-2.72,-2.18,0.00,-0.33,0.37,9.38,0.00,0.00,0.00,0.00
2026-06-27 10:13:28.691,995.02,994.99,-2.72,-2.18,0.00,-0.33,0.37,9.38,0.00,0.00,0.00,0.00
2026-06-27 10:13:28.694,995.02,994.99,-2.72,-2.18,0.00,-0.33,0.37,9.38,0.00,0.00,0.00,0.00
2026-06-27 10:13:28.698,995.02,994.99,-2.72,-2.18,0.00,-0.33,0.37,9.38,0.00,-0.00,0.00,0.00
2026-06-27 10:13:28.699,995.02,994.99,-2.72,-2.18,0.00,-0.33,0.38,9.40,0.00,-0.00,0.00,0.00
2026-06-27 10:13:28.701,995.02,994.99,-2.72,-2.18,0.00,-0.33,0.38,9.40,0.00,-0.00,0.00,0.00
2026-06-27 10:13:28.702,995.02,994.99,-2.72,-2.18,0.00,-0.33,0.38,9.40,0.00,-0.00,0.00,0.00
2026-06-27 10:13:28.707,995.02,994.99,-2.72,-2.18,0.00,-0.33,0.38,9.40,0.00,-0.00,0.00,0.00
2026-06-27 10:13:28.709,995.02,994.99,-2.72,-2.18,0.00,-0.34,0.37,9.39,-0.00,-0.00,-0.00,0.00
2026-06-27 10:13:28.711,995.02,994.99,-2.72,-2.18,0.00,-0.34,0.37,9.39,-0.00,-0.00,-0.00,0.00
2026-06-27 10:13:28.718,995.02,994.99,-2.72,-2.18,0.00,-0.34,0.37,9.39,-0.00,-0.00,-0.00,0.00
2026-06-27 10:13:28.719,995.02,994.99,-2.72,-2.18,0.00,-0.33,0.37,9.38,0.00,-0.00,0.00,0.00
2026-06-27 10:13:28.720,995.02,994.99,-2.72,-2.18,0.00,-0.33,0.37,9.38,0.00,-0.00,0.00,0.00
2026-06-27 10:13:28.722,995.02,994.99,-2.72,-2.18,0.00,-0.33,0.37,9.38,0.00,-0.00,0.00,0.00
2026-06-27 10:13:28.724,995.02,994.99,-2.72,-2.18,0.00,-0.33,0.37,9.38,0.00,-0.00,0.00,0.00
2026-06-27 10:13:28.859,995.03,994.98,-4.85,-2.91,0.00,-0.34,0.35,9.34,0.00,0.00,-0.00,0.00
2026-06-27 10:13:28.861,995.03,994.98,-4.85,-2.91,0.00,-0.34,0.35,9.34,0.00,0.00,-0.00,0.00
2026-06-27 10:13:28.862,995.03,994.98,-4.85,-2.91,0.00,-0.34,0.35,9.34,0.00,0.00,-0.00,0.00
2026-06-27 10:13:28.868,995.03,994.98,-4.85,-2.91,0.00,-0.34,0.35,9.34,0.00,0.00,-0.00,0.00
2026-06-27 10:13:28.870,995.03,994.98,-4.85,-2.91,0.00,-0.34,0.38,9.37,-0.00,-0.00,0.00,0.00
2026-06-27 10:13:28.871,995.03,994.98,-4.85,-2.91,0.00,-0.34,0.38,9.37,-0.00,-0.00,0.00,0.00
2026-06-27 10:13:28.872,995.03,994.98,-4.85,-2.91,0.00,-0.34,0.38,9.37,-0.00,-0.00,0.00,0.00
2026-06-27 10:13:28.877,995.03,994.98,-4.85,-2.91,0.00,-0.34,0.38,9.37,-0.00,-0.00,0.00,0.00
2026-06-27 10:13:28.879,995.03,994.98,-4.85,-2.91,0.00,-0.33,0.38,9.38,0.00,-0.00,0.00,0.00
2026-06-27 10:13:28.880,995.03,994.98,-4.85,-2.91,0.00,-0.33,0.38,9.38,0.00,-0.00,0.00,0.00
2026-06-27 10:13:28.882,995.03,994.98,-4.85,-2.91,0.00,-0.33,0.38,9.38,0.00,-0.00,0.00,0.00
2026-06-27 10:13:28.883,995.03,994.98,-4.85,-2.91,0.00,-0.33,0.38,9.38,0.00,-0.00,0.00,0.00
2026-06-27 10:13:28.889,995.03,994.98,-4.85,-2.91,0.00,-0.33,0.38,9.38,0.00,-0.00,0.00,0.00
2026-06-27 10:13:28.890,995.03,994.98,-4.85,-2.91,0.00,-0.33,0.37,9.37,-0.00,0.00,0.00,0.00
2026-06-27 10:13:28.892,995.03,994.98,-4.85,-2.91,0.00,-0.33,0.37,9.37,-0.00,0.00,0.00,0.00
2026-06-27 10:13:28.898,995.03,994.98,-4.85,-2.91,0.00,-0.33,0.37,9.37,-0.00,0.00,0.00,0.00
2026-06-27 10:13:29.039,995.01,994.98,-2.90,-2.25,0.00,-0.33,0.39,9.35,-0.00,-0.00,0.00,0.00
2026-06-27 10:13:29.041,995.01,994.98,-2.90,-2.25,0.00,-0.35,0.37,9.38,-0.00,-0.00,0.00,0.00
2026-06-27 10:13:29.042,995.01,994.98,-2.90,-2.25,0.00,-0.35,0.37,9.38,-0.00,-0.00,0.00,0.00
2026-06-27 10:13:29.044,995.01,994.98,-2.90,-2.25,0.00,-0.35,0.37,9.38,-0.00,-0.00,0.00,0.00
2026-06-27 10:13:29.050,995.01,994.98,-2.90,-2.25,0.00,-0.35,0.37,9.38,-0.00,-0.00,0.00,0.00
2026-06-27 10:13:29.053,995.01,994.98,-2.90,-2.25,0.00,-0.33,0.37,9.38,-0.00,-0.00,0.00,0.00
2026-06-27 10:13:29.059,995.01,994.98,-2.90,-2.25,0.00,-0.33,0.37,9.38,-0.00,-0.00,0.00,0.00
2026-06-27 10:13:29.061,995.01,994.98,-2.90,-2.25,0.00,-0.31,0.39,9.39,-0.00,0.00,0.00,0.00
2026-06-27 10:13:29.062,995.01,994.98,-2.90,-2.25,0.00,-0.31,0.39,9.39,-0.00,0.00,0.00,0.00
2026-06-27 10:13:29.065,995.01,994.98,-2.90,-2.25,0.00,-0.31,0.39,9.39,-0.00,0.00,0.00,0.00
2026-06-27 10:13:29.069,995.01,994.98,-2.90,-2.25,0.00,-0.31,0.39,9.39,0.00,-0.00,-0.00,0.00
2026-06-27 10:13:29.071,995.01,994.98,-2.90,-2.25,0.00,-0.33,0.39,9.35,0.00,-0.00,-0.00,0.00
2026-06-27 10:13:29.072,995.01,994.98,-2.90,-2.25,0.00,-0.33,0.39,9.35,0.00,-0.00,-0.00,0.00
2026-06-27 10:13:29.074,995.01,994.98,-2.90,-2.25,0.00,-0.33,0.39,9.35,0.00,-0.00,-0.00,0.00
2026-06-27 10:13:29.213,995.04,994.98,-6.32,-3.32,0.00,-0.33,0.37,9.37,-0.00,-0.00,0.00,0.00
2026-06-27 10:13:29.214,995.04,994.98,-6.32,-3.32,0.00,-0.33,0.37,9.37,-0.00,-0.00,0.00,0.00
2026-06-27 10:13:29.219,995.04,994.98,-6.32,-3.32,0.00,-0.33,0.37,9.37,-0.00,-0.00,0.00,0.00
2026-06-27 10:13:29.221,995.04,994.98,-6.32,-3.32,0.00,-0.33,0.38,9.39,0.00,0.00,0.00,0.00
2026-06-27 10:13:29.222,995.04,994.98,-6.32,-3.32,0.00,-0.33,0.38,9.39,0.00,0.00,0.00,0.00
2026-06-27 10:13:29.223,995.04,994.98,-6.32,-3.32,0.00,-0.33,0.38,9.39,0.00,0.00,0.00,0.00
2026-06-27 10:13:29.227,995.04,994.98,-6.32,-3.32,0.00,-0.33,0.38,9.39,0.00,0.00,0.00,0.00
2026-06-27 10:13:29.230,995.04,994.98,-6.32,-3.32,0.00,-0.33,0.38,9.39,0.00,0.00,-0.00,0.00
2026-06-27 10:13:29.231,995.04,994.98,-6.32,-3.32,0.00,-0.32,0.37,9.37,0.00,0.00,-0.00,0.00
2026-06-27 10:13:29.232,995.04,994.98,-6.32,-3.32,0.00,-0.32,0.37,9.37,0.00,0.00,-0.00,0.00
2026-06-27 10:13:29.234,995.04,994.98,-6.32,-3.32,0.00,-0.32,0.37,9.37,0.00,0.00,-0.00,0.00
2026-06-27 10:13:29.239,995.04,994.98,-6.32,-3.32,0.00,-0.32,0.37,9.37,0.00,0.00,-0.00,0.00
2026-06-27 10:13:29.240,995.04,994.98,-6.32,-3.32,0.00,-0.33,0.37,9.37,-0.00,-0.00,-0.00,0.00
2026-06-27 10:13:29.241,995.04,994.98,-6.32,-3.32,0.00,-0.33,0.37,9.37,-0.00,-0.00,-0.00,0.00
2026-06-27 10:13:29.243,995.04,994.98,-6.32,-3.32,0.00,-0.33,0.37,9.37,-0.00,-0.00,-0.00,0.00
2026-06-27 10:13:29.245,995.04,994.98,-6.32,-3.32,0.00,-0.33,0.37,9.37,-0.00,-0.00,-0.00,0.00
2026-06-27 10:13:29.250,995.04,994.98,-6.32,-3.32,0.00,-0.33,0.37,9.37,-0.00,-0.00,-0.00,0.00
2026-06-27 10:13:29.390,995.01,994.98,-3.34,-2.41,0.00,-0.34,0.37,9.38,0.00,-0.00,-0.00,0.00
2026-06-27 10:13:29.392,995.01,994.98,-3.34,-2.41,0.00,-0.33,0.38,9.36,0.00,-0.00,-0.00,0.00
2026-06-27 10:13:29.393,995.01,994.98,-3.34,-2.41,0.00,-0.33,0.38,9.36,0.00,-0.00,-0.00,0.00
2026-06-27 10:13:29.394,995.01,994.98,-3.34,-2.41,0.00,-0.33,0.38,9.36,0.00,-0.00,-0.00,0.00
2026-06-27 10:13:29.400,995.01,994.98,-3.34,-2.41,0.00,-0.33,0.38,9.36,0.00,-0.00,-0.00,0.00
2026-06-27 10:13:29.401,995.01,994.98,-3.34,-2.41,0.00,-0.33,0.38,9.37,-0.00,-0.00,0.00,0.00
2026-06-27 10:13:29.402,995.01,994.98,-3.34,-2.41,0.00,-0.33,0.38,9.37,-0.00,-0.00,0.00,0.00
2026-06-27 10:13:29.403,995.01,994.98,-3.34,-2.41,0.00,-0.33,0.38,9.37,-0.00,-0.00,0.00,0.00
2026-06-27 10:13:29.406,995.01,994.98,-3.34,-2.41,0.00,-0.33,0.38,9.37,-0.00,-0.00,0.00,0.00
2026-06-27 10:13:29.410,995.01,994.98,-3.34,-2.41,0.00,-0.33,0.38,9.37,0.00,0.00,-0.00,0.00
2026-06-27 10:13:29.411,995.01,994.98,-3.34,-2.41,0.00,-0.33,0.37,9.38,0.00,0.00,-0.00,0.00
2026-06-27 10:13:29.413,995.01,994.98,-3.34,-2.41,0.00,-0.33,0.37,9.38,0.00,0.00,-0.00,0.00
2026-06-27 10:13:29.414,995.01,994.98,-3.34,-2.41,0.00,-0.33,0.37,9.38,0.00,0.00,-0.00,0.00
2026-06-27 10:13:29.415,995.01,994.98,-3.34,-2.41,0.00,-0.33,0.37,9.38,0.00,0.00,-0.00,0.00
2026-06-27 10:13:29.420,995.01,994.98,-3.34,-2.41,0.00,-0.33,0.37,9.38,0.00,0.00,-0.00,0.00
2026-06-27 10:13:29.422,995.01,994.98,-3.34,-2.41,0.00,-0.34,0.36,9.39,-0.00,0.00,-0.00,0.00
2026-06-27 10:13:29.423,995.01,994.98,-3.34,-2.41,0.00,-0.34,0.36,9.39,-0.00,0.00,-0.00,0.00
2026-06-27 10:13:29.562,995.00,994.99,-1.20,-1.45,0.00,-0.33,0.37,9.37,-0.00,-0.00,0.00,0.00
2026-06-27 10:13:29.564,995.00,994.99,-1.20,-1.45,0.00,-0.33,0.37,9.37,-0.00,-0.00,0.00,0.00
2026-06-27 10:13:29.570,995.00,994.99,-1.20,-1.45,0.00,-0.33,0.37,9.37,-0.00,-0.00,0.00,0.00
2026-06-27 10:13:29.572,995.00,994.99,-1.20,-1.45,0.00,-0.32,0.38,9.35,0.00,-0.00,-0.00,0.00
2026-06-27 10:13:29.573,995.00,994.99,-1.20,-1.45,0.00,-0.32,0.38,9.35,0.00,-0.00,-0.00,0.00
2026-06-27 10:13:29.574,995.00,994.99,-1.20,-1.45,0.00,-0.32,0.38,9.35,0.00,-0.00,-0.00,0.00
2026-06-27 10:13:29.578,995.00,994.99,-1.20,-1.45,0.00,-0.32,0.38,9.35,0.00,-0.00,-0.00,0.00
2026-06-27 10:13:29.581,995.00,994.99,-1.20,-1.45,0.00,-0.32,0.38,9.35,0.00,0.00,0.00,0.00
2026-06-27 10:13:29.582,995.00,994.99,-1.20,-1.45,0.00,-0.33,0.35,9.39,0.00,0.00,0.00,0.00
2026-06-27 10:13:29.584,995.00,994.99,-1.20,-1.45,0.00,-0.33,0.35,9.39,0.00,0.00,0.00,0.00
2026-06-27 10:13:29.587,995.00,994.99,-1.20,-1.45,0.00,-0.33,0.35,9.39,0.00,0.00,0.00,0.00
2026-06-27 10:13:29.591,995.00,994.99,-1.20,-1.45,0.00,-0.33,0.35,9.39,-0.00,0.00,0.00,0.00
2026-06-27 10:13:29.592,995.00,994.99,-1.20,-1.45,0.00,-0.31,0.39,9.36,-0.00,0.00,0.00,0.00
2026-06-27 10:13:29.593,995.00,994.99,-1.20,-1.45,0.00,-0.31,0.39,9.36,-0.00,0.00,0.00,0.00
2026-06-27 10:13:29.594,995.00,994.99,-1.20,-1.45,0.00,-0.31,0.39,9.36,-0.00,0.00,0.00,0.00
2026-06-27 10:13:29.599,995.00,994.99,-1.20,-1.45,0.00,-0.31,0.39,9.36,-0.00,0.00,0.00,0.00
2026-06-27 10:13:29.741,995.04,995.00,-3.31,-2.40,0.00,-0.33,0.39,9.36,-0.00,0.00,-0.00,0.00
2026-06-27 10:13:29.743,995.04,995.00,-3.31,-2.40,0.00,-0.34,0.37,9.38,-0.00,0.00,0.00,0.00
2026-06-27 10:13:29.744,995.04,995.00,-3.31,-2.40,0.00,-0.34,0.37,9.38,-0.00,0.00,0.00,0.00
2026-06-27 10:13:29.750,995.04,995.00,-3.31,-2.40,0.00,-0.34,0.37,9.38,-0.00,0.00,0.00,0.00
2026-06-27 10:13:29.752,995.04,995.00,-3.31,-2.40,0.00,-0.33,0.38,9.37,-0.00,-0.00,0.00,0.00
2026-06-27 10:13:29.754,995.04,995.00,-3.31,-2.40,0.00,-0.33,0.38,9.37,-0.00,-0.00,0.00,0.00
2026-06-27 10:13:29.758,995.04,995.00,-3.31,-2.40,0.00,-0.33,0.38,9.37,-0.00,-0.00,0.00,0.00
2026-06-27 10:13:29.762,995.04,995.00,-3.31,-2.40,0.00,-0.33,0.38,9.37,-0.00,-0.00,0.00,0.00
2026-06-27 10:13:29.764,995.04,995.00,-3.31,-2.40,0.00,-0.33,0.36,9.36,-0.00,-0.00,0.00,0.00
2026-06-27 10:13:29.771,995.04,995.00,-3.31,-2.40,0.00,-0.33,0.36,9.36,-0.00,-0.00,0.00,0.00
2026-06-27 10:13:29.773,995.04,995.00,-3.31,-2.40,0.00,-0.33,0.36,9.36,-0.00,-0.00,-0.00,0.00
2026-06-27 10:13:29.774,995.04,995.00,-3.31,-2.40,0.00,-0.33,0.36,9.36,-0.00,-0.00,-0.00,0.00
2026-06-27 10:13:29.912,995.02,994.99,-3.91,-2.61,0.00,-0.34,0.36,9.37,0.00,-0.00,0.00,0.00
2026-06-27 10:13:29.914,995.02,994.99,-3.91,-2.61,0.00,-0.34,0.36,9.37,0.00,-0.00,0.00,0.00
2026-06-27 10:13:29.916,995.02,994.99,-3.91,-2.61,0.00,-0.34,0.36,9.37,0.00,-0.00,0.00,0.00
2026-06-27 10:13:29.922,995.02,994.99,-3.91,-2.61,0.00,-0.34,0.36,9.37,0.00,-0.00,0.00,0.00
2026-06-27 10:13:29.924,995.02,994.99,-3.91,-2.61,0.00,-0.33,0.36,9.39,-0.00,0.00,0.00,0.00
2026-06-27 10:13:29.930,995.02,994.99,-3.91,-2.61,0.00,-0.33,0.36,9.39,-0.00,0.00,0.00,0.00
2026-06-27 10:13:29.932,995.02,994.99,-3.91,-2.61,0.00,-0.33,0.39,9.38,-0.00,0.00,0.00,0.00
2026-06-27 10:13:29.934,995.02,994.99,-3.91,-2.61,0.00,-0.33,0.39,9.38,-0.00,0.00,0.00,0.00
2026-06-27 10:13:29.937,995.02,994.99,-3.91,-2.61,0.00,-0.33,0.39,9.38,-0.00,0.00,0.00,0.00
2026-06-27 10:13:29.942,995.02,994.99,-3.91,-2.61,0.00,-0.33,0.39,9.38,-0.00,0.00,0.00,0.00
2026-06-27 10:13:29.945,995.02,994.99,-3.91,-2.61,0.00,-0.34,0.38,9.38,-0.00,0.00,0.00,0.00
2026-06-27 10:13:29.951,995.02,994.99,-3.91,-2.61,0.00,-0.34,0.38,9.38,-0.00,0.00,0.00,0.00
2026-06-27 10:13:30.093,995.02,994.98,-4.45,-2.79,0.00,-0.36,0.38,9.37,-0.00,-0.00,0.00,0.00
2026-06-27 10:13:30.095,995.02,994.98,-4.45,-2.79,0.00,-0.36,0.38,9.37,-0.00,-0.00,0.00,0.00
2026-06-27 10:13:30.098,995.02,994.98,-4.45,-2.79,0.00,-0.36,0.38,9.37,-0.00,-0.00,0.00,0.00
2026-06-27 10:13:30.102,995.02,994.98,-4.45,-2.79,0.00,-0.36,0.38,9.37,0.00,-0.00,0.00,0.00
2026-06-27 10:13:30.104,995.02,994.98,-4.45,-2.79,0.00,-0.34,0.37,9.37,0.00,-0.00,0.00,0.00
2026-06-27 10:13:30.105,995.02,994.98,-4.45,-2.79,0.00,-0.34,0.37,9.37,0.00,-0.00,0.00,0.00
2026-06-27 10:13:30.111,995.02,994.98,-4.45,-2.79,0.00,-0.34,0.37,9.37,0.00,-0.00,0.00,0.00
2026-06-27 10:13:30.113,995.02,994.98,-4.45,-2.79,0.00,-0.33,0.37,9.39,-0.00,0.00,0.00,0.00
2026-06-27 10:13:30.114,995.02,994.98,-4.45,-2.79,0.00,-0.33,0.37,9.39,-0.00,0.00,0.00,0.00
2026-06-27 10:13:30.116,995.02,994.98,-4.45,-2.79,0.00,-0.33,0.37,9.39,-0.00,0.00,0.00,0.00
2026-06-27 10:13:30.121,995.02,994.98,-4.45,-2.79,0.00,-0.33,0.37,9.39,-0.00,0.00,0.00,0.00
2026-06-27 10:13:30.123,995.02,994.98,-4.45,-2.79,0.00,-0.32,0.36,9.37,0.00,-0.00,0.00,0.00
2026-06-27 10:13:30.129,995.02,994.98,-4.45,-2.79,0.00,-0.32,0.36,9.37,0.00,-0.00,0.00,0.00
2026-06-27 10:13:30.273,995.03,994.99,-4.39,-2.77,0.00,-0.33,0.37,9.38,0.00,-0.00,-0.00,0.00
2026-06-27 10:13:30.274,995.03,994.99,-4.39,-2.77,0.00,-0.33,0.38,9.38,0.00,-0.00,-0.00,0.00
2026-06-27 10:13:30.276,995.03,994.99,-4.39,-2.77,0.00,-0.33,0.38,9.38,0.00,-0.00,-0.00,0.00
2026-06-27 10:13:30.282,995.03,994.99,-4.39,-2.77,0.00,-0.33,0.38,9.38,0.00,-0.00,-0.00,0.00
2026-06-27 10:13:30.289,995.03,994.99,-4.39,-2.77,0.00,-0.33,0.36,9.36,0.00,0.00,0.00,0.00
2026-06-27 10:13:30.293,995.03,994.99,-4.39,-2.77,0.00,-0.33,0.36,9.36,0.00,-0.00,0.00,0.00
2026-06-27 10:13:30.294,995.03,994.99,-4.39,-2.77,0.00,-0.33,0.38,9.39,0.00,-0.00,0.00,0.00
2026-06-27 10:13:30.296,995.03,994.99,-4.39,-2.77,0.00,-0.33,0.38,9.39,0.00,-0.00,0.00,0.00
2026-06-27 10:13:30.302,995.03,994.99,-4.39,-2.77,0.00,-0.33,0.38,9.39,0.00,-0.00,0.00,0.00
2026-06-27 10:13:30.304,995.03,994.99,-4.39,-2.77,0.00,-0.33,0.38,9.35,-0.00,-0.00,0.00,0.00
2026-06-27 10:13:30.446,995.02,994.98,-4.36,-2.76,0.00,-0.32,0.35,9.36,0.00,0.00,-0.00,0.00
2026-06-27 10:13:30.453,995.02,994.98,-4.36,-2.76,0.00,-0.32,0.35,9.36,0.00,0.00,-0.00,0.00
2026-06-27 10:13:30.455,995.02,994.98,-4.36,-2.76,0.00,-0.32,0.38,9.36,0.00,0.00,0.00,0.00
2026-06-27 10:13:30.461,995.02,994.98,-4.36,-2.76,0.00,-0.32,0.38,9.36,0.00,0.00,0.00,0.00
2026-06-27 10:13:30.464,995.02,994.98,-4.36,-2.76,0.00,-0.32,0.38,9.36,0.00,-0.00,-0.00,0.00
2026-06-27 10:13:30.465,995.02,994.98,-4.36,-2.76,0.00,-0.31,0.36,9.38,0.00,-0.00,-0.00,0.00
2026-06-27 10:13:30.467,995.02,994.98,-4.36,-2.76,0.00,-0.31,0.36,9.38,0.00,-0.00,-0.00,0.00
2026-06-27 10:13:30.473,995.02,994.98,-4.36,-2.76,0.00,-0.31,0.36,9.38,0.00,-0.00,-0.00,0.00
2026-06-27 10:13:30.494,995.02,994.98,-4.36,-2.76,0.00,-0.33,0.37,9.35,0.00,-0.00,0.00,0.00
