timestamp,pressure_bag,pressure_bme,diff_pressure,v_wind_est,speed,accel_x,accel_y,accel_z,gyro_x,gyro_y,gyro_z,power
2026-06-27 10:48:01.086,994.81,994.78,-2.79,-2.21,0.00,-0.25,0.77,9.69,-0.00,0.00,0.00,0.00
2026-06-27 10:48:01.087,994.81,994.78,-2.79,-2.21,0.00,-0.25,0.76,9.68,-0.00,0.00,0.00,0.00
2026-06-27 10:48:01.089,994.81,994.78,-2.79,-2.21,0.00,-0.25,0.76,9.68,-0.00,0.00,0.00,0.00
2026-06-27 10:48:01.092,994.81,994.78,-2.79,-2.21,0.00,-0.25,0.76,9.68,-0.00,0.00,0.00,0.00
2026-06-27 10:48:01.096,994.81,994.78,-2.79,-2.21,0.00,-0.25,0.76,9.68,-0.00,-0.00,-0.00,0.00
2026-06-27 10:48:01.097,994.81,994.78,-2.79,-2.21,0.00,-0.24,0.77,9.67,-0.00,-0.00,-0.00,0.00
2026-06-27 10:48:01.099,994.81,994.78,-2.79,-2.21,0.00,-0.24,0.77,9.67,-0.00,-0.00,-0.00,0.00
2026-06-27 10:48:01.101,994.81,994.78,-2.79,-2.21,0.00,-0.24,0.77,9.67,-0.00,-0.00,-0.00,0.00
2026-06-27 10:48:01.106,994.81,994.78,-2.79,-2.21,0.00,-0.24,0.77,9.67,-0.00,-0.00,-0.00,0.00
2026-06-27 10:48:01.107,994.81,994.78,-2.79,-2.21,0.00,-0.24,0.77,9.69,-0.00,-0.00,-0.00,0.00
2026-06-27 10:48:01.109,994.81,994.78,-2.79,-2.21,0.00,-0.24,0.77,9.69,-0.00,-0.00,-0.00,0.00
2026-06-27 10:48:01.114,994.81,994.78,-2.79,-2.21,0.00,-0.24,0.77,9.69,-0.00,-0.00,-0.00,0.00
2026-06-27 10:48:01.257,994.79,994.76,-3.29,-2.40,0.00,-0.25,0.77,9.70,-0.00,0.00,0.00,0.00
2026-06-27 10:48:01.262,994.79,994.76,-3.29,-2.40,0.00,-0.25,0.77,9.68,-0.00,0.00,0.00,0.00
2026-06-27 10:48:01.267,994.79,994.76,-3.29,-2.40,0.00,-0.25,0.77,9.68,-0.00,0.00,0.00,0.00
2026-06-27 10:48:01.269,994.79,994.76,-3.29,-2.40,0.00,-0.27,0.75,9.69,-0.00,0.00,0.00,0.00
2026-06-27 10:48:01.273,994.79,994.76,-3.29,-2.40,0.00,-0.27,0.75,9.69,-0.00,0.00,0.00,0.00
2026-06-27 10:48:01.277,994.79,994.76,-3.29,-2.40,0.00,-0.27,0.75,9.69,-0.00,0.00,-0.00,0.00
2026-06-27 10:48:01.279,994.79,994.76,-3.29,-2.40,0.00,-0.24,0.77,9.68,-0.00,0.00,-0.00,0.00
2026-06-27 10:48:01.280,994.79,994.76,-3.29,-2.40,0.00,-0.24,0.77,9.68,-0.00,0.00,-0.00,0.00
2026-06-27 10:48:01.286,994.79,994.76,-3.29,-2.40,0.00,-0.24,0.77,9.68,-0.00,-0.00,0.00,0.00
2026-06-27 10:48:01.288,994.79,994.76,-3.29,-2.40,0.00,-0.22,0.76,9.68,-0.00,-0.00,0.00,0.00
2026-06-27 10:48:01.290,994.79,994.76,-3.29,-2.40,0.00,-0.22,0.76,9.68,-0.00,-0.00,0.00,0.00
2026-06-27 10:48:01.427,994.81,994.76,-4.12,-2.69,0.00,-0.25,0.76,9.68,0.00,0.00,-0.00,0.00
2026-06-27 10:48:01.429,994.81,994.76,-4.12,-2.69,0.00,-0.25,0.76,9.68,0.00,0.00,-0.00,0.00
2026-06-27 10:48:01.430,994.81,994.76,-4.12,-2.69,0.00,-0.25,0.76,9.68,0.00,0.00,-0.00,0.00
2026-06-27 10:48:01.432,994.81,994.76,-4.12,-2.69,0.00,-0.25,0.76,9.68,0.00,0.00,-0.00,0.00
2026-06-27 10:48:01.436,994.81,994.76,-4.12,-2.69,0.00,-0.25,0.76,9.68,0.00,0.00,0.00,0.00
2026-06-27 10:48:01.438,994.81,994.76,-4.12,-2.69,0.00,-0.24,0.77,9.70,0.00,0.00,0.00,0.00
2026-06-27 10:48:01.440,994.81,994.76,-4.12,-2.69,0.00,-0.24,0.77,9.70,0.00,0.00,0.00,0.00
2026-06-27 10:48:01.446,994.81,994.76,-4.12,-2.69,0.00,-0.24,0.77,9.70,0.00,0.00,0.00,0.00
2026-06-27 10:48:01.448,994.81,994.76,-4.12,-2.69,0.00,-0.25,0.77,9.67,0.00,0.00,0.00,0.00
2026-06-27 10:48:01.449,994.81,994.76,-4.12,-2.69,0.00,-0.25,0.77,9.67,0.00,0.00,0.00,0.00
2026-06-27 10:48:01.450,994.81,994.76,-4.12,-2.69,0.00,-0.25,0.77,9.67,0.00,0.00,0.00,0.00
2026-06-27 10:48:01.454,994.81,994.76,-4.12,-2.69,0.00,-0.25,0.77,9.67,0.00,0.00,0.00,0.00
2026-06-27 10:48:01.457,994.81,994.76,-4.12,-2.69,0.00,-0.25,0.77,9.68,0.00,0.00,-0.00,0.00
2026-06-27 10:48:01.458,994.81,994.76,-4.12,-2.69,0.00,-0.25,0.77,9.68,0.00,0.00,-0.00,0.00
2026-06-27 10:48:01.460,994.81,994.76,-4.12,-2.69,0.00,-0.25,0.77,9.68,0.00,0.00,-0.00,0.00
2026-06-27 10:48:01.461,994.81,994.76,-4.12,-2.69,0.00,-0.25,0.77,9.68,0.00,0.00,-0.00,0.00
2026-06-27 10:48:01.466,994.81,994.76,-4.12,-2.69,0.00,-0.25,0.77,9.68,0.00,0.00,-0.00,0.00
2026-06-27 10:48:01.608,994.81,994.78,-3.69,-2.54,0.00,-0.25,0.74,9.67,0.00,-0.00,0.00,0.00
2026-06-27 10:48:01.609,994.81,994.78,-3.69,-2.54,0.00,-0.25,0.74,9.67,0.00,-0.00,0.00,0.00
2026-06-27 10:48:01.610,994.81,994.78,-3.69,-2.54,0.00,-0.25,0.74,9.67,0.00,-0.00,0.00,0.00
2026-06-27 10:48:01.614,994.81,994.78,-3.69,-2.54,0.00,-0.25,0.74,9.67,0.00,-0.00,0.00,0.00
2026-06-27 10:48:01.617,994.81,994.78,-3.69,-2.54,0.00,-0.25,0.74,9.67,0.00,-0.00,-0.00,0.00
2026-06-27 10:48:01.619,994.81,994.78,-3.69,-2.54,0.00,-0.24,0.77,9.72,0.00,-0.00,-0.00,0.00
2026-06-27 10:48:01.626,994.81,994.78,-3.69,-2.54,0.00,-0.24,0.77,9.72,0.00,-0.00,-0.00,0.00
2026-06-27 10:48:01.627,994.81,994.78,-3.69,-2.54,0.00,-0.25,0.79,9.70,0.00,0.00,0.00,0.00
2026-06-27 10:48:01.629,994.81,994.78,-3.69,-2.54,0.00,-0.25,0.79,9.70,0.00,0.00,0.00,0.00
2026-06-27 10:48:01.630,994.81,994.78,-3.69,-2.54,0.00,-0.25,0.79,9.70,0.00,0.00,0.00,0.00
2026-06-27 10:48:01.632,994.81,994.78,-3.69,-2.54,0.00,-0.25,0.79,9.70,0.00,0.00,0.00,0.00
2026-06-27 10:48:01.637,994.81,994.78,-3.69,-2.54,0.00,-0.25,0.79,9.70,0.00,-0.00,-0.00,0.00
2026-06-27 10:48:01.638,994.81,994.78,-3.69,-2.54,0.00,-0.26,0.76,9.68,0.00,-0.00,-0.00,0.00
2026-06-27 10:48:01.640,994.81,994.78,-3.69,-2.54,0.00,-0.26,0.76,9.68,0.00,-0.00,-0.00,0.00
2026-06-27 10:48:01.641,994.81,994.78,-3.69,-2.54,0.00,-0.26,0.76,9.68,0.00,-0.00,-0.00,0.00
2026-06-27 10:48:01.646,994.81,994.78,-3.69,-2.54,0.00,-0.26,0.76,9.68,0.00,-0.00,-0.00,0.00
2026-06-27 10:48:01.788,994.82,994.78,-3.37,-2.43,0.00,-0.26,0.76,9.70,0.00,0.00,-0.00,0.00
2026-06-27 10:48:01.790,994.82,994.78,-3.37,-2.43,0.00,-0.24,0.78,9.70,0.00,0.00,-0.00,0.00
2026-06-27 10:48:01.791,994.82,994.78,-3.37,-2.43,0.00,-0.24,0.78,9.70,0.00,0.00,-0.00,0.00
2026-06-27 10:48:01.796,994.82,994.78,-3.37,-2.43,0.00,-0.24,0.78,9.70,0.00,0.00,-0.00,0.00
2026-06-27 10:48:01.798,994.82,994.78,-3.37,-2.43,0.00,-0.26,0.75,9.70,0.00,0.00,0.00,0.00
2026-06-27 10:48:01.799,994.82,994.78,-3.37,-2.43,0.00,-0.26,0.75,9.70,0.00,0.00,0.00,0.00
2026-06-27 10:48:01.800,994.82,994.78,-3.37,-2.43,0.00,-0.26,0.75,9.70,0.00,0.00,0.00,0.00
2026-06-27 10:48:01.801,994.82,994.78,-3.37,-2.43,0.00,-0.26,0.75,9.70,0.00,0.00,0.00,0.00
2026-06-27 10:48:01.808,994.82,994.78,-3.37,-2.43,0.00,-0.26,0.75,9.70,0.00,0.00,0.00,0.00
2026-06-27 10:48:01.810,994.82,994.78,-3.37,-2.43,0.00,-0.25,0.77,9.72,0.00,-0.00,0.00,0.00
2026-06-27 10:48:01.812,994.82,994.78,-3.37,-2.43,0.00,-0.25,0.77,9.72,0.00,-0.00,0.00,0.00
2026-06-27 10:48:01.817,994.82,994.78,-3.37,-2.43,0.00,-0.25,0.77,9.72,0.00,-0.00,0.00,0.00
2026-06-27 10:48:01.818,994.82,994.78,-3.37,-2.43,0.00,-0.25,0.78,9.68,0.00,0.00,0.00,0.00
2026-06-27 10:48:01.819,994.82,994.78,-3.37,-2.43,0.00,-0.25,0.78,9.68,0.00,0.00,0.00,0.00
2026-06-27 10:48:01.821,994.82,994.78,-3.37,-2.43,0.00,-0.25,0.78,9.68,0.00,0.00,0.00,0.00
2026-06-27 10:48:01.966,994.80,994.77,-2.61,-2.14,0.00,-0.25,0.75,9.70,0.00,0.00,0.00,0.00
2026-06-27 10:48:01.968,994.80,994.77,-2.61,-2.14,0.00,-0.25,0.75,9.70,0.00,0.00,-0.00,0.00
2026-06-27 10:48:01.969,994.80,994.77,-2.61,-2.14,0.00,-0.25,0.77,9.71,0.00,0.00,-0.00,0.00
2026-06-27 10:48:01.971,994.80,994.77,-2.61,-2.14,0.00,-0.25,0.77,9.71,0.00,0.00,-0.00,0.00
2026-06-27 10:48:01.972,994.80,994.77,-2.61,-2.14,0.00,-0.25,0.77,9.71,0.00,0.00,-0.00,0.00
2026-06-27 10:48:01.978,994.80,994.77,-2.61,-2.14,0.00,-0.25,0.77,9.71,0.00,0.00,-0.00,0.00
2026-06-27 10:48:01.979,994.80,994.77,-2.61,-2.14,0.00,-0.27,0.77,9.68,-0.00,-0.00,0.00,0.00
2026-06-27 10:48:01.980,994.80,994.77,-2.61,-2.14,0.00,-0.27,0.77,9.68,-0.00,-0.00,0.00,0.00
2026-06-27 10:48:01.982,994.80,994.77,-2.61,-2.14,0.00,-0.27,0.77,9.68,-0.00,-0.00,0.00,0.00
2026-06-27 10:48:01.984,994.80,994.77,-2.61,-2.14,0.00,-0.27,0.77,9.68,-0.00,-0.00,0.00,0.00
2026-06-27 10:48:01.988,994.80,994.77,-2.61,-2.14,0.00,-0.27,0.77,9.68,0.00,-0.00,-0.00,0.00
2026-06-27 10:48:01.989,994.80,994.77,-2.61,-2.14,0.00,-0.25,0.75,9.68,0.00,-0.00,-0.00,0.00
2026-06-27 10:48:01.990,994.80,994.77,-2.61,-2.14,0.00,-0.25,0.75,9.68,0.00,-0.00,-0.00,0.00
2026-06-27 10:48:01.992,994.80,994.77,-2.61,-2.14,0.00,-0.25,0.75,9.68,0.00,-0.00,-0.00,0.00
2026-06-27 10:48:01.998,994.80,994.77,-2.61,-2.14,0.00,-0.25,0.75,9.68,0.00,0.00,-0.00,0.00
2026-06-27 10:48:02.138,994.81,994.77,-4.36,-2.76,0.00,-0.23,0.76,9.69,0.00,0.00,0.00,0.00
2026-06-27 10:48:02.140,994.81,994.77,-4.36,-2.76,0.00,-0.23,0.77,9.68,0.00,0.00,0.00,0.00
2026-06-27 10:48:02.141,994.81,994.77,-4.36,-2.76,0.00,-0.23,0.77,9.68,0.00,0.00,0.00,0.00
2026-06-27 10:48:02.145,994.81,994.77,-4.36,-2.76,0.00,-0.23,0.77,9.68,0.00,0.00,0.00,0.00
2026-06-27 10:48:02.149,994.81,994.77,-4.36,-2.76,0.00,-0.23,0.77,9.68,-0.00,-0.00,0.00,0.00
2026-06-27 10:48:02.151,994.81,994.77,-4.36,-2.76,0.00,-0.23,0.77,9.67,-0.00,-0.00,0.00,0.00
2026-06-27 10:48:02.157,994.81,994.77,-4.36,-2.76,0.00,-0.23,0.77,9.67,-0.00,-0.00,0.00,0.00
2026-06-27 10:48:02.159,994.81,994.77,-4.36,-2.76,0.00,-0.26,0.75,9.69,0.00,-0.00,-0.00,0.00
2026-06-27 10:48:02.160,994.81,994.77,-4.36,-2.76,0.00,-0.26,0.75,9.69,0.00,-0.00,-0.00,0.00
2026-06-27 10:48:02.161,994.81,994.77,-4.36,-2.76,0.00,-0.26,0.75,9.69,0.00,-0.00,-0.00,0.00
2026-06-27 10:48:02.164,994.81,994.77,-4.36,-2.76,0.00,-0.26,0.75,9.69,0.00,-0.00,-0.00,0.00
2026-06-27 10:48:02.168,994.81,994.77,-4.36,-2.76,0.00,-0.26,0.75,9.69,0.00,0.00,-0.00,0.00
2026-06-27 10:48:02.169,994.81,994.77,-4.36,-2.76,0.00,-0.24,0.77,9.70,0.00,0.00,-0.00,0.00
2026-06-27 10:48:02.171,994.81,994.77,-4.36,-2.76,0.00,-0.24,0.77,9.70,0.00,0.00,-0.00,0.00
2026-06-27 10:48:02.172,994.81,994.77,-4.36,-2.76,0.00,-0.24,0.77,9.70,0.00,0.00,-0.00,0.00
2026-06-27 10:48:02.178,994.81,994.77,-4.36,-2.76,0.00,-0.24,0.77,9.70,0.00,0.00,-0.00,0.00
2026-06-27 10:48:02.319,994.80,994.77,-2.87,-2.24,0.00,-0.26,0.78,9.70,0.00,-0.00,-0.00,0.00
2026-06-27 10:48:02.321,994.80,994.77,-2.87,-2.24,0.00,-0.26,0.77,9.70,0.00,-0.00,-0.00,0.00
2026-06-27 10:48:02.324,994.80,994.77,-2.87,-2.24,0.00,-0.26,0.77,9.70,0.00,-0.00,-0.00,0.00
2026-06-27 10:48:02.329,994.80,994.77,-2.87,-2.24,0.00,-0.26,0.77,9.70,0.00,-0.00,0.00,0.00
2026-06-27 10:48:02.330,994.80,994.77,-2.87,-2.24,0.00,-0.24,0.77,9.71,0.00,-0.00,0.00,0.00
2026-06-27 10:48:02.332,994.80,994.77,-2.87,-2.24,0.00,-0.24,0.77,9.71,0.00,-0.00,0.00,0.00
2026-06-27 10:48:02.337,994.80,994.77,-2.87,-2.24,0.00,-0.24,0.77,9.71,0.00,-0.00,0.00,0.00
2026-06-27 10:48:02.339,994.80,994.77,-2.87,-2.24,0.00,-0.24,0.74,9.69,0.00,0.00,0.00,0.00
2026-06-27 10:48:02.341,994.80,994.77,-2.87,-2.24,0.00,-0.24,0.74,9.69,0.00,0.00,0.00,0.00
2026-06-27 10:48:02.344,994.80,994.77,-2.87,-2.24,0.00,-0.24,0.74,9.69,0.00,0.00,0.00,0.00
2026-06-27 10:48:02.349,994.80,994.77,-2.87,-2.24,0.00,-0.24,0.74,9.69,-0.00,0.00,0.00,0.00
2026-06-27 10:48:02.356,994.80,994.77,-2.87,-2.24,0.00,-0.24,0.78,9.69,-0.00,0.00,0.00,0.00
2026-06-27 10:48:02.500,994.81,994.78,-3.00,-2.29,0.00,-0.24,0.77,9.70,0.00,0.00,0.00,0.00
2026-06-27 10:48:02.502,994.81,994.78,-3.00,-2.29,0.00,-0.25,0.76,9.69,0.00,0.00,0.00,0.00
2026-06-27 10:48:02.509,994.81,994.78,-3.00,-2.29,0.00,-0.25,0.76,9.69,0.00,0.00,0.00,0.00
2026-06-27 10:48:02.511,994.81,994.78,-3.00,-2.29,0.00,-0.24,0.79,9.69,0.00,0.00,-0.00,0.00
2026-06-27 10:48:02.518,994.81,994.78,-3.00,-2.29,0.00,-0.24,0.79,9.69,0.00,0.00,-0.00,0.00
2026-06-27 10:48:02.520,994.81,994.78,-3.00,-2.29,0.00,-0.23,0.79,9.70,0.00,0.00,-0.00,0.00
2026-06-27 10:48:02.525,994.81,994.78,-3.00,-2.29,0.00,-0.23,0.79,9.70,0.00,0.00,-0.00,0.00
2026-06-27 10:48:02.530,994.81,994.78,-3.00,-2.29,0.00,-0.23,0.79,9.70,0.00,-0.00,0.00,0.00
2026-06-27 10:48:02.531,994.81,994.78,-3.00,-2.29,0.00,-0.26,0.77,9.68,0.00,-0.00,0.00,0.00
2026-06-27 10:48:02.670,994.79,994.78,-0.64,-1.06,0.00,-0.24,0.77,9.69,0.00,-0.00,-0.00,0.00
2026-06-27 10:48:02.671,994.79,994.78,-0.64,-1.06,0.00,-0.24,0.77,9.69,0.00,-0.00,-0.00,0.00
2026-06-27 10:48:02.673,994.79,994.78,-0.64,-1.06,0.00,-0.24,0.77,9.69,0.00,-0.00,-0.00,0.00
2026-06-27 10:48:02.677,994.79,994.78,-0.64,-1.06,0.00,-0.24,0.77,9.69,0.00,-0.00,-0.00,0.00
2026-06-27 10:48:02.680,994.79,994.78,-0.64,-1.06,0.00,-0.25,0.76,9.69,0.00,0.00,-0.00,0.00
2026-06-27 10:48:02.682,994.79,994.78,-0.64,-1.06,0.00,-0.25,0.76,9.69,0.00,0.00,-0.00,0.00
2026-06-27 10:48:02.686,994.79,994.78,-0.64,-1.06,0.00,-0.25,0.76,9.69,0.00,0.00,-0.00,0.00
2026-06-27 10:48:02.690,994.79,994.78,-0.64,-1.06,0.00,-0.25,0.76,9.69,0.00,0.00,-0.00,0.00
2026-06-27 10:48:02.691,994.79,994.78,-0.64,-1.06,0.00,-0.25,0.78,9.68,0.00,0.00,-0.00,0.00
2026-06-27 10:48:02.700,994.79,994.78,-0.64,-1.06,0.00,-0.24,0.77,9.69,-0.00,0.00,-0.00,0.00
2026-06-27 10:48:02.701,994.79,994.78,-0.64,-1.06,0.00,-0.24,0.77,9.69,-0.00,0.00,-0.00,0.00
2026-06-27 10:48:02.703,994.79,994.78,-0.64,-1.06,0.00,-0.24,0.77,9.69,-0.00,0.00,-0.00,0.00
2026-06-27 10:48:02.708,994.79,994.78,-0.64,-1.06,0.00,-0.24,0.77,9.69,-0.00,0.00,-0.00,0.00
2026-06-27 10:48:02.850,994.81,994.77,-4.17,-2.70,0.00,-0.23,0.76,9.67,0.00,-0.00,0.00,0.00
2026-06-27 10:48:02.851,994.81,994.77,-4.17,-2.70,0.00,-0.24,0.75,9.69,0.00,-0.00,0.00,0.00
2026-06-27 10:48:02.853,994.81,994.77,-4.17,-2.70,0.00,-0.24,0.75,9.69,0.00,-0.00,0.00,0.00
2026-06-27 10:48:02.855,994.81,994.77,-4.17,-2.70,0.00,-0.24,0.75,9.69,0.00,-0.00,0.00,0.00
2026-06-27 10:48:02.860,994.81,994.77,-4.17,-2.70,0.00,-0.24,0.75,9.69,-0.00,0.00,0.00,0.00
2026-06-27 10:48:02.861,994.81,994.77,-4.17,-2.70,0.00,-0.24,0.77,9.70,-0.00,0.00,0.00,0.00
2026-06-27 10:48:02.862,994.81,994.77,-4.17,-2.70,0.00,-0.24,0.77,9.70,-0.00,0.00,0.00,0.00
2026-06-27 10:48:02.863,994.81,994.77,-4.17,-2.70,0.00,-0.24,0.77,9.70,-0.00,0.00,0.00,0.00
2026-06-27 10:48:02.869,994.81,994.77,-4.17,-2.70,0.00,-0.24,0.77,9.70,-0.00,0.00,0.00,0.00
2026-06-27 10:48:02.870,994.81,994.77,-4.17,-2.70,0.00,-0.24,0.77,9.70,0.00,0.00,-0.00,0.00
2026-06-27 10:48:02.872,994.81,994.77,-4.17,-2.70,0.00,-0.24,0.77,9.70,0.00,0.00,-0.00,0.00
2026-06-27 10:48:02.873,994.81,994.77,-4.17,-2.70,0.00,-0.24,0.77,9.70,0.00,0.00,-0.00,0.00
2026-06-27 10:48:02.874,994.81,994.77,-4.17,-2.70,0.00,-0.24,0.77,9.70,0.00,0.00,-0.00,0.00
2026-06-27 10:48:02.879,994.81,994.77,-4.17,-2.70,0.00,-0.24,0.77,9.70,0.00,0.00,-0.00,0.00
2026-06-27 10:48:02.881,994.81,994.77,-4.17,-2.70,0.00,-0.24,0.77,9.69,0.00,0.00,0.00,0.00
2026-06-27 10:48:02.882,994.81,994.77,-4.17,-2.70,0.00,-0.24,0.77,9.69,0.00,0.00,0.00,0.00
2026-06-27 10:48:02.883,994.81,994.77,-4.17,-2.70,0.00,-0.24,0.77,9.69,0.00,0.00,0.00,0.00
2026-06-27 10:48:03.029,994.81,994.78,-2.87,-2.24,0.00,-0.23,0.77,9.68,0.00,-0.00,0.00,0.00
2026-06-27 10:48:03.031,994.81,994.78,-2.87,-2.24,0.00,-0.24,0.77,9.71,-0.00,0.00,0.00,0.00
2026-06-27 10:48:03.032,994.81,994.78,-2.87,-2.24,0.00,-0.24,0.77,9.71,-0.00,0.00,0.00,0.00
2026-06-27 10:48:03.033,994.81,994.78,-2.87,-2.24,0.00,-0.24,0.77,9.71,-0.00,0.00,0.00,0.00
2026-06-27 10:48:03.037,994.81,994.78,-2.87,-2.24,0.00,-0.24,0.77,9.71,-0.00,0.00,0.00,0.00
2026-06-27 10:48:03.040,994.81,994.78,-2.87,-2.24,0.00,-0.24,0.77,9.71,0.00,0.00,0.00,0.00
2026-06-27 10:48:03.042,994.81,994.78,-2.87,-2.24,0.00,-0.24,0.78,9.70,0.00,0.00,0.00,0.00
2026-06-27 10:48:03.045,994.81,994.78,-2.87,-2.24,0.00,-0.24,0.78,9.70,0.00,0.00,0.00,0.00
2026-06-27 10:48:03.050,994.81,994.78,-2.87,-2.24,0.00,-0.24,0.78,9.70,0.00,0.00,0.00,0.00
2026-06-27 10:48:03.051,994.81,994.78,-2.87,-2.24,0.00,-0.24,0.77,9.71,0.00,-0.00,0.00,0.00
2026-06-27 10:48:03.053,994.81,994.78,-2.87,-2.24,0.00,-0.24,0.77,9.71,0.00,-0.00,0.00,0.00
2026-06-27 10:48:03.054,994.81,994.78,-2.87,-2.24,0.00,-0.24,0.77,9.71,0.00,-0.00,0.00,0.00
2026-06-27 10:48:03.059,994.81,994.78,-2.87,-2.24,0.00,-0.24,0.77,9.71,0.00,-0.00,0.00,0.00
2026-06-27 10:48:03.201,994.82,994.77,-4.78,-2.89,0.00,-0.24,0.76,9.68,0.00,0.00,-0.00,0.00
2026-06-27 10:48:03.202,994.82,994.77,-4.78,-2.89,0.00,-0.25,0.76,9.69,0.00,0.00,-0.00,0.00
2026-06-27 10:48:03.203,994.82,994.77,-4.78,-2.89,0.00,-0.25,0.76,9.69,0.00,0.00,-0.00,0.00
2026-06-27 10:48:03.206,994.82,994.77,-4.78,-2.89,0.00,-0.25,0.76,9.69,0.00,0.00,-0.00,0.00
2026-06-27 10:48:03.210,994.82,994.77,-4.78,-2.89,0.00,-0.25,0.76,9.69,0.00,-0.00,-0.00,0.00
2026-06-27 10:48:03.212,994.82,994.77,-4.78,-2.89,0.00,-0.23,0.76,9.68,0.00,-0.00,-0.00,0.00
2026-06-27 10:48:03.216,994.82,994.77,-4.78,-2.89,0.00,-0.23,0.76,9.68,0.00,-0.00,-0.00,0.00
2026-06-27 10:48:03.221,994.82,994.77,-4.78,-2.89,0.00,-0.23,0.76,9.68,0.00,-0.00,0.00,0.00
2026-06-27 10:48:03.222,994.82,994.77,-4.78,-2.89,0.00,-0.23,0.76,9.68,0.00,-0.00,0.00,0.00
2026-06-27 10:48:03.229,994.82,994.77,-4.78,-2.89,0.00,-0.23,0.76,9.68,0.00,-0.00,0.00,0.00
2026-06-27 10:48:03.232,994.82,994.77,-4.78,-2.89,0.00,-0.25,0.77,9.67,0.00,0.00,-0.00,0.00
2026-06-27 10:48:03.233,994.82,994.77,-4.78,-2.89,0.00,-0.25,0.77,9.67,0.00,0.00,-0.00,0.00
2026-06-27 10:48:03.239,994.82,994.77,-4.78,-2.89,0.00,-0.25,0.77,9.67,0.00,0.00,-0.00,0.00
2026-06-27 10:48:03.381,994.81,994.77,-3.21,-2.37,0.00,-0.26,0.77,9.70,0.00,0.00,0.00,0.00
2026-06-27 10:48:03.383,994.81,994.77,-3.21,-2.37,0.00,-0.23,0.78,9.72,0.00,0.00,0.00,0.00
2026-06-27 10:48:03.384,994.81,994.77,-3.21,-2.37,0.00,-0.23,0.78,9.72,0.00,0.00,0.00,0.00
2026-06-27 10:48:03.385,994.81,994.77,-3.21,-2.37,0.00,-0.23,0.78,9.72,0.00,0.00,0.00,0.00
2026-06-27 10:48:03.389,994.81,994.77,-3.21,-2.37,0.00,-0.23,0.78,9.72,0.00,0.00,0.00,0.00
2026-06-27 10:48:03.391,994.81,994.77,-3.21,-2.37,0.00,-0.27,0.77,9.68,0.00,0.00,0.00,0.00
2026-06-27 10:48:03.393,994.81,994.77,-3.21,-2.37,0.00,-0.27,0.77,9.68,0.00,0.00,0.00,0.00
2026-06-27 10:48:03.394,994.81,994.77,-3.21,-2.37,0.00,-0.27,0.77,9.68,0.00,0.00,0.00,0.00
2026-06-27 10:48:03.397,994.81,994.77,-3.21,-2.37,0.00,-0.27,0.77,9.68,0.00,0.00,0.00,0.00
2026-06-27 10:48:03.401,994.81,994.77,-3.21,-2.37,0.00,-0.27,0.77,9.68,0.00,-0.00,0.00,0.00
2026-06-27 10:48:03.402,994.81,994.77,-3.21,-2.37,0.00,-0.25,0.77,9.69,0.00,-0.00,0.00,0.00
2026-06-27 10:48:03.403,994.81,994.77,-3.21,-2.37,0.00,-0.25,0.77,9.69,0.00,-0.00,0.00,0.00
2026-06-27 10:48:03.405,994.81,994.77,-3.21,-2.37,0.00,-0.25,0.77,9.69,0.00,-0.00,0.00,0.00
2026-06-27 10:48:03.411,994.81,994.77,-3.21,-2.37,0.00,-0.25,0.77,9.69,0.00,-0.00,0.00,0.00
2026-06-27 10:48:03.412,994.81,994.77,-3.21,-2.37,0.00,-0.24,0.77,9.69,0.00,0.00,-0.00,0.00
2026-06-27 10:48:03.413,994.81,994.77,-3.21,-2.37,0.00,-0.24,0.77,9.69,0.00,0.00,-0.00,0.00
2026-06-27 10:48:03.414,994.81,994.77,-3.21,-2.37,0.00,-0.24,0.77,9.69,0.00,0.00,-0.00,0.00
2026-06-27 10:48:03.419,994.81,994.77,-3.21,-2.37,0.00,-0.24,0.77,9.69,0.00,0.00,-0.00,0.00
2026-06-27 10:48:03.562,994.82,994.77,-4.51,-2.81,0.00,-0.23,0.77,9.70,-0.00,0.00,-0.00,0.00
2026-06-27 10:48:03.563,994.82,994.77,-4.51,-2.81,0.00,-0.23,0.77,9.69,-0.00,0.00,-0.00,0.00
2026-06-27 10:48:03.564,994.82,994.77,-4.51,-2.81,0.00,-0.23,0.77,9.69,-0.00,0.00,-0.00,0.00
2026-06-27 10:48:03.567,994.82,994.77,-4.51,-2.81,0.00,-0.23,0.77,9.69,-0.00,0.00,-0.00,0.00
2026-06-27 10:48:03.571,994.82,994.77,-4.51,-2.81,0.00,-0.23,0.77,9.69,0.00,0.00,-0.00,0.00
2026-06-27 10:48:03.573,994.82,994.77,-4.51,-2.81,0.00,-0.24,0.76,9.68,0.00,0.00,-0.00,0.00
2026-06-27 10:48:03.574,994.82,994.77,-4.51,-2.81,0.00,-0.24,0.76,9.68,0.00,0.00,-0.00,0.00
2026-06-27 10:48:03.580,994.82,994.77,-4.51,-2.81,0.00,-0.24,0.76,9.68,0.00,0.00,-0.00,0.00
2026-06-27 10:48:03.582,994.82,994.77,-4.51,-2.81,0.00,-0.25,0.77,9.68,0.00,0.00,0.00,0.00
2026-06-27 10:48:03.583,994.82,994.77,-4.51,-2.81,0.00,-0.25,0.77,9.68,0.00,0.00,0.00,0.00
2026-06-27 10:48:03.585,994.82,994.77,-4.51,-2.81,0.00,-0.25,0.77,9.68,0.00,0.00,0.00,0.00
2026-06-27 10:48:03.586,994.82,994.77,-4.51,-2.81,0.00,-0.25,0.77,9.68,0.00,0.00,0.00,0.00
2026-06-27 10:48:03.591,994.82,994.77,-4.51,-2.81,0.00,-0.25,0.77,9.68,0.00,0.00,0.00,0.00
2026-06-27 10:48:03.593,994.82,994.77,-4.51,-2.81,0.00,-0.23,0.78,9.69,0.00,0.00,-0.00,0.00
2026-06-27 10:48:03.594,994.82,994.77,-4.51,-2.81,0.00,-0.23,0.78,9.69,0.00,0.00,-0.00,0.00
2026-06-27 10:48:03.595,994.82,994.77,-4.51,-2.81,0.00,-0.23,0.78,9.69,0.00,0.00,-0.00,0.00
2026-06-27 10:48:03.734,994.81,994.76,-4.89,-2.93,0.00,-0.23,0.77,9.68,0.00,-0.00,0.00,0.00
2026-06-27 10:48:03.735,994.81,994.76,-4.89,-2.93,0.00,-0.23,0.77,9.68,0.00,-0.00,0.00,0.00
2026-06-27 10:48:03.742,994.81,994.76,-4.89,-2.93,0.00,-0.23,0.77,9.68,0.00,-0.00,0.00,0.00
2026-06-27 10:48:03.743,994.81,994.76,-4.89,-2.93,0.00,-0.24,0.75,9.69,0.00,0.00,0.00,0.00
2026-06-27 10:48:03.744,994.81,994.76,-4.89,-2.93,0.00,-0.24,0.75,9.69,0.00,0.00,0.00,0.00
2026-06-27 10:48:03.745,994.81,994.76,-4.89,-2.93,0.00,-0.24,0.75,9.69,0.00,0.00,0.00,0.00
2026-06-27 10:48:03.751,994.81,994.76,-4.89,-2.93,0.00,-0.24,0.75,9.69,0.00,0.00,0.00,0.00
2026-06-27 10:48:03.753,994.81,994.76,-4.89,-2.93,0.00,-0.26,0.78,9.68,0.00,-0.00,0.00,0.00
2026-06-27 10:48:03.755,994.81,994.76,-4.89,-2.93,0.00,-0.26,0.78,9.68,0.00,-0.00,0.00,0.00
2026-06-27 10:48:03.761,994.81,994.76,-4.89,-2.93,0.00,-0.26,0.78,9.68,0.00,-0.00,0.00,0.00
2026-06-27 10:48:03.763,994.81,994.76,-4.89,-2.93,0.00,-0.24,0.75,9.68,-0.00,0.00,-0.00,0.00
2026-06-27 10:48:03.764,994.81,994.76,-4.89,-2.93,0.00,-0.24,0.75,9.68,-0.00,0.00,-0.00,0.00
2026-06-27 10:48:03.765,994.81,994.76,-4.89,-2.93,0.00,-0.24,0.75,9.68,-0.00,0.00,-0.00,0.00
2026-06-27 10:48:03.772,994.81,994.76,-4.89,-2.93,0.00,-0.24,0.75,9.68,-0.00,0.00,-0.00,0.00
2026-06-27 10:48:03.912,994.81,994.78,-3.08,-2.32,0.00,-0.23,0.77,9.69,-0.00,-0.00,0.00,0.00
2026-06-27 10:48:03.914,994.81,994.78,-3.08,-2.32,0.00,-0.22,0.76,9.69,-0.00,-0.00,0.00,0.00
2026-06-27 10:48:03.915,994.81,994.78,-3.08,-2.32,0.00,-0.22,0.76,9.69,-0.00,-0.00,0.00,0.00
2026-06-27 10:48:03.918,994.81,994.78,-3.08,-2.32,0.00,-0.22,0.76,9.69,-0.00,-0.00,0.00,0.00
2026-06-27 10:48:03.922,994.81,994.78,-3.08,-2.32,0.00,-0.22,0.76,9.69,0.00,0.00,0.00,0.00
2026-06-27 10:48:03.924,994.81,994.78,-3.08,-2.32,0.00,-0.21,0.76,9.69,0.00,0.00,0.00,0.00
2026-06-27 10:48:03.925,994.81,994.78,-3.08,-2.32,0.00,-0.21,0.76,9.69,0.00,0.00,0.00,0.00
2026-06-27 10:48:03.926,994.81,994.78,-3.08,-2.32,0.00,-0.21,0.76,9.69,0.00,0.00,0.00,0.00
2026-06-27 10:48:03.932,994.81,994.78,-3.08,-2.32,0.00,-0.21,0.76,9.69,0.00,0.00,0.00,0.00
2026-06-27 10:48:03.933,994.81,994.78,-3.08,-2.32,0.00,-0.22,0.77,9.68,0.00,0.00,-0.00,0.00
2026-06-27 10:48:03.935,994.81,994.78,-3.08,-2.32,0.00,-0.22,0.77,9.68,0.00,0.00,-0.00,0.00
2026-06-27 10:48:03.936,994.81,994.78,-3.08,-2.32,0.00,-0.22,0.77,9.68,0.00,0.00,-0.00,0.00
2026-06-27 10:48:03.942,994.81,994.78,-3.08,-2.32,0.00,-0.22,0.77,9.68,0.00,0.00,-0.00,0.00
2026-06-27 10:48:03.943,994.81,994.78,-3.08,-2.32,0.00,-0.24,0.77,9.68,0.00,0.00,0.00,0.00
2026-06-27 10:48:03.944,994.81,994.78,-3.08,-2.32,0.00,-0.24,0.77,9.68,0.00,0.00,0.00,0.00
2026-06-27 10:48:03.945,994.81,994.78,-3.08,-2.32,0.00,-0.24,0.77,9.68,0.00,0.00,0.00,0.00
2026-06-27 10:48:03.950,994.81,994.78,-3.08,-2.32,0.00,-0.24,0.77,9.68,0.00,0.00,0.00,0.00
2026-06-27 10:48:04.092,994.81,994.78,-3.18,-2.36,0.00,-0.25,0.77,9.70,0.00,-0.00,0.00,0.00
2026-06-27 10:48:04.095,994.81,994.78,-3.18,-2.36,0.00,-0.24,0.76,9.70,-0.00,0.00,0.00,0.00
2026-06-27 10:48:04.097,994.81,994.78,-3.18,-2.36,0.00,-0.24,0.76,9.70,-0.00,0.00,0.00,0.00
2026-06-27 10:48:04.102,994.81,994.78,-3.18,-2.36,0.00,-0.24,0.76,9.70,-0.00,0.00,0.00,0.00
2026-06-27 10:48:04.103,994.81,994.78,-3.18,-2.36,0.00,-0.26,0.76,9.69,0.00,0.00,0.00,0.00
2026-06-27 10:48:04.105,994.81,994.78,-3.18,-2.36,0.00,-0.26,0.76,9.69,0.00,0.00,0.00,0.00
2026-06-27 10:48:04.106,994.81,994.78,-3.18,-2.36,0.00,-0.26,0.76,9.69,0.00,0.00,0.00,0.00
2026-06-27 10:48:04.111,994.81,994.78,-3.18,-2.36,0.00,-0.26,0.76,9.69,0.00,0.00,0.00,0.00
2026-06-27 10:48:04.113,994.81,994.78,-3.18,-2.36,0.00,-0.26,0.76,9.69,0.00,0.00,0.00,0.00
2026-06-27 10:48:04.114,994.81,994.78,-3.18,-2.36,0.00,-0.26,0.77,9.69,0.00,0.00,0.00,0.00
2026-06-27 10:48:04.115,994.81,994.78,-3.18,-2.36,0.00,-0.26,0.77,9.69,0.00,0.00,0.00,0.00
2026-06-27 10:48:04.117,994.81,994.78,-3.18,-2.36,0.00,-0.26,0.77,9.69,0.00,0.00,0.00,0.00
2026-06-27 10:48:04.122,994.81,994.78,-3.18,-2.36,0.00,-0.26,0.77,9.69,0.00,0.00,0.00,0.00
2026-06-27 10:48:04.124,994.81,994.78,-3.18,-2.36,0.00,-0.26,0.77,9.68,0.00,0.00,0.00,0.00
2026-06-27 10:48:04.125,994.81,994.78,-3.18,-2.36,0.00,-0.26,0.77,9.68,0.00,0.00,0.00,0.00
2026-06-27 10:48:04.265,994.82,994.78,-4.40,-2.78,0.00,-0.24,0.77,9.68,0.00,-0.00,0.00,0.00
2026-06-27 10:48:04.266,994.82,994.78,-4.40,-2.78,0.00,-0.24,0.77,9.68,0.00,-0.00,0.00,0.00
2026-06-27 10:48:04.272,994.82,994.78,-4.40,-2.78,0.00,-0.24,0.77,9.68,0.00,-0.00,0.00,0.00
2026-06-27 10:48:04.274,994.82,994.78,-4.40,-2.78,0.00,-0.25,0.76,9.68,0.00,0.00,-0.00,0.00
2026-06-27 10:48:04.275,994.82,994.78,-4.40,-2.78,0.00,-0.25,0.76,9.68,0.00,0.00,-0.00,0.00
2026-06-27 10:48:04.276,994.82,994.78,-4.40,-2.78,0.00,-0.25,0.76,9.68,0.00,0.00,-0.00,0.00
2026-06-27 10:48:04.280,994.82,994.78,-4.40,-2.78,0.00,-0.25,0.76,9.68,0.00,0.00,-0.00,0.00
2026-06-27 10:48:04.283,994.82,994.78,-4.40,-2.78,0.00,-0.25,0.76,9.68,0.00,0.00,0.00,0.00
2026-06-27 10:48:04.284,994.82,994.78,-4.40,-2.78,0.00,-0.24,0.76,9.68,0.00,0.00,0.00,0.00
2026-06-27 10:48:04.286,994.82,994.78,-4.40,-2.78,0.00,-0.24,0.76,9.68,0.00,0.00,0.00,0.00
2026-06-27 10:48:04.291,994.82,994.78,-4.40,-2.78,0.00,-0.24,0.76,9.68,0.00,0.00,0.00,0.00
2026-06-27 10:48:04.293,994.82,994.78,-4.40,-2.78,0.00,-0.24,0.76,9.68,-0.00,0.00,0.00,0.00
2026-06-27 10:48:04.295,994.82,994.78,-4.40,-2.78,0.00,-0.26,0.77,9.70,-0.00,0.00,0.00,0.00
2026-06-27 10:48:04.296,994.82,994.78,-4.40,-2.78,0.00,-0.26,0.77,9.70,-0.00,0.00,0.00,0.00
2026-06-27 10:48:04.299,994.82,994.78,-4.40,-2.78,0.00,-0.26,0.77,9.70,-0.00,0.00,0.00,0.00
2026-06-27 10:48:04.303,994.82,994.78,-4.40,-2.78,0.00,-0.26,0.77,9.70,0.00,0.00,-0.00,0.00
2026-06-27 10:48:04.444,994.81,994.76,-5.06,-2.98,0.00,-0.25,0.77,9.71,0.00,0.00,0.00,0.00
2026-06-27 10:48:04.445,994.81,994.76,-5.06,-2.98,0.00,-0.23,0.77,9.70,0.00,0.00,0.00,0.00
2026-06-27 10:48:04.446,994.81,994.76,-5.06,-2.98,0.00,-0.23,0.77,9.70,0.00,0.00,0.00,0.00
2026-06-27 10:48:04.451,994.81,994.76,-5.06,-2.98,0.00,-0.23,0.77,9.70,0.00,0.00,0.00,0.00
2026-06-27 10:48:04.454,994.81,994.76,-5.06,-2.98,0.00,-0.23,0.77,9.70,0.00,-0.00,0.00,0.00
2026-06-27 10:48:04.455,994.81,994.76,-5.06,-2.98,0.00,-0.26,0.75,9.67,0.00,-0.00,0.00,0.00
2026-06-27 10:48:04.456,994.81,994.76,-5.06,-2.98,0.00,-0.26,0.75,9.67,0.00,-0.00,0.00,0.00
2026-06-27 10:48:04.460,994.81,994.76,-5.06,-2.98,0.00,-0.26,0.75,9.67,0.00,-0.00,0.00,0.00
2026-06-27 10:48:04.463,994.81,994.76,-5.06,-2.98,0.00,-0.26,0.75,9.67,0.00,0.00,0.00,0.00
2026-06-27 10:48:04.465,994.81,994.76,-5.06,-2.98,0.00,-0.25,0.77,9.67,0.00,0.00,0.00,0.00
2026-06-27 10:48:04.466,994.81,994.76,-5.06,-2.98,0.00,-0.25,0.77,9.67,0.00,0.00,0.00,0.00
2026-06-27 10:48:04.467,994.81,994.76,-5.06,-2.98,0.00,-0.25,0.77,9.67,0.00,0.00,0.00,0.00
2026-06-27 10:48:04.473,994.81,994.76,-5.06,-2.98,0.00,-0.25,0.77,9.67,0.00,0.00,0.00,0.00
2026-06-27 10:48:04.474,994.81,994.76,-5.06,-2.98,0.00,-0.24,0.76,9.68,0.00,-0.00,0.00,0.00
2026-06-27 10:48:04.478,994.81,994.76,-5.06,-2.98,0.00,-0.24,0.76,9.68,0.00,-0.00,0.00,0.00
2026-06-27 10:48:04.483,994.81,994.76,-5.06,-2.98,0.00,-0.24,0.76,9.68,0.00,-0.00,0.00,0.00
2026-06-27 10:48:04.624,994.81,994.77,-3.85,-2.59,0.00,-0.24,0.77,9.68,-0.00,0.00,0.00,0.00
2026-06-27 10:48:04.626,994.81,994.77,-3.85,-2.59,0.00,-0.24,0.77,9.70,-0.00,0.00,0.00,0.00
2026-06-27 10:48:04.627,994.81,994.77,-3.85,-2.59,0.00,-0.24,0.77,9.70,-0.00,0.00,0.00,0.00
2026-06-27 10:48:04.630,994.81,994.77,-3.85,-2.59,0.00,-0.24,0.77,9.70,-0.00,0.00,0.00,0.00
2026-06-27 10:48:04.634,994.81,994.77,-3.85,-2.59,0.00,-0.24,0.77,9.70,0.00,-0.00,-0.00,0.00
2026-06-27 10:48:04.635,994.81,994.77,-3.85,-2.59,0.00,-0.23,0.78,9.73,0.00,-0.00,-0.00,0.00
2026-06-27 10:48:04.636,994.81,994.77,-3.85,-2.59,0.00,-0.23,0.78,9.73,0.00,-0.00,-0.00,0.00
2026-06-27 10:48:04.637,994.81,994.77,-3.85,-2.59,0.00,-0.23,0.78,9.73,0.00,-0.00,-0.00,0.00
2026-06-27 10:48:04.643,994.81,994.77,-3.85,-2.59,0.00,-0.23,0.78,9.73,0.00,-0.00,-0.00,0.00
2026-06-27 10:48:04.645,994.81,994.77,-3.85,-2.59,0.00,-0.23,0.76,9.66,0.00,-0.00,0.00,0.00
2026-06-27 10:48:04.646,994.81,994.77,-3.85,-2.59,0.00,-0.23,0.76,9.66,0.00,-0.00,0.00,0.00
2026-06-27 10:48:04.647,994.81,994.77,-3.85,-2.59,0.00,-0.23,0.76,9.66,0.00,-0.00,0.00,0.00
2026-06-27 10:48:04.653,994.81,994.77,-3.85,-2.59,0.00,-0.23,0.76,9.66,0.00,-0.00,0.00,0.00
2026-06-27 10:48:04.654,994.81,994.77,-3.85,-2.59,0.00,-0.25,0.76,9.68,0.00,0.00,0.00,0.00
2026-06-27 10:48:04.656,994.81,994.77,-3.85,-2.59,0.00,-0.25,0.76,9.68,0.00,0.00,0.00,0.00
2026-06-27 10:48:04.657,994.81,994.77,-3.85,-2.59,0.00,-0.25,0.76,9.68,0.00,0.00,0.00,0.00
2026-06-27 10:48:04.660,994.81,994.77,-3.85,-2.59,0.00,-0.25,0.76,9.68,0.00,0.00,0.00,0.00
2026-06-27 10:48:04.803,994.81,994.77,-3.46,-2.46,0.00,-0.23,0.78,9.69,-0.00,-0.00,0.00,0.00
2026-06-27 10:48:04.805,994.81,994.77,-3.46,-2.46,0.00,-0.23,0.76,9.72,0.00,0.00,0.00,0.00
2026-06-27 10:48:04.806,994.81,994.77,-3.46,-2.46,0.00,-0.23,0.76,9.72,0.00,0.00,0.00,0.00
2026-06-27 10:48:04.807,994.81,994.77,-3.46,-2.46,0.00,-0.23,0.76,9.72,0.00,0.00,0.00,0.00
2026-06-27 10:48:04.811,994.81,994.77,-3.46,-2.46,0.00,-0.23,0.76,9.72,0.00,0.00,0.00,0.00
2026-06-27 10:48:04.815,994.81,994.77,-3.46,-2.46,0.00,-0.23,0.76,9.72,0.00,-0.00,-0.00,0.00
2026-06-27 10:48:04.817,994.81,994.77,-3.46,-2.46,0.00,-0.24,0.78,9.68,0.00,-0.00,-0.00,0.00
2026-06-27 10:48:04.822,994.81,994.77,-3.46,-2.46,0.00,-0.24,0.78,9.68,0.00,-0.00,-0.00,0.00
2026-06-27 10:48:04.825,994.81,994.77,-3.46,-2.46,0.00,-0.24,0.78,9.68,0.00,0.00,0.00,0.00
2026-06-27 10:48:04.826,994.81,994.77,-3.46,-2.46,0.00,-0.24,0.76,9.71,0.00,0.00,0.00,0.00
2026-06-27 10:48:04.827,994.81,994.77,-3.46,-2.46,0.00,-0.24,0.76,9.71,0.00,0.00,0.00,0.00
2026-06-27 10:48:04.830,994.81,994.77,-3.46,-2.46,0.00,-0.24,0.76,9.71,0.00,0.00,0.00,0.00
2026-06-27 10:48:04.834,994.81,994.77,-3.46,-2.46,0.00,-0.24,0.76,9.71,0.00,0.00,-0.00,0.00
2026-06-27 10:48:04.836,994.81,994.77,-3.46,-2.46,0.00,-0.25,0.77,9.68,0.00,0.00,-0.00,0.00
2026-06-27 10:48:04.975,994.81,994.76,-4.40,-2.77,0.00,-0.22,0.76,9.69,0.00,-0.00,0.00,0.00
2026-06-27 10:48:04.976,994.81,994.76,-4.40,-2.77,0.00,-0.22,0.76,9.69,0.00,-0.00,0.00,0.00
2026-06-27 10:48:04.978,994.81,994.76,-4.40,-2.77,0.00,-0.22,0.76,9.69,0.00,-0.00,0.00,0.00
2026-06-27 10:48:04.982,994.81,994.76,-4.40,-2.77,0.00,-0.22,0.76,9.69,0.00,-0.00,0.00,0.00
2026-06-27 10:48:04.986,994.81,994.76,-4.40,-2.77,0.00,-0.22,0.76,9.69,0.00,0.00,-0.00,0.00
2026-06-27 10:48:04.989,994.81,994.76,-4.40,-2.77,0.00,-0.24,0.76,9.70,0.00,0.00,-0.00,0.00
2026-06-27 10:48:04.994,994.81,994.76,-4.40,-2.77,0.00,-0.24,0.76,9.70,0.00,0.00,-0.00,0.00
2026-06-27 10:48:04.996,994.81,994.76,-4.40,-2.77,0.00,-0.25,0.76,9.69,0.00,-0.00,-0.00,0.00
2026-06-27 10:48:04.997,994.81,994.76,-4.40,-2.77,0.00,-0.25,0.76,9.69,0.00,-0.00,-0.00,0.00
2026-06-27 10:48:04.998,994.81,994.76,-4.40,-2.77,0.00,-0.25,0.76,9.69,0.00,-0.00,-0.00,0.00
2026-06-27 10:48:04.003,994.81,994.76,-4.40,-2.77,0.00,-0.25,0.76,9.69,0.00,-0.00,-0.00,0.00
2026-06-27 10:48:05.005,994.81,994.76,-4.40,-2.77,0.00,-0.25,0.76,9.69,-0.00,-0.00,-0.00,0.00
2026-06-27 10:48:05.007,994.81,994.76,-4.40,-2.77,0.00,-0.24,0.77,9.69,-0.00,-0.00,-0.00,0.00
2026-06-27 10:48:05.014,994.81,994.76,-4.40,-2.77,0.00,-0.24,0.77,9.69,-0.00,-0.00,-0.00,0.00
2026-06-27 10:48:05.155,994.80,994.79,-0.94,-1.28,0.00,-0.24,0.77,9.71,0.00,0.00,0.00,0.00
2026-06-27 10:48:05.157,994.80,994.79,-0.94,-1.28,0.00,-0.24,0.75,9.68,0.00,0.00,0.00,0.00
2026-06-27 10:48:05.158,994.80,994.79,-0.94,-1.28,0.00,-0.24,0.75,9.68,0.00,0.00,0.00,0.00
2026-06-27 10:48:05.163,994.80,994.79,-0.94,-1.28,0.00,-0.24,0.75,9.68,0.00,0.00,0.00,0.00
2026-06-27 10:48:05.165,994.80,994.79,-0.94,-1.28,0.00,-0.24,0.75,9.68,0.00,0.00,0.00,0.00
2026-06-27 10:48:05.176,994.80,994.79,-0.94,-1.28,0.00,-0.25,0.78,9.70,0.00,-0.00,0.00,0.00
2026-06-27 10:48:05.177,994.80,994.79,-0.94,-1.28,0.00,-0.24,0.78,9.68,0.00,-0.00,0.00,0.00
2026-06-27 10:48:05.178,994.80,994.79,-0.94,-1.28,0.00,-0.24,0.78,9.68,0.00,-0.00,0.00,0.00
2026-06-27 10:48:05.184,994.80,994.79,-0.94,-1.28,0.00,-0.24,0.78,9.68,0.00,-0.00,0.00,0.00
2026-06-27 10:48:05.186,994.80,994.79,-0.94,-1.28,0.00,-0.27,0.76,9.71,0.00,-0.01,0.00,0.00
2026-06-27 10:48:05.187,994.80,994.79,-0.94,-1.28,0.00,-0.27,0.76,9.71,0.00,-0.01,0.00,0.00
2026-06-27 10:48:05.188,994.80,994.79,-0.94,-1.28,0.00,-0.27,0.76,9.71,0.00,-0.01,0.00,0.00
2026-06-27 10:48:05.328,994.81,994.77,-4.25,-2.73,0.00,-0.24,0.75,9.69,0.00,-0.00,0.00,0.00
2026-06-27 10:48:05.331,994.81,994.77,-4.25,-2.73,0.00,-0.24,0.75,9.69,0.00,-0.00,0.00,0.00
2026-06-27 10:48:05.335,994.81,994.77,-4.25,-2.73,0.00,-0.24,0.75,9.69,0.00,-0.00,0.00,0.00
2026-06-27 10:48:05.336,994.81,994.77,-4.25,-2.73,0.00,-0.24,0.73,9.68,0.00,-0.00,0.00,0.00
2026-06-27 10:48:05.338,994.81,994.77,-4.25,-2.73,0.00,-0.24,0.73,9.68,0.00,-0.00,0.00,0.00
2026-06-27 10:48:05.339,994.81,994.77,-4.25,-2.73,0.00,-0.24,0.73,9.68,0.00,-0.00,0.00,0.00
2026-06-27 10:48:05.345,994.81,994.77,-4.25,-2.73,0.00,-0.24,0.73,9.68,0.00,-0.00,0.00,0.00
2026-06-27 10:48:05.346,994.81,994.77,-4.25,-2.73,0.00,-0.24,0.77,9.70,0.00,0.00,-0.00,0.00
2026-06-27 10:48:05.347,994.81,994.77,-4.25,-2.73,0.00,-0.24,0.77,9.70,0.00,0.00,-0.00,0.00
2026-06-27 10:48:05.348,994.81,994.77,-4.25,-2.73,0.00,-0.24,0.77,9.70,0.00,0.00,-0.00,0.00
2026-06-27 10:48:05.352,994.81,994.77,-4.25,-2.73,0.00,-0.24,0.77,9.70,0.00,0.00,-0.00,0.00
2026-06-27 10:48:05.356,994.81,994.77,-4.25,-2.73,0.00,-0.24,0.77,9.70,-0.00,-0.00,0.00,0.00
2026-06-27 10:48:05.357,994.81,994.77,-4.25,-2.73,0.00,-0.24,0.77,9.66,-0.00,-0.00,0.00,0.00
2026-06-27 10:48:05.358,994.81,994.77,-4.25,-2.73,0.00,-0.24,0.77,9.66,-0.00,-0.00,0.00,0.00
2026-06-27 10:48:05.363,994.81,994.77,-4.25,-2.73,0.00,-0.24,0.77,9.66,-0.00,-0.00,0.00,0.00
2026-06-27 10:48:05.366,994.81,994.77,-4.25,-2.73,0.00,-0.24,0.77,9.66,0.00,-0.00,0.00,0.00
2026-06-27 10:48:05.508,994.80,994.76,-3.80,-2.58,0.00,-0.23,0.76,9.72,-0.00,0.00,0.00,0.00
2026-06-27 10:48:05.511,994.80,994.76,-3.80,-2.58,0.00,-0.23,0.76,9.72,-0.00,0.00,0.00,0.00
2026-06-27 10:48:05.516,994.80,994.76,-3.80,-2.58,0.00,-0.23,0.76,9.72,-0.00,0.00,0.00,0.00
2026-06-27 10:48:05.517,994.80,994.76,-3.80,-2.58,0.00,-0.25,0.77,9.71,-0.00,0.00,0.00,0.00
2026-06-27 10:48:05.518,994.80,994.76,-3.80,-2.58,0.00,-0.25,0.77,9.71,-0.00,0.00,0.00,0.00
2026-06-27 10:48:05.519,994.80,994.76,-3.80,-2.58,0.00,-0.25,0.77,9.71,-0.00,0.00,0.00,0.00
2026-06-27 10:48:05.525,994.80,994.76,-3.80,-2.58,0.00,-0.25,0.77,9.71,-0.00,0.00,0.00,0.00
2026-06-27 10:48:05.527,994.80,994.76,-3.80,-2.58,0.00,-0.24,0.75,9.70,0.00,0.00,0.00,0.00
2026-06-27 10:48:05.529,994.80,994.76,-3.80,-2.58,0.00,-0.24,0.75,9.70,0.00,0.00,0.00,0.00
2026-06-27 10:48:05.535,994.80,994.76,-3.80,-2.58,0.00,-0.24,0.75,9.70,0.00,0.00,0.00,0.00
2026-06-27 10:48:05.537,994.80,994.76,-3.80,-2.58,0.00,-0.26,0.76,9.67,0.00,0.00,0.00,0.00
2026-06-27 10:48:05.538,994.80,994.76,-3.80,-2.58,0.00,-0.26,0.76,9.67,0.00,0.00,0.00,0.00
2026-06-27 10:48:05.539,994.80,994.76,-3.80,-2.58,0.00,-0.26,0.76,9.67,0.00,0.00,0.00,0.00
2026-06-27 10:48:05.543,994.80,994.76,-3.80,-2.58,0.00,-0.26,0.76,9.67,0.00,0.00,0.00,0.00
2026-06-27 10:48:05.679,994.80,994.79,-1.79,-1.77,0.00,-0.25,0.77,9.68,-0.00,0.00,-0.00,0.00
2026-06-27 10:48:05.685,994.80,994.79,-1.79,-1.77,0.00,-0.25,0.77,9.68,-0.00,0.00,-0.00,0.00
2026-06-27 10:48:05.687,994.80,994.79,-1.79,-1.77,0.00,-0.24,0.77,9.69,-0.00,0.00,0.00,0.00
2026-06-27 10:48:05.689,994.80,994.79,-1.79,-1.77,0.00,-0.24,0.77,9.69,-0.00,0.00,0.00,0.00
2026-06-27 10:48:05.693,994.80,994.79,-1.79,-1.77,0.00,-0.24,0.77,9.69,-0.00,0.00,0.00,0.00
2026-06-27 10:48:05.696,994.80,994.79,-1.79,-1.77,0.00,-0.24,0.77,9.69,-0.00,-0.00,0.00,0.00
2026-06-27 10:48:05.698,994.80,994.79,-1.79,-1.77,0.00,-0.24,0.74,9.68,-0.00,-0.00,0.00,0.00
2026-06-27 10:48:05.699,994.80,994.79,-1.79,-1.77,0.00,-0.24,0.74,9.68,-0.00,-0.00,0.00,0.00
2026-06-27 10:48:05.701,994.80,994.79,-1.79,-1.77,0.00,-0.24,0.74,9.68,-0.00,-0.00,0.00,0.00
2026-06-27 10:48:05.707,994.80,994.79,-1.79,-1.77,0.00,-0.24,0.74,9.68,-0.00,-0.00,0.00,0.00
2026-06-27 10:48:05.708,994.80,994.79,-1.79,-1.77,0.00,-0.25,0.75,9.68,0.00,0.00,0.00,0.00
2026-06-27 10:48:05.710,994.80,994.79,-1.79,-1.77,0.00,-0.25,0.75,9.68,0.00,0.00,0.00,0.00
2026-06-27 10:48:05.715,994.80,994.79,-1.79,-1.77,0.00,-0.25,0.75,9.68,0.00,0.00,0.00,0.00
2026-06-27 10:48:05.857,994.81,994.77,-4.36,-2.76,0.00,-0.25,0.76,9.69,0.00,-0.00,0.00,0.00
2026-06-27 10:48:05.858,994.81,994.77,-4.36,-2.76,0.00,-0.26,0.77,9.71,0.00,-0.00,0.00,0.00
2026-06-27 10:48:05.859,994.81,994.77,-4.36,-2.76,0.00,-0.26,0.77,9.71,0.00,-0.00,0.00,0.00
2026-06-27 10:48:05.862,994.81,994.77,-4.36,-2.76,0.00,-0.26,0.77,9.71,0.00,-0.00,0.00,0.00
2026-06-27 10:48:05.867,994.81,994.77,-4.36,-2.76,0.00,-0.26,0.77,9.71,-0.00,0.00,0.00,0.00
2026-06-27 10:48:05.868,994.81,994.77,-4.36,-2.76,0.00,-0.24,0.77,9.69,-0.00,0.00,0.00,0.00
2026-06-27 10:48:05.869,994.81,994.77,-4.36,-2.76,0.00,-0.24,0.77,9.69,-0.00,0.00,0.00,0.00
2026-06-27 10:48:05.870,994.81,994.77,-4.36,-2.76,0.00,-0.24,0.77,9.69,-0.00,0.00,0.00,0.00
2026-06-27 10:48:05.876,994.81,994.77,-4.36,-2.76,0.00,-0.24,0.77,9.69,-0.00,0.00,0.00,0.00
2026-06-27 10:48:05.878,994.81,994.77,-4.36,-2.76,0.00,-0.24,0.77,9.68,0.00,0.00,-0.00,0.00
2026-06-27 10:48:05.879,994.81,994.77,-4.36,-2.76,0.00,-0.24,0.77,9.68,0.00,0.00,-0.00,0.00
2026-06-27 10:48:05.880,994.81,994.77,-4.36,-2.76,0.00,-0.24,0.77,9.68,0.00,0.00,-0.00,0.00
2026-06-27 10:48:05.881,994.81,994.77,-4.36,-2.76,0.00,-0.24,0.77,9.68,0.00,0.00,-0.00,0.00
2026-06-27 10:48:05.886,994.81,994.77,-4.36,-2.76,0.00,-0.24,0.77,9.68,0.00,0.00,-0.00,0.00
2026-06-27 10:48:05.888,994.81,994.77,-4.36,-2.76,0.00,-0.25,0.78,9.71,0.00,0.00,0.00,0.00
2026-06-27 10:48:05.889,994.81,994.77,-4.36,-2.76,0.00,-0.25,0.78,9.71,0.00,0.00,0.00,0.00
2026-06-27 10:48:05.890,994.81,994.77,-4.36,-2.76,0.00,-0.25,0.78,9.71,0.00,0.00,0.00,0.00
2026-06-27 10:48:05.892,994.81,994.77,-4.36,-2.76,0.00,-0.25,0.78,9.71,0.00,0.00,0.00,0.00
2026-06-27 10:48:06.036,994.80,994.78,-2.19,-1.96,0.00,-0.23,0.75,9.70,0.00,-0.00,0.00,0.00
2026-06-27 10:48:06.038,994.80,994.78,-2.19,-1.96,0.00,-0.24,0.76,9.69,0.00,0.00,0.00,0.00
2026-06-27 10:48:06.039,994.80,994.78,-2.19,-1.96,0.00,-0.24,0.76,9.69,0.00,0.00,0.00,0.00
2026-06-27 10:48:06.044,994.80,994.78,-2.19,-1.96,0.00,-0.24,0.76,9.69,0.00,0.00,0.00,0.00
2026-06-27 10:48:06.047,994.80,994.78,-2.19,-1.96,0.00,-0.24,0.76,9.69,-0.00,0.00,-0.00,0.00
2026-06-27 10:48:06.049,994.80,994.78,-2.19,-1.96,0.00,-0.23,0.77,9.70,-0.00,0.00,-0.00,0.00
2026-06-27 10:48:06.050,994.80,994.78,-2.19,-1.96,0.00,-0.23,0.77,9.70,-0.00,0.00,-0.00,0.00
2026-06-27 10:48:06.052,994.80,994.78,-2.19,-1.96,0.00,-0.23,0.77,9.70,-0.00,0.00,-0.00,0.00
2026-06-27 10:48:06.057,994.80,994.78,-2.19,-1.96,0.00,-0.23,0.77,9.70,-0.00,0.00,-0.00,0.00
2026-06-27 10:48:06.058,994.80,994.78,-2.19,-1.96,0.00,-0.26,0.77,9.69,0.00,0.00,-0.00,0.00
2026-06-27 10:48:06.061,994.80,994.78,-2.19,-1.96,0.00,-0.26,0.77,9.69,0.00,0.00,-0.00,0.00
2026-06-27 10:48:06.067,994.80,994.78,-2.19,-1.96,0.00,-0.26,0.77,9.69,0.00,0.00,-0.00,0.00
2026-06-27 10:48:06.068,994.80,994.78,-2.19,-1.96,0.00,-0.27,0.75,9.71,-0.00,-0.00,0.00,0.00
2026-06-27 10:48:06.208,994.81,994.77,-4.42,-2.78,0.00,-0.25,0.76,9.69,0.00,-0.00,0.00,0.00
2026-06-27 10:48:06.209,994.81,994.77,-4.42,-2.78,0.00,-0.25,0.76,9.68,0.00,-0.00,0.00,0.00
2026-06-27 10:48:06.211,994.81,994.77,-4.42,-2.78,0.00,-0.25,0.76,9.68,0.00,-0.00,0.00,0.00
2026-06-27 10:48:06.217,994.81,994.77,-4.42,-2.78,0.00,-0.25,0.76,9.68,0.00,-0.00,0.00,0.00
2026-06-27 10:48:06.218,994.81,994.77,-4.42,-2.78,0.00,-0.24,0.77,9.69,0.00,-0.00,0.00,0.00
2026-06-27 10:48:06.220,994.81,994.77,-4.42,-2.78,0.00,-0.24,0.77,9.69,0.00,-0.00,0.00,0.00
2026-06-27 10:48:06.221,994.81,994.77,-4.42,-2.78,0.00,-0.24,0.77,9.69,0.00,-0.00,0.00,0.00
2026-06-27 10:48:06.227,994.81,994.77,-4.42,-2.78,0.00,-0.24,0.77,9.69,0.00,-0.00,0.00,0.00
2026-06-27 10:48:06.228,994.81,994.77,-4.42,-2.78,0.00,-0.24,0.76,9.68,0.00,0.00,-0.00,0.00
2026-06-27 10:48:06.230,994.81,994.77,-4.42,-2.78,0.00,-0.24,0.76,9.68,0.00,0.00,-0.00,0.00
2026-06-27 10:48:06.236,994.81,994.77,-4.42,-2.78,0.00,-0.24,0.76,9.68,0.00,0.00,-0.00,0.00
2026-06-27 10:48:06.238,994.81,994.77,-4.42,-2.78,0.00,-0.27,0.78,9.70,0.00,0.00,0.00,0.00
2026-06-27 10:48:06.239,994.81,994.77,-4.42,-2.78,0.00,-0.27,0.78,9.70,0.00,0.00,0.00,0.00
2026-06-27 10:48:06.241,994.81,994.77,-4.42,-2.78,0.00,-0.27,0.78,9.70,0.00,0.00,0.00,0.00
2026-06-27 10:48:06.244,994.81,994.77,-4.42,-2.78,0.00,-0.27,0.78,9.70,0.00,0.00,0.00,0.00
2026-06-27 10:48:06.388,994.81,994.79,-1.80,-1.77,0.00,-0.25,0.76,9.69,0.00,0.00,0.00,0.00
2026-06-27 10:48:06.390,994.81,994.79,-1.80,-1.77,0.00,-0.25,0.77,9.69,0.00,-0.00,0.00,0.00
2026-06-27 10:48:06.392,994.81,994.79,-1.80,-1.77,0.00,-0.25,0.77,9.69,0.00,-0.00,0.00,0.00
2026-06-27 10:48:06.397,994.81,994.79,-1.80,-1.77,0.00,-0.25,0.77,9.69,0.00,-0.00,0.00,0.00
2026-06-27 10:48:06.399,994.81,994.79,-1.80,-1.77,0.00,-0.26,0.75,9.68,-0.00,0.00,-0.00,0.00
2026-06-27 10:48:06.400,994.81,994.79,-1.80,-1.77,0.00,-0.26,0.75,9.68,-0.00,0.00,-0.00,0.00
2026-06-27 10:48:06.401,994.81,994.79,-1.80,-1.77,0.00,-0.26,0.75,9.68,-0.00,0.00,-0.00,0.00
2026-06-27 10:48:06.406,994.81,994.79,-1.80,-1.77,0.00,-0.26,0.75,9.68,-0.00,0.00,-0.00,0.00
2026-06-27 10:48:06.408,994.81,994.79,-1.80,-1.77,0.00,-0.26,0.75,9.68,-0.00,-0.00,-0.00,0.00
2026-06-27 10:48:06.409,994.81,994.79,-1.80,-1.77,0.00,-0.25,0.78,9.69,-0.00,-0.00,-0.00,0.00
2026-06-27 10:48:06.411,994.81,994.79,-1.80,-1.77,0.00,-0.25,0.78,9.69,-0.00,-0.00,-0.00,0.00
2026-06-27 10:48:06.414,994.81,994.79,-1.80,-1.77,0.00,-0.25,0.78,9.69,-0.00,-0.00,-0.00,0.00
2026-06-27 10:48:06.418,994.81,994.79,-1.80,-1.77,0.00,-0.25,0.78,9.69,0.00,-0.00,-0.00,0.00
2026-06-27 10:48:06.420,994.81,994.79,-1.80,-1.77,0.00,-0.26,0.79,9.68,0.00,-0.00,-0.00,0.00
2026-06-27 10:48:06.560,994.80,994.79,-1.38,-1.56,0.00,-0.25,0.76,9.68,0.00,-0.00,0.00,0.00
2026-06-27 10:48:06.562,994.80,994.79,-1.38,-1.56,0.00,-0.25,0.76,9.68,0.00,-0.00,0.00,0.00
2026-06-27 10:48:06.568,994.80,994.79,-1.38,-1.56,0.00,-0.25,0.76,9.68,0.00,-0.00,0.00,0.00
2026-06-27 10:48:06.569,994.80,994.79,-1.38,-1.56,0.00,-0.26,0.78,9.69,0.00,-0.00,0.00,0.00
2026-06-27 10:48:06.571,994.80,994.79,-1.38,-1.56,0.00,-0.26,0.78,9.69,0.00,-0.00,0.00,0.00
2026-06-27 10:48:06.577,994.80,994.79,-1.38,-1.56,0.00,-0.26,0.78,9.69,0.00,-0.00,0.00,0.00
2026-06-27 10:48:06.579,994.80,994.79,-1.38,-1.56,0.00,-0.25,0.77,9.68,0.00,0.00,0.00,0.00
2026-06-27 10:48:06.580,994.80,994.79,-1.38,-1.56,0.00,-0.25,0.77,9.68,0.00,0.00,0.00,0.00
2026-06-27 10:48:06.581,994.80,994.79,-1.38,-1.56,0.00,-0.25,0.77,9.68,0.00,0.00,0.00,0.00
2026-06-27 10:48:06.585,994.80,994.79,-1.38,-1.56,0.00,-0.25,0.77,9.68,0.00,0.00,0.00,0.00
2026-06-27 10:48:06.588,994.80,994.79,-1.38,-1.56,0.00,-0.25,0.77,9.68,-0.00,0.00,-0.00,0.00
2026-06-27 10:48:06.590,994.80,994.79,-1.38,-1.56,0.00,-0.27,0.76,9.66,-0.00,0.00,-0.00,0.00
2026-06-27 10:48:06.591,994.80,994.79,-1.38,-1.56,0.00,-0.27,0.76,9.66,-0.00,0.00,-0.00,0.00
2026-06-27 10:48:06.592,994.80,994.79,-1.38,-1.56,0.00,-0.27,0.76,9.66,-0.00,0.00,-0.00,0.00
2026-06-27 10:48:06.595,994.80,994.79,-1.38,-1.56,0.00,-0.27,0.76,9.66,-0.00,0.00,-0.00,0.00
2026-06-27 10:48:06.738,994.80,994.77,-3.07,-2.32,0.00,-0.25,0.77,9.68,-0.00,0.00,-0.00,0.00
2026-06-27 10:48:06.740,994.80,994.77,-3.07,-2.32,0.00,-0.25,0.77,9.68,-0.00,0.00,0.00,0.00
2026-06-27 10:48:06.741,994.80,994.77,-3.07,-2.32,0.00,-0.25,0.77,9.68,-0.00,0.00,0.00,0.00
2026-06-27 10:48:06.742,994.80,994.77,-3.07,-2.32,0.00,-0.25,0.77,9.68,-0.00,0.00,0.00,0.00
2026-06-27 10:48:06.748,994.80,994.77,-3.07,-2.32,0.00,-0.25,0.77,9.68,-0.00,0.00,0.00,0.00
2026-06-27 10:48:06.749,994.80,994.77,-3.07,-2.32,0.00,-0.25,0.78,9.69,0.00,-0.00,-0.00,0.00
2026-06-27 10:48:06.750,994.80,994.77,-3.07,-2.32,0.00,-0.25,0.78,9.69,0.00,-0.00,-0.00,0.00
2026-06-27 10:48:06.752,994.80,994.77,-3.07,-2.32,0.00,-0.25,0.78,9.69,0.00,-0.00,-0.00,0.00
2026-06-27 10:48:06.755,994.80,994.77,-3.07,-2.32,0.00,-0.25,0.78,9.69,0.00,-0.00,-0.00,0.00
2026-06-27 10:48:06.759,994.80,994.77,-3.07,-2.32,0.00,-0.25,0.78,9.69,-0.00,-0.00,0.00,0.00
2026-06-27 10:48:06.760,994.80,994.77,-3.07,-2.32,0.00,-0.25,0.77,9.68,-0.00,-0.00,0.00,0.00
2026-06-27 10:48:06.761,994.80,994.77,-3.07,-2.32,0.00,-0.25,0.77,9.68,-0.00,-0.00,0.00,0.00
2026-06-27 10:48:06.763,994.80,994.77,-3.07,-2.32,0.00,-0.25,0.77,9.68,-0.00,-0.00,0.00,0.00
2026-06-27 10:48:06.768,994.80,994.77,-3.07,-2.32,0.00,-0.25,0.77,9.68,-0.00,-0.00,0.00,0.00
2026-06-27 10:48:06.770,994.80,994.77,-3.07,-2.32,0.00,-0.25,0.76,9.68,-0.00,0.00,0.00,0.00
2026-06-27 10:48:06.910,994.80,994.79,-1.02,-1.34,0.00,-0.24,0.77,9.71,0.00,0.00,0.00,0.00
2026-06-27 10:48:06.911,994.80,994.79,-1.02,-1.34,0.00,-0.24,0.77,9.71,0.00,0.00,0.00,0.00
2026-06-27 10:48:06.912,994.80,994.79,-1.02,-1.34,0.00,-0.24,0.77,9.71,0.00,0.00,0.00,0.00
2026-06-27 10:48:06.918,994.80,994.79,-1.02,-1.34,0.00,-0.24,0.77,9.71,0.00,0.00,0.00,0.00
2026-06-27 10:48:06.920,994.80,994.79,-1.02,-1.34,0.00,-0.26,0.77,9.70,0.00,-0.00,0.00,0.00
2026-06-27 10:48:06.921,994.80,994.79,-1.02,-1.34,0.00,-0.26,0.77,9.70,0.00,-0.00,0.00,0.00
2026-06-27 10:48:06.922,994.80,994.79,-1.02,-1.34,0.00,-0.26,0.77,9.70,0.00,-0.00,0.00,0.00
2026-06-27 10:48:06.926,994.80,994.79,-1.02,-1.34,0.00,-0.26,0.77,9.70,0.00,-0.00,0.00,0.00
2026-06-27 10:48:06.929,994.80,994.79,-1.02,-1.34,0.00,-0.26,0.77,9.70,0.00,-0.00,0.00,0.00
2026-06-27 10:48:06.930,994.80,994.79,-1.02,-1.34,0.00,-0.25,0.79,9.68,0.00,-0.00,0.00,0.00
2026-06-27 10:48:06.932,994.80,994.79,-1.02,-1.34,0.00,-0.25,0.79,9.68,0.00,-0.00,0.00,0.00
2026-06-27 10:48:06.933,994.80,994.79,-1.02,-1.34,0.00,-0.25,0.79,9.68,0.00,-0.00,0.00,0.00
2026-06-27 10:48:06.939,994.80,994.79,-1.02,-1.34,0.00,-0.25,0.79,9.68,0.00,-0.00,0.00,0.00
2026-06-27 10:48:06.941,994.80,994.79,-1.02,-1.34,0.00,-0.24,0.77,9.68,-0.00,0.00,0.00,0.00
2026-06-27 10:48:06.943,994.80,994.79,-1.02,-1.34,0.00,-0.24,0.77,9.68,-0.00,0.00,0.00,0.00
2026-06-27 10:48:06.949,994.80,994.79,-1.02,-1.34,0.00,-0.24,0.77,9.68,-0.00,0.00,0.00,0.00
2026-06-27 10:48:07.090,994.80,994.79,-1.17,-1.43,0.00,-0.26,0.77,9.71,-0.00,0.00,0.00,0.00
2026-06-27 10:48:07.091,994.80,994.79,-1.17,-1.43,0.00,-0.27,0.77,9.67,-0.00,0.00,0.00,0.00
2026-06-27 10:48:07.092,994.80,994.79,-1.17,-1.43,0.00,-0.27,0.77,9.67,-0.00,0.00,0.00,0.00
2026-06-27 10:48:07.094,994.80,994.79,-1.17,-1.43,0.00,-0.27,0.77,9.67,-0.00,0.00,0.00,0.00
2026-06-27 10:48:07.099,994.80,994.79,-1.17,-1.43,0.00,-0.27,0.77,9.67,-0.00,0.00,0.00,0.00
2026-06-27 10:48:07.101,994.80,994.79,-1.17,-1.43,0.00,-0.25,0.76,9.68,0.00,0.01,-0.00,0.00
2026-06-27 10:48:07.102,994.80,994.79,-1.17,-1.43,0.00,-0.25,0.76,9.68,0.00,0.01,-0.00,0.00
2026-06-27 10:48:07.103,994.80,994.79,-1.17,-1.43,0.00,-0.25,0.76,9.68,0.00,0.01,-0.00,0.00
2026-06-27 10:48:07.109,994.80,994.79,-1.17,-1.43,0.00,-0.25,0.76,9.68,0.00,0.01,-0.00,0.00
2026-06-27 10:48:07.110,994.80,994.79,-1.17,-1.43,0.00,-0.23,0.77,9.68,-0.00,0.00,0.00,0.00
2026-06-27 10:48:07.111,994.80,994.79,-1.17,-1.43,0.00,-0.23,0.77,9.68,-0.00,0.00,0.00,0.00
2026-06-27 10:48:07.113,994.80,994.79,-1.17,-1.43,0.00,-0.23,0.77,9.68,-0.00,0.00,0.00,0.00
2026-06-27 10:48:07.116,994.80,994.79,-1.17,-1.43,0.00,-0.23,0.77,9.68,-0.00,0.00,0.00,0.00
2026-06-27 10:48:07.120,994.80,994.79,-1.17,-1.43,0.00,-0.23,0.77,9.68,0.00,0.00,-0.00,0.00
2026-06-27 10:48:07.121,994.80,994.79,-1.17,-1.43,0.00,-0.25,0.76,9.70,0.00,0.00,-0.00,0.00
2026-06-27 10:48:07.122,994.80,994.79,-1.17,-1.43,0.00,-0.25,0.76,9.70,0.00,0.00,-0.00,0.00
2026-06-27 10:48:07.125,994.80,994.79,-1.17,-1.43,0.00,-0.25,0.76,9.70,0.00,0.00,-0.00,0.00
2026-06-27 10:48:07.269,994.82,994.77,-4.97,-2.95,0.00,-0.24,0.77,9.71,-0.00,0.00,0.00,0.00
2026-06-27 10:48:07.270,994.82,994.77,-4.97,-2.95,0.00,-0.23,0.77,9.68,-0.00,0.00,-0.00,0.00
2026-06-27 10:48:07.272,994.82,994.77,-4.97,-2.95,0.00,-0.23,0.77,9.68,-0.00,0.00,-0.00,0.00
2026-06-27 10:48:07.273,994.82,994.77,-4.97,-2.95,0.00,-0.23,0.77,9.68,-0.00,0.00,-0.00,0.00
2026-06-27 10:48:07.278,994.82,994.77,-4.97,-2.95,0.00,-0.23,0.77,9.68,-0.00,0.00,-0.00,0.00
2026-06-27 10:48:07.280,994.82,994.77,-4.97,-2.95,0.00,-0.26,0.77,9.71,-0.00,-0.00,0.00,0.00
2026-06-27 10:48:07.282,994.82,994.77,-4.97,-2.95,0.00,-0.26,0.77,9.71,-0.00,-0.00,0.00,0.00
2026-06-27 10:48:07.283,994.82,994.77,-4.97,-2.95,0.00,-0.26,0.77,9.71,-0.00,-0.00,0.00,0.00
2026-06-27 10:48:07.286,994.82,994.77,-4.97,-2.95,0.00,-0.26,0.77,9.71,-0.00,-0.00,0.00,0.00
2026-06-27 10:48:07.290,994.82,994.77,-4.97,-2.95,0.00,-0.26,0.77,9.71,0.00,0.00,-0.00,0.00
2026-06-27 10:48:07.291,994.82,994.77,-4.97,-2.95,0.00,-0.24,0.75,9.70,0.00,0.00,-0.00,0.00
2026-06-27 10:48:07.293,994.82,994.77,-4.97,-2.95,0.00,-0.24,0.75,9.70,0.00,0.00,-0.00,0.00
2026-06-27 10:48:07.294,994.82,994.77,-4.97,-2.95,0.00,-0.24,0.75,9.70,0.00,0.00,-0.00,0.00
2026-06-27 10:48:07.298,994.82,994.77,-4.97,-2.95,0.00,-0.24,0.75,9.70,0.00,0.00,-0.00,0.00
2026-06-27 10:48:07.300,994.82,994.77,-4.97,-2.95,0.00,-0.24,0.75,9.70,0.00,-0.00,0.00,0.00
2026-06-27 10:48:07.441,994.81,994.78,-2.80,-2.21,0.00,-0.25,0.77,9.70,-0.00,-0.00,0.00,0.00
2026-06-27 10:48:07.442,994.81,994.78,-2.80,-2.21,0.00,-0.25,0.77,9.70,-0.00,-0.00,0.00,0.00
2026-06-27 10:48:07.443,994.81,994.78,-2.80,-2.21,0.00,-0.25,0.77,9.70,-0.00,-0.00,0.00,0.00
2026-06-27 10:48:07.448,994.81,994.78,-2.80,-2.21,0.00,-0.25,0.77,9.70,-0.00,-0.00,0.00,0.00
2026-06-27 10:48:07.451,994.81,994.78,-2.80,-2.21,0.00,-0.25,0.77,9.70,0.00,-0.00,0.00,0.00
2026-06-27 10:48:07.452,994.81,994.78,-2.80,-2.21,0.00,-0.23,0.77,9.72,0.00,-0.00,0.00,0.00
2026-06-27 10:48:07.454,994.81,994.78,-2.80,-2.21,0.00,-0.23,0.77,9.72,0.00,-0.00,0.00,0.00
2026-06-27 10:48:07.459,994.81,994.78,-2.80,-2.21,0.00,-0.23,0.77,9.72,0.00,-0.00,0.00,0.00
2026-06-27 10:48:07.461,994.81,994.78,-2.80,-2.21,0.00,-0.27,0.77,9.68,0.00,-0.00,0.00,0.00
2026-06-27 10:48:07.462,994.81,994.78,-2.80,-2.21,0.00,-0.27,0.77,9.68,0.00,-0.00,0.00,0.00
2026-06-27 10:48:07.463,994.81,994.78,-2.80,-2.21,0.00,-0.27,0.77,9.68,0.00,-0.00,0.00,0.00
2026-06-27 10:48:07.467,994.81,994.78,-2.80,-2.21,0.00,-0.27,0.77,9.68,0.00,-0.00,0.00,0.00
2026-06-27 10:48:07.471,994.81,994.78,-2.80,-2.21,0.00,-0.27,0.77,9.68,0.00,-0.00,0.00,0.00
2026-06-27 10:48:07.472,994.81,994.78,-2.80,-2.21,0.00,-0.22,0.75,9.67,0.00,-0.00,0.00,0.00
2026-06-27 10:48:07.473,994.81,994.78,-2.80,-2.21,0.00,-0.22,0.75,9.67,0.00,-0.00,0.00,0.00
2026-06-27 10:48:07.476,994.81,994.78,-2.80,-2.21,0.00,-0.22,0.75,9.67,0.00,-0.00,0.00,0.00
2026-06-27 10:48:07.620,994.83,994.79,-3.77,-2.57,0.00,-0.24,0.77,9.69,-0.00,0.00,0.00,0.00
2026-06-27 10:48:07.622,994.83,994.79,-3.77,-2.57,0.00,-0.23,0.76,9.68,0.00,0.00,0.00,0.00
2026-06-27 10:48:07.624,994.83,994.79,-3.77,-2.57,0.00,-0.23,0.76,9.68,0.00,0.00,0.00,0.00
2026-06-27 10:48:07.630,994.83,994.79,-3.77,-2.57,0.00,-0.23,0.76,9.68,0.00,0.00,0.00,0.00
2026-06-27 10:48:07.632,994.83,994.79,-3.77,-2.57,0.00,-0.25,0.77,9.68,0.00,-0.00,0.00,0.00
2026-06-27 10:48:07.634,994.83,994.79,-3.77,-2.57,0.00,-0.25,0.77,9.68,0.00,-0.00,0.00,0.00
2026-06-27 10:48:07.640,994.83,994.79,-3.77,-2.57,0.00,-0.25,0.77,9.68,0.00,-0.00,0.00,0.00
2026-06-27 10:48:07.643,994.83,994.79,-3.77,-2.57,0.00,-0.25,0.77,9.69,0.00,-0.00,-0.00,0.00
2026-06-27 10:48:07.650,994.83,994.79,-3.77,-2.57,0.00,-0.25,0.77,9.69,0.00,-0.00,-0.00,0.00
2026-06-27 10:48:07.793,994.81,994.80,-0.98,-1.31,0.00,-0.23,0.75,9.70,0.00,-0.00,0.00,0.00
2026-06-27 10:48:07.794,994.81,994.80,-0.98,-1.31,0.00,-0.23,0.75,9.70,0.00,-0.00,0.00,0.00
2026-06-27 10:48:07.798,994.81,994.80,-0.98,-1.31,0.00,-0.23,0.75,9.70,0.00,-0.00,0.00,0.00
2026-06-27 10:48:07.802,994.81,994.80,-0.98,-1.31,0.00,-0.23,0.75,9.70,0.00,0.00,-0.00,0.00
2026-06-27 10:48:07.808,994.81,994.80,-0.98,-1.31,0.00,-0.25,0.77,9.70,0.00,0.00,-0.00,0.00
2026-06-27 10:48:07.812,994.81,994.80,-0.98,-1.31,0.00,-0.25,0.77,9.70,-0.00,0.00,0.00,0.00
2026-06-27 10:48:07.813,994.81,994.80,-0.98,-1.31,0.00,-0.24,0.74,9.70,-0.00,0.00,0.00,0.00
2026-06-27 10:48:07.816,994.81,994.80,-0.98,-1.31,0.00,-0.24,0.74,9.70,-0.00,0.00,0.00,0.00
2026-06-27 10:48:07.821,994.81,994.80,-0.98,-1.31,0.00,-0.24,0.74,9.70,-0.00,0.00,0.00,0.00
2026-06-27 10:48:07.823,994.81,994.80,-0.98,-1.31,0.00,-0.23,0.76,9.68,0.00,0.00,-0.00,0.00
2026-06-27 10:48:07.824,994.81,994.80,-0.98,-1.31,0.00,-0.23,0.76,9.68,0.00,0.00,-0.00,0.00
2026-06-27 10:48:07.831,994.81,994.80,-0.98,-1.31,0.00,-0.23,0.76,9.68,0.00,0.00,-0.00,0.00
2026-06-27 10:48:07.974,994.82,994.77,-5.01,-2.96,0.00,-0.23,0.77,9.71,0.00,-0.00,0.00,0.00
2026-06-27 10:48:07.979,994.82,994.77,-5.01,-2.96,0.00,-0.23,0.77,9.71,0.00,-0.00,0.00,0.00
2026-06-27 10:48:07.982,994.82,994.77,-5.01,-2.96,0.00,-0.23,0.77,9.71,0.00,0.00,-0.00,0.00
2026-06-27 10:48:07.984,994.82,994.77,-5.01,-2.96,0.00,-0.23,0.77,9.69,0.00,0.00,-0.00,0.00
2026-06-27 10:48:07.986,994.82,994.77,-5.01,-2.96,0.00,-0.23,0.77,9.69,0.00,0.00,-0.00,0.00
2026-06-27 10:48:07.992,994.82,994.77,-5.01,-2.96,0.00,-0.23,0.77,9.69,0.00,0.00,0.00,0.00
2026-06-27 10:48:07.993,994.82,994.77,-5.01,-2.96,0.00,-0.26,0.75,9.71,0.00,0.00,0.00,0.00
2026-06-27 10:48:07.995,994.82,994.77,-5.01,-2.96,0.00,-0.26,0.75,9.71,0.00,0.00,0.00,0.00
2026-06-27 10:48:07.001,994.82,994.77,-5.01,-2.96,0.00,-0.26,0.75,9.71,0.00,0.00,0.00,0.00
2026-06-27 10:48:08.003,994.82,994.77,-5.01,-2.96,0.00,-0.23,0.75,9.68,0.00,0.00,-0.00,0.00
2026-06-27 10:48:08.005,994.82,994.77,-5.01,-2.96,0.00,-0.23,0.75,9.68,0.00,0.00,-0.00,0.00
2026-06-27 10:48:08.010,994.82,994.77,-5.01,-2.96,0.00,-0.23,0.75,9.68,0.00,0.00,-0.00,0.00
2026-06-27 10:48:08.152,994.83,994.77,-5.23,-3.03,0.00,-0.25,0.77,9.68,0.00,-0.00,0.00,0.00
2026-06-27 10:48:08.154,994.83,994.77,-5.23,-3.03,0.00,-0.24,0.77,9.68,0.00,-0.00,0.00,0.00
2026-06-27 10:48:08.158,994.83,994.77,-5.23,-3.03,0.00,-0.24,0.77,9.68,0.00,-0.00,0.00,0.00
2026-06-27 10:48:08.164,994.83,994.77,-5.23,-3.03,0.00,-0.24,0.77,9.68,0.00,0.00,0.00,0.00
2026-06-27 10:48:08.168,994.83,994.77,-5.23,-3.03,0.00,-0.24,0.74,9.69,0.00,0.00,0.00,0.00
2026-06-27 10:48:08.172,994.83,994.77,-5.23,-3.03,0.00,-0.24,0.74,9.69,0.00,-0.00,-0.00,0.00
2026-06-27 10:48:08.174,994.83,994.77,-5.23,-3.03,0.00,-0.24,0.76,9.69,0.00,-0.00,-0.00,0.00
2026-06-27 10:48:08.175,994.83,994.77,-5.23,-3.03,0.00,-0.24,0.76,9.69,0.00,-0.00,-0.00,0.00
2026-06-27 10:48:08.182,994.83,994.77,-5.23,-3.03,0.00,-0.24,0.76,9.69,0.00,-0.00,-0.00,0.00
2026-06-27 10:48:08.184,994.83,994.77,-5.23,-3.03,0.00,-0.23,0.78,9.71,0.00,-0.00,0.00,0.00
2026-06-27 10:48:08.186,994.83,994.77,-5.23,-3.03,0.00,-0.23,0.78,9.71,0.00,-0.00,0.00,0.00
2026-06-27 10:48:08.332,994.82,994.78,-3.67,-2.53,0.00,-0.25,0.78,9.69,0.00,-0.00,-0.00,0.00
2026-06-27 10:48:08.334,994.82,994.78,-3.67,-2.53,0.00,-0.25,0.77,9.67,-0.00,-0.00,0.00,0.00
2026-06-27 10:48:08.336,994.82,994.78,-3.67,-2.53,0.00,-0.25,0.77,9.67,-0.00,-0.00,0.00,0.00
2026-06-27 10:48:08.342,994.82,994.78,-3.67,-2.53,0.00,-0.25,0.77,9.67,-0.00,-0.00,0.00,0.00
2026-06-27 10:48:08.344,994.82,994.78,-3.67,-2.53,0.00,-0.24,0.76,9.67,-0.00,0.00,0.00,0.00
2026-06-27 10:48:08.345,994.82,994.78,-3.67,-2.53,0.00,-0.24,0.76,9.67,-0.00,0.00,0.00,0.00
2026-06-27 10:48:08.351,994.82,994.78,-3.67,-2.53,0.00,-0.24,0.76,9.67,-0.00,0.00,0.00,0.00
2026-06-27 10:48:08.354,994.82,994.78,-3.67,-2.53,0.00,-0.25,0.76,9.67,0.00,-0.00,0.00,0.00
2026-06-27 10:48:08.359,994.82,994.78,-3.67,-2.53,0.00,-0.25,0.76,9.67,0.00,-0.00,0.00,0.00
2026-06-27 10:48:08.363,994.82,994.78,-3.67,-2.53,0.00,-0.25,0.76,9.67,0.00,0.00,0.00,0.00
2026-06-27 10:48:08.503,994.81,994.78,-3.25,-2.38,0.00,-0.24,0.75,9.68,-0.00,0.00,0.00,0.00
2026-06-27 10:48:08.507,994.81,994.78,-3.25,-2.38,0.00,-0.22,0.77,9.68,-0.00,0.00,0.00,0.00
2026-06-27 10:48:08.513,994.81,994.78,-3.25,-2.38,0.00,-0.22,0.77,9.68,-0.00,0.00,0.00,0.00
2026-06-27 10:48:08.514,994.81,994.78,-3.25,-2.38,0.00,-0.24,0.77,9.69,0.00,0.00,0.00,0.00
2026-06-27 10:48:08.516,994.81,994.78,-3.25,-2.38,0.00,-0.24,0.77,9.69,0.00,0.00,0.00,0.00
2026-06-27 10:48:08.522,994.81,994.78,-3.25,-2.38,0.00,-0.24,0.77,9.69,0.00,0.00,0.00,0.00
2026-06-27 10:48:08.524,994.81,994.78,-3.25,-2.38,0.00,-0.24,0.77,9.69,0.00,-0.00,0.00,0.00
2026-06-27 10:48:08.526,994.81,994.78,-3.25,-2.38,0.00,-0.24,0.77,9.69,0.00,-0.00,0.00,0.00
2026-06-27 10:48:08.532,994.81,994.78,-3.25,-2.38,0.00,-0.24,0.77,9.69,0.00,-0.00,0.00,0.00
2026-06-27 10:48:08.534,994.81,994.78,-3.25,-2.38,0.00,-0.25,0.76,9.67,0.00,0.00,0.00,0.00
2026-06-27 10:48:08.536,994.81,994.78,-3.25,-2.38,0.00,-0.25,0.76,9.67,0.00,0.00,0.00,0.00
2026-06-27 10:48:08.682,994.82,994.76,-5.25,-3.03,0.00,-0.26,0.78,9.68,-0.00,0.00,-0.00,0.00
2026-06-27 10:48:08.684,994.82,994.76,-5.25,-3.03,0.00,-0.24,0.80,9.68,-0.00,0.00,-0.00,0.00
2026-06-27 10:48:08.686,994.82,994.76,-5.25,-3.03,0.00,-0.24,0.80,9.68,-0.00,0.00,-0.00,0.00
2026-06-27 10:48:08.691,994.82,994.76,-5.25,-3.03,0.00,-0.24,0.80,9.68,-0.00,0.00,-0.00,0.00
2026-06-27 10:48:08.694,994.82,994.76,-5.25,-3.03,0.00,-0.24,0.80,9.68,0.00,0.00,0.00,0.00
2026-06-27 10:48:08.695,994.82,994.76,-5.25,-3.03,0.00,-0.24,0.76,9.68,0.00,0.00,0.00,0.00
2026-06-27 10:48:08.697,994.82,994.76,-5.25,-3.03,0.00,-0.24,0.76,9.68,0.00,0.00,0.00,0.00
2026-06-27 10:48:08.703,994.82,994.76,-5.25,-3.03,0.00,-0.24,0.76,9.68,0.00,0.00,0.00,0.00
2026-06-27 10:48:08.705,994.82,994.76,-5.25,-3.03,0.00,-0.25,0.77,9.70,0.00,0.00,-0.00,0.00
2026-06-27 10:48:08.706,994.82,994.76,-5.25,-3.03,0.00,-0.25,0.77,9.70,0.00,0.00,-0.00,0.00
2026-06-27 10:48:08.713,994.82,994.76,-5.25,-3.03,0.00,-0.25,0.77,9.70,0.00,0.00,-0.00,0.00
2026-06-27 10:48:08.854,994.83,994.78,-4.98,-2.95,0.00,-0.24,0.77,9.69,-0.00,0.00,0.00,0.00
2026-06-27 10:48:08.856,994.83,994.78,-4.98,-2.95,0.00,-0.24,0.77,9.69,-0.00,0.00,0.00,0.00
2026-06-27 10:48:08.863,994.83,994.78,-4.98,-2.95,0.00,-0.24,0.77,9.69,-0.00,0.00,0.00,0.00
2026-06-27 10:48:08.868,994.83,994.78,-4.98,-2.95,0.00,-0.23,0.79,9.69,0.00,0.00,0.00,0.00
2026-06-27 10:48:08.873,994.83,994.78,-4.98,-2.95,0.00,-0.23,0.79,9.69,0.00,0.00,-0.00,0.00
2026-06-27 10:48:08.875,994.83,994.78,-4.98,-2.95,0.00,-0.22,0.76,9.70,0.00,0.00,-0.00,0.00
2026-06-27 10:48:08.877,994.83,994.78,-4.98,-2.95,0.00,-0.22,0.76,9.70,0.00,0.00,-0.00,0.00
2026-06-27 10:48:08.883,994.83,994.78,-4.98,-2.95,0.00,-0.22,0.76,9.70,0.00,0.00,-0.00,0.00
2026-06-27 10:48:08.885,994.83,994.78,-4.98,-2.95,0.00,-0.24,0.76,9.69,0.00,0.00,0.00,0.00
2026-06-27 10:48:08.886,994.83,994.78,-4.98,-2.95,0.00,-0.24,0.76,9.69,0.00,0.00,0.00,0.00
2026-06-27 10:48:08.889,994.83,994.78,-4.98,-2.95,0.00,-0.24,0.76,9.69,0.00,0.00,0.00,0.00
2026-06-27 10:48:09.034,994.81,994.78,-3.43,-2.45,0.00,-0.25,0.76,9.68,-0.00,-0.00,0.00,0.00
2026-06-27 10:48:09.036,994.81,994.78,-3.43,-2.45,0.00,-0.24,0.76,9.69,-0.00,-0.00,0.00,0.00
2026-06-27 10:48:09.039,994.81,994.78,-3.43,-2.45,0.00,-0.24,0.76,9.69,-0.00,-0.00,0.00,0.00
2026-06-27 10:48:09.044,994.81,994.78,-3.43,-2.45,0.00,-0.24,0.76,9.69,0.00,0.00,0.00,0.00
2026-06-27 10:48:09.046,994.81,994.78,-3.43,-2.45,0.00,-0.24,0.78,9.68,0.00,0.00,0.00,0.00
2026-06-27 10:48:09.047,994.81,994.78,-3.43,-2.45,0.00,-0.24,0.78,9.68,0.00,0.00,0.00,0.00
2026-06-27 10:48:09.054,994.81,994.78,-3.43,-2.45,0.00,-0.24,0.78,9.68,0.00,0.00,0.00,0.00
2026-06-27 10:48:09.057,994.81,994.78,-3.43,-2.45,0.00,-0.26,0.78,9.71,0.00,0.00,0.00,0.00
2026-06-27 10:48:09.064,994.81,994.78,-3.43,-2.45,0.00,-0.26,0.78,9.71,0.00,0.00,0.00,0.00
2026-06-27 10:48:09.065,994.81,994.78,-3.43,-2.45,0.00,-0.23,0.77,9.67,0.00,-0.01,0.00,0.00
2026-06-27 10:48:09.206,994.83,994.78,-4.82,-2.91,0.00,-0.25,0.76,9.69,0.00,-0.00,0.00,0.00
2026-06-27 10:48:09.207,994.83,994.78,-4.82,-2.91,0.00,-0.25,0.76,9.69,0.00,-0.00,0.00,0.00
2026-06-27 10:48:09.214,994.83,994.78,-4.82,-2.91,0.00,-0.25,0.76,9.69,0.00,-0.00,0.00,0.00
2026-06-27 10:48:09.215,994.83,994.78,-4.82,-2.91,0.00,-0.25,0.76,9.69,0.00,0.00,0.00,0.00
2026-06-27 10:48:09.217,994.83,994.78,-4.82,-2.91,0.00,-0.25,0.76,9.69,0.00,0.00,0.00,0.00
2026-06-27 10:48:09.223,994.83,994.78,-4.82,-2.91,0.00,-0.25,0.76,9.69,0.00,0.00,0.00,0.00
2026-06-27 10:48:09.225,994.83,994.78,-4.82,-2.91,0.00,-0.25,0.75,9.68,0.00,-0.00,0.00,0.00
2026-06-27 10:48:09.227,994.83,994.78,-4.82,-2.91,0.00,-0.25,0.75,9.68,0.00,-0.00,0.00,0.00
2026-06-27 10:48:09.231,994.83,994.78,-4.82,-2.91,0.00,-0.25,0.75,9.68,0.00,-0.00,0.00,0.00
2026-06-27 10:48:09.235,994.83,994.78,-4.82,-2.91,0.00,-0.25,0.75,9.68,0.00,0.00,-0.00,0.00
2026-06-27 10:48:09.241,994.83,994.78,-4.82,-2.91,0.00,-0.27,0.77,9.68,0.00,0.00,-0.00,0.00
2026-06-27 10:48:09.385,994.82,994.78,-4.36,-2.76,0.00,-0.23,0.77,9.70,-0.00,0.00,0.00,0.00
2026-06-27 10:48:09.387,994.82,994.78,-4.36,-2.76,0.00,-0.26,0.75,9.68,-0.00,0.00,0.00,0.00
2026-06-27 10:48:09.389,994.82,994.78,-4.36,-2.76,0.00,-0.26,0.75,9.68,-0.00,0.00,0.00,0.00
2026-06-27 10:48:09.395,994.82,994.78,-4.36,-2.76,0.00,-0.26,0.75,9.68,-0.00,0.00,0.00,0.00
2026-06-27 10:48:09.396,994.82,994.78,-4.36,-2.76,0.00,-0.25,0.78,9.69,-0.00,0.00,0.00,0.00
2026-06-27 10:48:09.398,994.82,994.78,-4.36,-2.76,0.00,-0.25,0.78,9.69,-0.00,0.00,0.00,0.00
2026-06-27 10:48:09.402,994.82,994.78,-4.36,-2.76,0.00,-0.25,0.78,9.69,-0.00,0.00,0.00,0.00
2026-06-27 10:48:09.405,994.82,994.78,-4.36,-2.76,0.00,-0.25,0.78,9.69,-0.00,0.00,0.00,0.00
2026-06-27 10:48:09.407,994.82,994.78,-4.36,-2.76,0.00,-0.23,0.76,9.69,-0.00,0.00,0.00,0.00
2026-06-27 10:48:09.409,994.82,994.78,-4.36,-2.76,0.00,-0.23,0.76,9.69,-0.00,0.00,0.00,0.00
2026-06-27 10:48:09.415,994.82,994.78,-4.36,-2.76,0.00,-0.23,0.76,9.69,-0.00,0.00,0.00,0.00
2026-06-27 10:48:09.416,994.82,994.78,-4.36,-2.76,0.00,-0.23,0.76,9.69,-0.00,0.00,0.00,0.00
2026-06-27 10:48:09.420,994.82,994.78,-4.36,-2.76,0.00,-0.23,0.76,9.69,-0.00,0.00,0.00,0.00
2026-06-27 10:48:09.558,994.82,994.80,-2.80,-2.21,0.00,-0.24,0.77,9.71,0.00,0.00,0.00,0.00
2026-06-27 10:48:09.563,994.82,994.80,-2.80,-2.21,0.00,-0.24,0.77,9.71,0.00,0.00,0.00,0.00
2026-06-27 10:48:09.566,994.82,994.80,-2.80,-2.21,0.00,-0.22,0.78,9.69,0.00,0.00,0.00,0.00
2026-06-27 10:48:09.567,994.82,994.80,-2.80,-2.21,0.00,-0.22,0.78,9.69,0.00,0.00,0.00,0.00
2026-06-27 10:48:09.571,994.82,994.80,-2.80,-2.21,0.00,-0.22,0.78,9.69,0.00,0.00,0.00,0.00
2026-06-27 10:48:09.576,994.82,994.80,-2.80,-2.21,0.00,-0.22,0.78,9.69,0.00,-0.00,-0.00,0.00
2026-06-27 10:48:09.579,994.82,994.80,-2.80,-2.21,0.00,-0.24,0.77,9.68,0.00,-0.00,-0.00,0.00
2026-06-27 10:48:09.585,994.82,994.80,-2.80,-2.21,0.00,-0.24,0.77,9.68,0.00,-0.00,-0.00,0.00
2026-06-27 10:48:09.586,994.82,994.80,-2.80,-2.21,0.00,-0.24,0.77,9.71,-0.00,0.00,-0.00,0.00
2026-06-27 10:48:09.588,994.82,994.80,-2.80,-2.21,0.00,-0.24,0.77,9.71,-0.00,0.00,-0.00,0.00
2026-06-27 10:48:09.593,994.82,994.80,-2.80,-2.21,0.00,-0.24,0.77,9.71,-0.00,0.00,-0.00,0.00
2026-06-27 10:48:09.735,994.81,994.77,-4.33,-2.75,0.00,-0.26,0.76,9.68,0.00,-0.00,0.00,0.00
2026-06-27 10:48:09.737,994.81,994.77,-4.33,-2.75,0.00,-0.22,0.76,9.69,0.00,-0.00,-0.00,0.00
2026-06-27 10:48:09.739,994.81,994.77,-4.33,-2.75,0.00,-0.22,0.76,9.69,0.00,-0.00,-0.00,0.00
2026-06-27 10:48:09.745,994.81,994.77,-4.33,-2.75,0.00,-0.22,0.76,9.69,0.00,-0.00,-0.00,0.00
2026-06-27 10:48:09.746,994.81,994.77,-4.33,-2.75,0.00,-0.23,0.78,9.71,0.00,0.00,0.00,0.00
2026-06-27 10:48:09.748,994.81,994.77,-4.33,-2.75,0.00,-0.23,0.78,9.71,0.00,0.00,0.00,0.00
2026-06-27 10:48:09.751,994.81,994.77,-4.33,-2.75,0.00,-0.23,0.78,9.71,0.00,0.00,0.00,0.00
2026-06-27 10:48:09.755,994.81,994.77,-4.33,-2.75,0.00,-0.23,0.78,9.71,0.00,-0.00,-0.00,0.00
2026-06-27 10:48:09.757,994.81,994.77,-4.33,-2.75,0.00,-0.25,0.77,9.70,0.00,-0.00,-0.00,0.00
2026-06-27 10:48:09.762,994.81,994.77,-4.33,-2.75,0.00,-0.25,0.77,9.70,0.00,-0.00,-0.00,0.00
2026-06-27 10:48:09.766,994.81,994.77,-4.33,-2.75,0.00,-0.25,0.77,9.70,-0.00,0.00,-0.00,0.00
2026-06-27 10:48:09.906,994.82,994.78,-4.48,-2.80,0.00,-0.23,0.77,9.70,0.00,-0.00,0.00,0.00
2026-06-27 10:48:09.908,994.82,994.78,-4.48,-2.80,0.00,-0.25,0.78,9.69,0.00,-0.00,0.00,0.00
2026-06-27 10:48:09.910,994.82,994.78,-4.48,-2.80,0.00,-0.25,0.78,9.69,0.00,-0.00,0.00,0.00
2026-06-27 10:48:09.916,994.82,994.78,-4.48,-2.80,0.00,-0.25,0.78,9.69,0.00,-0.00,0.00,0.00
2026-06-27 10:48:09.918,994.82,994.78,-4.48,-2.80,0.00,-0.23,0.76,9.72,0.00,0.00,-0.00,0.00
2026-06-27 10:48:09.920,994.82,994.78,-4.48,-2.80,0.00,-0.23,0.76,9.72,0.00,0.00,-0.00,0.00
2026-06-27 10:48:09.926,994.82,994.78,-4.48,-2.80,0.00,-0.23,0.76,9.72,0.00,0.00,-0.00,0.00
2026-06-27 10:48:09.929,994.82,994.78,-4.48,-2.80,0.00,-0.25,0.76,9.69,0.00,0.00,-0.00,0.00
2026-06-27 10:48:09.935,994.82,994.78,-4.48,-2.80,0.00,-0.25,0.76,9.69,0.00,0.00,-0.00,0.00
2026-06-27 10:48:09.938,994.82,994.78,-4.48,-2.80,0.00,-0.25,0.76,9.68,0.00,0.00,0.00,0.00
2026-06-27 10:48:09.944,994.82,994.78,-4.48,-2.80,0.00,-0.25,0.76,9.68,0.00,0.00,0.00,0.00
2026-06-27 10:48:10.088,994.82,994.78,-3.96,-2.63,0.00,-0.25,0.78,9.68,0.00,0.00,0.00,0.00
2026-06-27 10:48:10.092,994.82,994.78,-3.96,-2.63,0.00,-0.25,0.78,9.68,0.00,0.00,0.00,0.00
2026-06-27 10:48:10.096,994.82,994.78,-3.96,-2.63,0.00,-0.25,0.78,9.68,0.00,0.00,0.00,0.00
2026-06-27 10:48:10.098,994.82,994.78,-3.96,-2.63,0.00,-0.23,0.76,9.70,0.00,0.00,0.00,0.00
2026-06-27 10:48:10.099,994.82,994.78,-3.96,-2.63,0.00,-0.23,0.76,9.70,0.00,0.00,0.00,0.00
2026-06-27 10:48:10.104,994.82,994.78,-3.96,-2.63,0.00,-0.23,0.76,9.70,0.00,0.00,0.00,0.00
2026-06-27 10:48:10.107,994.82,994.78,-3.96,-2.63,0.00,-0.23,0.76,9.70,-0.00,0.00,0.00,0.00
2026-06-27 10:48:10.109,994.82,994.78,-3.96,-2.63,0.00,-0.25,0.77,9.68,-0.00,0.00,0.00,0.00
2026-06-27 10:48:10.115,994.82,994.78,-3.96,-2.63,0.00,-0.25,0.77,9.68,-0.00,0.00,0.00,0.00
2026-06-27 10:48:10.117,994.82,994.78,-3.96,-2.63,0.00,-0.23,0.76,9.68,0.00,0.00,0.00,0.00
2026-06-27 10:48:10.119,994.82,994.78,-3.96,-2.63,0.00,-0.23,0.76,9.68,0.00,0.00,0.00,0.00
2026-06-27 10:48:10.125,994.82,994.78,-3.96,-2.63,0.00,-0.23,0.76,9.68,0.00,0.00,0.00,0.00
2026-06-27 10:48:10.267,994.81,994.77,-3.34,-2.42,0.00,-0.24,0.77,9.68,-0.00,0.00,0.00,0.00
2026-06-27 10:48:10.269,994.81,994.77,-3.34,-2.42,0.00,-0.26,0.75,9.67,-0.00,0.00,0.00,0.00
2026-06-27 10:48:10.273,994.81,994.77,-3.34,-2.42,0.00,-0.26,0.75,9.67,-0.00,0.00,0.00,0.00
2026-06-27 10:48:10.277,994.81,994.77,-3.34,-2.42,0.00,-0.26,0.75,9.67,0.00,-0.00,0.00,0.00
2026-06-27 10:48:10.279,994.81,994.77,-3.34,-2.42,0.00,-0.25,0.77,9.68,0.00,-0.00,0.00,0.00
2026-06-27 10:48:10.282,994.81,994.77,-3.34,-2.42,0.00,-0.25,0.77,9.68,0.00,-0.00,0.00,0.00
2026-06-27 10:48:10.286,994.81,994.77,-3.34,-2.42,0.00,-0.25,0.77,9.68,0.00,-0.00,0.00,0.00
2026-06-27 10:48:10.288,994.81,994.77,-3.34,-2.42,0.00,-0.25,0.77,9.66,0.00,0.00,0.00,0.00
2026-06-27 10:48:10.294,994.81,994.77,-3.34,-2.42,0.00,-0.25,0.77,9.66,0.00,0.00,0.00,0.00
2026-06-27 10:48:10.297,994.81,994.77,-3.34,-2.42,0.00,-0.25,0.77,9.66,0.00,-0.00,-0.00,0.00
2026-06-27 10:48:10.299,994.81,994.77,-3.34,-2.42,0.00,-0.25,0.76,9.68,0.00,-0.00,-0.00,0.00
2026-06-27 10:48:10.438,994.83,994.77,-6.08,-3.26,0.00,-0.25,0.74,9.69,0.00,-0.00,0.00,0.00
2026-06-27 10:48:10.444,994.83,994.77,-6.08,-3.26,0.00,-0.25,0.74,9.69,0.00,-0.00,0.00,0.00
2026-06-27 10:48:10.448,994.83,994.77,-6.08,-3.26,0.00,-0.25,0.74,9.69,-0.00,0.00,-0.00,0.00
2026-06-27 10:48:10.449,994.83,994.77,-6.08,-3.26,0.00,-0.23,0.77,9.71,-0.00,0.00,-0.00,0.00
2026-06-27 10:48:10.455,994.83,994.77,-6.08,-3.26,0.00,-0.23,0.77,9.71,-0.00,0.00,-0.00,0.00
2026-06-27 10:48:10.459,994.83,994.77,-6.08,-3.26,0.00,-0.26,0.77,9.69,0.00,0.00,-0.00,0.00
2026-06-27 10:48:10.463,994.83,994.77,-6.08,-3.26,0.00,-0.26,0.77,9.69,0.00,0.00,-0.00,0.00
2026-06-27 10:48:10.468,994.83,994.77,-6.08,-3.26,0.00,-0.26,0.77,9.69,0.00,0.00,-0.00,0.00
2026-06-27 10:48:10.470,994.83,994.77,-6.08,-3.26,0.00,-0.23,0.76,9.68,0.00,0.00,-0.00,0.00
2026-06-27 10:48:10.475,994.83,994.77,-6.08,-3.26,0.00,-0.23,0.76,9.68,0.00,0.00,-0.00,0.00
2026-06-27 10:48:10.478,994.83,994.77,-6.08,-3.26,0.00,-0.24,0.77,9.69,0.00,0.00,-0.00,0.00
2026-06-27 10:48:10.617,994.84,994.78,-6.76,-3.44,0.00,-0.23,0.76,9.70,-0.00,-0.00,0.00,0.00
2026-06-27 10:48:10.620,994.84,994.78,-6.76,-3.44,0.00,-0.26,0.75,9.69,-0.00,-0.00,0.00,0.00
2026-06-27 10:48:10.627,994.84,994.78,-6.76,-3.44,0.00,-0.26,0.75,9.69,-0.00,-0.00,0.00,0.00
2026-06-27 10:48:10.629,994.84,994.78,-6.76,-3.44,0.00,-0.22,0.77,9.70,-0.00,0.00,-0.00,0.00
2026-06-27 10:48:10.630,994.84,994.78,-6.76,-3.44,0.00,-0.22,0.77,9.70,-0.00,0.00,-0.00,0.00
2026-06-27 10:48:10.636,994.84,994.78,-6.76,-3.44,0.00,-0.22,0.77,9.70,-0.00,0.00,-0.00,0.00
2026-06-27 10:48:10.638,994.84,994.78,-6.76,-3.44,0.00,-0.25,0.77,9.67,0.00,0.00,-0.00,0.00
2026-06-27 10:48:10.640,994.84,994.78,-6.76,-3.44,0.00,-0.25,0.77,9.67,0.00,0.00,-0.00,0.00
2026-06-27 10:48:10.644,994.84,994.78,-6.76,-3.44,0.00,-0.25,0.77,9.67,0.00,0.00,-0.00,0.00
2026-06-27 10:48:10.648,994.84,994.78,-6.76,-3.44,0.00,-0.25,0.77,9.67,0.00,-0.00,0.00,0.00
2026-06-27 10:48:10.649,994.84,994.78,-6.76,-3.44,0.00,-0.24,0.76,9.70,0.00,-0.00,0.00,0.00
2026-06-27 10:48:10.788,994.81,994.81,-0.16,-0.52,0.00,-0.25,0.78,9.71,0.00,0.00,0.00,0.00
2026-06-27 10:48:10.789,994.81,994.81,-0.16,-0.52,0.00,-0.24,0.77,9.71,0.00,0.00,0.00,0.00
2026-06-27 10:48:10.791,994.81,994.81,-0.16,-0.52,0.00,-0.24,0.77,9.71,0.00,0.00,0.00,0.00
2026-06-27 10:48:10.797,994.81,994.81,-0.16,-0.52,0.00,-0.24,0.77,9.71,0.00,0.00,0.00,0.00
2026-06-27 10:48:10.799,994.81,994.81,-0.16,-0.52,0.00,-0.25,0.76,9.69,0.00,0.00,0.00,0.00
2026-06-27 10:48:10.800,994.81,994.81,-0.16,-0.52,0.00,-0.25,0.76,9.69,0.00,0.00,0.00,0.00
2026-06-27 10:48:10.805,994.81,994.81,-0.16,-0.52,0.00,-0.25,0.76,9.69,0.00,0.00,0.00,0.00
2026-06-27 10:48:10.808,994.81,994.81,-0.16,-0.52,0.00,-0.25,0.76,9.69,0.00,0.00,-0.00,0.00
2026-06-27 10:48:10.810,994.81,994.81,-0.16,-0.52,0.00,-0.24,0.76,9.70,0.00,0.00,-0.00,0.00
2026-06-27 10:48:10.813,994.81,994.81,-0.16,-0.52,0.00,-0.24,0.76,9.70,0.00,0.00,-0.00,0.00
2026-06-27 10:48:10.818,994.81,994.81,-0.16,-0.52,0.00,-0.24,0.76,9.70,0.00,0.00,-0.00,0.00
2026-06-27 10:48:10.819,994.81,994.81,-0.16,-0.52,0.00,-0.24,0.77,9.68,0.00,0.00,-0.00,0.00
2026-06-27 10:48:10.821,994.81,994.81,-0.16,-0.52,0.00,-0.24,0.77,9.68,0.00,0.00,-0.00,0.00
2026-06-27 10:48:10.968,994.82,994.78,-4.69,-2.87,0.00,-0.24,0.76,9.68,0.00,-0.01,0.00,0.00
2026-06-27 10:48:10.970,994.82,994.78,-4.69,-2.87,0.00,-0.24,0.77,9.66,0.00,-0.00,0.00,0.00
2026-06-27 10:48:10.974,994.82,994.78,-4.69,-2.87,0.00,-0.24,0.77,9.66,0.00,-0.00,0.00,0.00
2026-06-27 10:48:10.978,994.82,994.78,-4.69,-2.87,0.00,-0.24,0.77,9.66,0.00,-0.00,0.00,0.00
2026-06-27 10:48:10.980,994.82,994.78,-4.69,-2.87,0.00,-0.23,0.77,9.69,0.00,-0.00,0.00,0.00
2026-06-27 10:48:10.981,994.82,994.78,-4.69,-2.87,0.00,-0.23,0.77,9.69,0.00,-0.00,0.00,0.00
2026-06-27 10:48:10.988,994.82,994.78,-4.69,-2.87,0.00,-0.23,0.77,9.69,0.00,-0.00,0.00,0.00
2026-06-27 10:48:10.991,994.82,994.78,-4.69,-2.87,0.00,-0.24,0.76,9.70,0.00,0.00,0.00,0.00
2026-06-27 10:48:10.997,994.82,994.78,-4.69,-2.87,0.00,-0.24,0.76,9.70,0.00,0.00,0.00,0.00
2026-06-27 10:48:10.999,994.82,994.78,-4.69,-2.87,0.00,-0.26,0.78,9.67,-0.00,0.00,0.00,0.00
2026-06-27 10:48:11.140,994.81,994.80,-1.70,-1.72,0.00,-0.27,0.77,9.67,0.00,-0.00,0.00,0.00
2026-06-27 10:48:11.141,994.81,994.80,-1.70,-1.72,0.00,-0.27,0.77,9.67,0.00,-0.00,0.00,0.00
2026-06-27 10:48:11.147,994.81,994.80,-1.70,-1.72,0.00,-0.27,0.77,9.67,0.00,-0.00,0.00,0.00
2026-06-27 10:48:11.149,994.81,994.80,-1.70,-1.72,0.00,-0.26,0.76,9.71,0.00,0.00,-0.00,0.00
2026-06-27 10:48:11.151,994.81,994.80,-1.70,-1.72,0.00,-0.26,0.76,9.71,0.00,0.00,-0.00,0.00
2026-06-27 10:48:11.156,994.81,994.80,-1.70,-1.72,0.00,-0.26,0.76,9.71,0.00,0.00,-0.00,0.00
2026-06-27 10:48:11.160,994.81,994.80,-1.70,-1.72,0.00,-0.25,0.76,9.69,0.00,0.00,0.00,0.00
2026-06-27 10:48:11.162,994.81,994.80,-1.70,-1.72,0.00,-0.25,0.76,9.69,0.00,0.00,0.00,0.00
2026-06-27 10:48:11.168,994.81,994.80,-1.70,-1.72,0.00,-0.25,0.76,9.69,0.00,0.00,0.00,0.00
2026-06-27 10:48:11.170,994.81,994.80,-1.70,-1.72,0.00,-0.25,0.77,9.68,-0.00,0.00,0.00,0.00
2026-06-27 10:48:11.171,994.81,994.80,-1.70,-1.72,0.00,-0.25,0.77,9.68,-0.00,0.00,0.00,0.00
2026-06-27 10:48:11.177,994.81,994.80,-1.70,-1.72,0.00,-0.25,0.77,9.68,-0.00,0.00,0.00,0.00
2026-06-27 10:48:11.320,994.83,994.80,-3.34,-2.42,0.00,-0.23,0.77,9.71,0.00,-0.00,0.00,0.00
2026-06-27 10:48:11.324,994.83,994.80,-3.34,-2.42,0.00,-0.23,0.75,9.68,0.00,-0.00,0.00,0.00
2026-06-27 10:48:11.329,994.83,994.80,-3.34,-2.42,0.00,-0.23,0.75,9.68,-0.00,-0.00,-0.00,0.00
2026-06-27 10:48:11.330,994.83,994.80,-3.34,-2.42,0.00,-0.25,0.78,9.69,-0.00,-0.00,-0.00,0.00
2026-06-27 10:48:11.332,994.83,994.80,-3.34,-2.42,0.00,-0.25,0.78,9.69,-0.00,-0.00,-0.00,0.00
2026-06-27 10:48:11.339,994.83,994.80,-3.34,-2.42,0.00,-0.25,0.78,9.69,-0.00,-0.00,-0.00,0.00
2026-06-27 10:48:11.341,994.83,994.80,-3.34,-2.42,0.00,-0.23,0.76,9.68,0.00,-0.00,0.00,0.00
2026-06-27 10:48:11.347,994.83,994.80,-3.34,-2.42,0.00,-0.23,0.76,9.68,0.00,-0.00,0.00,0.00
2026-06-27 10:48:11.350,994.83,994.80,-3.34,-2.42,0.00,-0.26,0.76,9.69,0.00,-0.00,-0.00,0.00
2026-06-27 10:48:11.356,994.83,994.80,-3.34,-2.42,0.00,-0.26,0.76,9.69,0.00,-0.00,-0.00,0.00
2026-06-27 10:48:11.491,994.83,994.79,-3.30,-2.40,0.00,-0.27,0.77,9.71,0.00,-0.00,0.00,0.00
2026-06-27 10:48:11.492,994.83,994.79,-3.30,-2.40,0.00,-0.27,0.77,9.71,0.00,-0.00,0.00,0.00
2026-06-27 10:48:11.499,994.83,994.79,-3.30,-2.40,0.00,-0.27,0.77,9.71,0.00,-0.00,0.00,0.00
2026-06-27 10:48:11.501,994.83,994.79,-3.30,-2.40,0.00,-0.23,0.77,9.68,0.00,-0.00,0.00,0.00
2026-06-27 10:48:11.502,994.83,994.79,-3.30,-2.40,0.00,-0.23,0.77,9.68,0.00,-0.00,0.00,0.00
2026-06-27 10:48:11.504,994.83,994.79,-3.30,-2.40,0.00,-0.23,0.77,9.68,0.00,-0.00,0.00,0.00
2026-06-27 10:48:11.509,994.83,994.79,-3.30,-2.40,0.00,-0.23,0.77,9.68,-0.00,0.00,-0.00,0.00
2026-06-27 10:48:11.511,994.83,994.79,-3.30,-2.40,0.00,-0.24,0.77,9.68,-0.00,0.00,-0.00,0.00
2026-06-27 10:48:11.512,994.83,994.79,-3.30,-2.40,0.00,-0.24,0.77,9.68,-0.00,0.00,-0.00,0.00
2026-06-27 10:48:11.520,994.83,994.79,-3.30,-2.40,0.00,-0.24,0.77,9.68,-0.00,0.00,-0.00,0.00
2026-06-27 10:48:11.525,994.83,994.79,-3.30,-2.40,0.00,-0.25,0.78,9.70,0.00,0.00,0.00,0.00
2026-06-27 10:48:11.529,994.83,994.79,-3.30,-2.40,0.00,-0.25,0.78,9.70,-0.00,0.00,0.00,0.00
2026-06-27 10:48:11.678,994.80,994.80,-0.71,-1.11,0.00,-0.25,0.76,9.68,0.00,0.01,0.00,0.00
2026-06-27 10:48:11.682,994.80,994.80,-0.71,-1.11,0.00,-0.24,0.77,9.68,0.00,0.00,-0.00,0.00
2026-06-27 10:48:11.686,994.80,994.80,-0.71,-1.11,0.00,-0.24,0.77,9.68,0.00,0.00,-0.00,0.00
2026-06-27 10:48:11.690,994.80,994.80,-0.71,-1.11,0.00,-0.24,0.77,9.68,-0.00,0.00,-0.00,0.00
2026-06-27 10:48:11.698,994.80,994.80,-0.71,-1.11,0.00,-0.23,0.76,9.68,-0.00,0.00,-0.00,0.00
2026-06-27 10:48:11.700,994.80,994.80,-0.71,-1.11,0.00,-0.23,0.76,9.68,-0.00,0.00,0.00,0.00
2026-06-27 10:48:11.704,994.80,994.80,-0.71,-1.11,0.00,-0.25,0.77,9.68,-0.00,0.00,0.00,0.00
2026-06-27 10:48:11.709,994.80,994.80,-0.71,-1.11,0.00,-0.25,0.77,9.68,-0.00,0.00,0.00,0.00
2026-06-27 10:48:11.850,994.83,994.80,-3.54,-2.49,0.00,-0.24,0.76,9.70,0.00,0.00,0.00,0.00
2026-06-27 10:48:11.852,994.83,994.80,-3.54,-2.49,0.00,-0.23,0.76,9.67,0.00,0.00,0.00,0.00
2026-06-27 10:48:11.856,994.83,994.80,-3.54,-2.49,0.00,-0.23,0.76,9.67,0.00,0.00,0.00,0.00
2026-06-27 10:48:11.861,994.83,994.80,-3.54,-2.49,0.00,-0.23,0.76,9.67,0.00,0.00,0.00,0.00
2026-06-27 10:48:11.866,994.83,994.80,-3.54,-2.49,0.00,-0.24,0.75,9.70,0.00,0.00,0.00,0.00
2026-06-27 10:48:11.871,994.83,994.80,-3.54,-2.49,0.00,-0.24,0.75,9.70,0.00,-0.00,0.00,0.00
2026-06-27 10:48:11.873,994.83,994.80,-3.54,-2.49,0.00,-0.25,0.77,9.68,0.00,-0.00,0.00,0.00
2026-06-27 10:48:11.876,994.83,994.80,-3.54,-2.49,0.00,-0.25,0.77,9.68,0.00,-0.00,0.00,0.00
2026-06-27 10:48:11.882,994.83,994.80,-3.54,-2.49,0.00,-0.25,0.77,9.68,0.00,-0.00,0.00,0.00
2026-06-27 10:48:12.029,994.81,994.80,-1.23,-1.47,0.00,-0.24,0.77,9.68,0.00,-0.00,0.00,0.00
2026-06-27 10:48:12.032,994.81,994.80,-1.23,-1.47,0.00,-0.24,0.77,9.68,0.00,-0.00,-0.00,0.00
2026-06-27 10:48:12.037,994.81,994.80,-1.23,-1.47,0.00,-0.24,0.77,9.68,0.00,-0.00,-0.00,0.00
2026-06-27 10:48:12.041,994.81,994.80,-1.23,-1.47,0.00,-0.24,0.77,9.68,0.00,-0.00,0.00,0.00
2026-06-27 10:48:12.043,994.81,994.80,-1.23,-1.47,0.00,-0.24,0.77,9.69,0.00,-0.00,0.00,0.00
2026-06-27 10:48:12.047,994.81,994.80,-1.23,-1.47,0.00,-0.24,0.77,9.69,0.00,-0.00,0.00,0.00
2026-06-27 10:48:12.051,994.81,994.80,-1.23,-1.47,0.00,-0.24,0.77,9.69,0.00,0.00,0.00,0.00
2026-06-27 10:48:12.052,994.81,994.80,-1.23,-1.47,0.00,-0.25,0.76,9.68,0.00,0.00,0.00,0.00
2026-06-27 10:48:12.056,994.81,994.80,-1.23,-1.47,0.00,-0.25,0.76,9.68,0.00,0.00,0.00,0.00
2026-06-27 10:48:12.061,994.81,994.80,-1.23,-1.47,0.00,-0.25,0.76,9.68,0.00,-0.00,-0.00,0.00
2026-06-27 10:48:12.200,994.82,994.80,-2.51,-2.10,0.00,-0.24,0.76,9.69,0.00,0.00,0.00,0.00
2026-06-27 10:48:12.202,994.82,994.80,-2.51,-2.10,0.00,-0.25,0.78,9.69,0.00,-0.00,0.00,0.00
2026-06-27 10:48:12.204,994.82,994.80,-2.51,-2.10,0.00,-0.25,0.78,9.69,0.00,-0.00,0.00,0.00
2026-06-27 10:48:12.205,994.82,994.80,-2.51,-2.10,0.00,-0.25,0.78,9.69,0.00,-0.00,0.00,0.00
2026-06-27 10:48:12.211,994.82,994.80,-2.51,-2.10,0.00,-0.25,0.78,9.69,0.00,-0.00,0.00,0.00
2026-06-27 10:48:12.212,994.82,994.80,-2.51,-2.10,0.00,-0.24,0.76,9.70,0.00,0.00,-0.00,0.00
2026-06-27 10:48:12.214,994.82,994.80,-2.51,-2.10,0.00,-0.24,0.76,9.70,0.00,0.00,-0.00,0.00
2026-06-27 10:48:12.221,994.82,994.80,-2.51,-2.10,0.00,-0.24,0.76,9.70,0.00,0.00,-0.00,0.00
2026-06-27 10:48:12.223,994.82,994.80,-2.51,-2.10,0.00,-0.26,0.76,9.68,0.00,0.00,0.00,0.00
2026-06-27 10:48:12.224,994.82,994.80,-2.51,-2.10,0.00,-0.26,0.76,9.68,0.00,0.00,0.00,0.00
2026-06-27 10:48:12.230,994.82,994.80,-2.51,-2.10,0.00,-0.26,0.76,9.68,0.00,0.00,0.00,0.00
2026-06-27 10:48:12.233,994.82,994.80,-2.51,-2.10,0.00,-0.26,0.78,9.68,0.00,0.00,-0.00,0.00
2026-06-27 10:48:12.372,994.84,994.81,-3.18,-2.36,0.00,-0.24,0.76,9.68,-0.00,0.00,0.00,0.00
2026-06-27 10:48:12.376,994.84,994.81,-3.18,-2.36,0.00,-0.24,0.77,9.70,-0.00,0.00,0.00,0.00
2026-06-27 10:48:12.381,994.84,994.81,-3.18,-2.36,0.00,-0.24,0.77,9.70,-0.00,0.00,0.00,0.00
2026-06-27 10:48:12.383,994.84,994.81,-3.18,-2.36,0.00,-0.24,0.78,9.69,-0.00,-0.00,-0.00,0.00
2026-06-27 10:48:12.385,994.84,994.81,-3.18,-2.36,0.00,-0.24,0.78,9.69,-0.00,-0.00,-0.00,0.00
2026-06-27 10:48:12.391,994.84,994.81,-3.18,-2.36,0.00,-0.24,0.78,9.69,-0.00,-0.00,-0.00,0.00
2026-06-27 10:48:12.395,994.84,994.81,-3.18,-2.36,0.00,-0.24,0.77,9.72,0.00,-0.00,-0.00,0.00
2026-06-27 10:48:12.401,994.84,994.81,-3.18,-2.36,0.00,-0.24,0.77,9.72,0.00,-0.00,-0.00,0.00
2026-06-27 10:48:12.403,994.84,994.81,-3.18,-2.36,0.00,-0.23,0.76,9.68,0.00,0.00,0.00,0.00
2026-06-27 10:48:12.405,994.84,994.81,-3.18,-2.36,0.00,-0.23,0.76,9.68,0.00,0.00,0.00,0.00
2026-06-27 10:48:12.411,994.84,994.81,-3.18,-2.36,0.00,-0.23,0.76,9.68,0.00,0.00,0.00,0.00
2026-06-27 10:48:12.551,994.83,994.78,-4.86,-2.92,0.00,-0.23,0.77,9.68,-0.00,-0.00,0.00,0.00
2026-06-27 10:48:12.553,994.83,994.78,-4.86,-2.92,0.00,-0.24,0.78,9.66,-0.00,-0.00,0.00,0.00
2026-06-27 10:48:12.555,994.83,994.78,-4.86,-2.92,0.00,-0.24,0.78,9.66,-0.00,-0.00,0.00,0.00
2026-06-27 10:48:12.561,994.83,994.78,-4.86,-2.92,0.00,-0.24,0.78,9.66,-0.00,-0.00,0.00,0.00
2026-06-27 10:48:12.563,994.83,994.78,-4.86,-2.92,0.00,-0.24,0.75,9.68,-0.00,0.00,0.00,0.00
2026-06-27 10:48:12.564,994.83,994.78,-4.86,-2.92,0.00,-0.24,0.75,9.68,-0.00,0.00,0.00,0.00
2026-06-27 10:48:12.572,994.83,994.78,-4.86,-2.92,0.00,-0.24,0.75,9.68,0.00,0.00,0.00,0.00
2026-06-27 10:48:12.573,994.83,994.78,-4.86,-2.92,0.00,-0.25,0.76,9.69,0.00,0.00,0.00,0.00
2026-06-27 10:48:12.575,994.83,994.78,-4.86,-2.92,0.00,-0.25,0.76,9.69,0.00,0.00,0.00,0.00
2026-06-27 10:48:12.582,994.83,994.78,-4.86,-2.92,0.00,-0.25,0.76,9.69,0.00,0.00,0.00,0.00
2026-06-27 10:48:12.584,994.83,994.78,-4.86,-2.92,0.00,-0.23,0.77,9.70,0.00,0.00,0.00,0.00
2026-06-27 10:48:12.724,994.83,994.77,-5.26,-3.03,0.00,-0.24,0.77,9.68,0.00,0.00,0.00,0.00
2026-06-27 10:48:12.731,994.83,994.77,-5.26,-3.03,0.00,-0.24,0.77,9.68,0.00,0.00,0.00,0.00
2026-06-27 10:48:12.733,994.83,994.77,-5.26,-3.03,0.00,-0.26,0.76,9.69,0.00,-0.00,0.00,0.00
2026-06-27 10:48:12.735,994.83,994.77,-5.26,-3.03,0.00,-0.26,0.76,9.69,0.00,-0.00,0.00,0.00
2026-06-27 10:48:12.742,994.83,994.77,-5.26,-3.03,0.00,-0.26,0.76,9.69,0.00,-0.00,0.00,0.00
2026-06-27 10:48:12.744,994.83,994.77,-5.26,-3.03,0.00,-0.23,0.78,9.68,0.00,-0.00,-0.00,0.00
2026-06-27 10:48:12.748,994.83,994.77,-5.26,-3.03,0.00,-0.23,0.78,9.68,0.00,-0.00,-0.00,0.00
2026-06-27 10:48:12.752,994.83,994.77,-5.26,-3.03,0.00,-0.23,0.78,9.68,0.00,-0.00,0.00,0.00
2026-06-27 10:48:12.754,994.83,994.77,-5.26,-3.03,0.00,-0.24,0.77,9.71,0.00,-0.00,0.00,0.00
2026-06-27 10:48:12.755,994.83,994.77,-5.26,-3.03,0.00,-0.24,0.77,9.71,0.00,-0.00,0.00,0.00
2026-06-27 10:48:12.762,994.83,994.77,-5.26,-3.03,0.00,-0.24,0.77,9.71,0.00,-0.00,0.00,0.00
2026-06-27 10:48:12.905,994.82,994.78,-4.91,-2.93,0.00,-0.25,0.76,9.68,-0.00,-0.00,0.00,0.00
2026-06-27 10:48:12.908,994.82,994.78,-4.91,-2.93,0.00,-0.25,0.76,9.68,-0.00,-0.00,0.00,0.00
2026-06-27 10:48:12.913,994.82,994.78,-4.91,-2.93,0.00,-0.25,0.76,9.68,0.00,0.00,0.00,0.00
2026-06-27 10:48:12.914,994.82,994.78,-4.91,-2.93,0.00,-0.26,0.75,9.71,0.00,0.00,0.00,0.00
2026-06-27 10:48:12.916,994.82,994.78,-4.91,-2.93,0.00,-0.26,0.75,9.71,0.00,0.00,0.00,0.00
2026-06-27 10:48:12.922,994.82,994.78,-4.91,-2.93,0.00,-0.26,0.75,9.71,0.00,0.00,0.00,0.00
2026-06-27 10:48:12.923,994.82,994.78,-4.91,-2.93,0.00,-0.26,0.75,9.70,0.00,0.00,0.00,0.00
2026-06-27 10:48:12.925,994.82,994.78,-4.91,-2.93,0.00,-0.26,0.75,9.70,0.00,0.00,0.00,0.00
2026-06-27 10:48:12.929,994.82,994.78,-4.91,-2.93,0.00,-0.26,0.75,9.70,0.00,0.00,0.00,0.00
2026-06-27 10:48:12.933,994.82,994.78,-4.91,-2.93,0.00,-0.26,0.75,9.70,0.00,-0.00,0.00,0.00
2026-06-27 10:48:12.934,994.82,994.78,-4.91,-2.93,0.00,-0.25,0.77,9.69,0.00,-0.00,0.00,0.00
2026-06-27 10:48:12.940,994.82,994.78,-4.91,-2.93,0.00,-0.25,0.77,9.69,0.00,-0.00,0.00,0.00
2026-06-27 10:48:13.079,994.82,994.78,-4.01,-2.65,0.00,-0.26,0.76,9.68,0.00,-0.00,-0.00,0.00
2026-06-27 10:48:13.083,994.82,994.78,-4.01,-2.65,0.00,-0.26,0.76,9.68,0.00,0.00,-0.00,0.00
2026-06-27 10:48:13.085,994.82,994.78,-4.01,-2.65,0.00,-0.24,0.78,9.70,0.00,0.00,-0.00,0.00
2026-06-27 10:48:13.088,994.82,994.78,-4.01,-2.65,0.00,-0.24,0.78,9.70,0.00,0.00,-0.00,0.00
2026-06-27 10:48:13.093,994.82,994.78,-4.01,-2.65,0.00,-0.24,0.78,9.70,0.00,0.00,0.00,0.00
2026-06-27 10:48:13.095,994.82,994.78,-4.01,-2.65,0.00,-0.25,0.76,9.69,0.00,0.00,0.00,0.00
2026-06-27 10:48:13.097,994.82,994.78,-4.01,-2.65,0.00,-0.25,0.76,9.69,0.00,0.00,0.00,0.00
2026-06-27 10:48:13.103,994.82,994.78,-4.01,-2.65,0.00,-0.25,0.76,9.69,0.00,0.00,0.00,0.00
2026-06-27 10:48:13.104,994.82,994.78,-4.01,-2.65,0.00,-0.25,0.78,9.70,0.00,-0.00,0.00,0.00
2026-06-27 10:48:13.106,994.82,994.78,-4.01,-2.65,0.00,-0.25,0.78,9.70,0.00,-0.00,0.00,0.00
2026-06-27 10:48:13.109,994.82,994.78,-4.01,-2.65,0.00,-0.25,0.78,9.70,0.00,-0.00,0.00,0.00
2026-06-27 10:48:13.115,994.82,994.78,-4.01,-2.65,0.00,-0.25,0.78,9.70,0.00,-0.00,0.00,0.00
2026-06-27 10:48:13.254,994.81,994.78,-3.39,-2.44,0.00,-0.25,0.78,9.69,0.00,0.00,0.00,0.00
2026-06-27 10:48:13.256,994.81,994.78,-3.39,-2.44,0.00,-0.25,0.78,9.69,0.00,0.00,0.00,0.00
2026-06-27 10:48:13.260,994.81,994.78,-3.39,-2.44,0.00,-0.25,0.78,9.69,0.00,0.00,0.00,0.00
2026-06-27 10:48:13.264,994.81,994.78,-3.39,-2.44,0.00,-0.25,0.78,9.69,-0.00,0.00,0.00,0.00
2026-06-27 10:48:13.265,994.81,994.78,-3.39,-2.44,0.00,-0.25,0.74,9.70,-0.00,0.00,0.00,0.00
2026-06-27 10:48:13.267,994.81,994.78,-3.39,-2.44,0.00,-0.25,0.74,9.70,-0.00,0.00,0.00,0.00
2026-06-27 10:48:13.273,994.81,994.78,-3.39,-2.44,0.00,-0.25,0.74,9.70,-0.00,0.00,0.00,0.00
2026-06-27 10:48:13.276,994.81,994.78,-3.39,-2.44,0.00,-0.25,0.76,9.69,0.00,0.00,-0.00,0.00
2026-06-27 10:48:13.283,994.81,994.78,-3.39,-2.44,0.00,-0.25,0.76,9.69,0.00,0.00,-0.00,0.00
2026-06-27 10:48:13.286,994.81,994.78,-3.39,-2.44,0.00,-0.24,0.77,9.68,0.00,0.00,0.00,0.00
2026-06-27 10:48:13.293,994.81,994.78,-3.39,-2.44,0.00,-0.24,0.77,9.68,0.00,0.00,0.00,0.00
2026-06-27 10:48:13.435,994.83,994.80,-3.53,-2.48,0.00,-0.25,0.77,9.68,0.00,0.00,0.00,0.00
2026-06-27 10:48:13.439,994.83,994.80,-3.53,-2.48,0.00,-0.25,0.77,9.68,0.00,0.00,0.00,0.00
2026-06-27 10:48:13.443,994.83,994.80,-3.53,-2.48,0.00,-0.25,0.77,9.68,-0.00,0.00,0.00,0.00
2026-06-27 10:48:13.445,994.83,994.80,-3.53,-2.48,0.00,-0.24,0.77,9.69,-0.00,0.00,0.00,0.00
2026-06-27 10:48:13.447,994.83,994.80,-3.53,-2.48,0.00,-0.24,0.77,9.69,-0.00,0.00,0.00,0.00
2026-06-27 10:48:13.454,994.83,994.80,-3.53,-2.48,0.00,-0.24,0.77,9.69,-0.00,0.00,0.00,0.00
2026-06-27 10:48:13.459,994.83,994.80,-3.53,-2.48,0.00,-0.25,0.77,9.69,0.00,0.00,-0.00,0.00
2026-06-27 10:48:13.464,994.83,994.80,-3.53,-2.48,0.00,-0.25,0.77,9.69,-0.00,0.00,-0.00,0.00
2026-06-27 10:48:13.470,994.83,994.80,-3.53,-2.48,0.00,-0.27,0.77,9.69,-0.00,0.00,-0.00,0.00
2026-06-27 10:48:13.613,994.84,994.78,-5.56,-3.12,0.00,-0.26,0.75,9.68,0.00,0.00,0.00,0.00
2026-06-27 10:48:13.615,994.84,994.78,-5.56,-3.12,0.00,-0.26,0.77,9.68,0.00,0.00,0.00,0.00
2026-06-27 10:48:13.619,994.84,994.78,-5.56,-3.12,0.00,-0.26,0.77,9.68,0.00,0.00,0.00,0.00
2026-06-27 10:48:13.624,994.84,994.78,-5.56,-3.12,0.00,-0.26,0.77,9.68,-0.00,0.00,0.00,0.00
2026-06-27 10:48:13.626,994.84,994.78,-5.56,-3.12,0.00,-0.26,0.76,9.70,-0.00,0.00,0.00,0.00
2026-06-27 10:48:13.630,994.84,994.78,-5.56,-3.12,0.00,-0.26,0.76,9.70,-0.00,0.00,0.00,0.00
2026-06-27 10:48:13.635,994.84,994.78,-5.56,-3.12,0.00,-0.26,0.76,9.70,0.00,-0.00,0.00,0.00
2026-06-27 10:48:13.637,994.84,994.78,-5.56,-3.12,0.00,-0.26,0.77,9.69,0.00,-0.00,0.00,0.00
2026-06-27 10:48:13.644,994.84,994.78,-5.56,-3.12,0.00,-0.26,0.77,9.69,0.00,-0.00,0.00,0.00
2026-06-27 10:48:13.646,994.84,994.78,-5.56,-3.12,0.00,-0.24,0.76,9.68,-0.00,-0.00,0.00,0.00
2026-06-27 10:48:13.647,994.84,994.78,-5.56,-3.12,0.00,-0.24,0.76,9.68,-0.00,-0.00,0.00,0.00
2026-06-27 10:48:13.794,994.82,994.79,-3.34,-2.42,0.00,-0.23,0.78,9.69,0.00,-0.00,-0.00,0.00
2026-06-27 10:48:13.796,994.82,994.79,-3.34,-2.42,0.00,-0.23,0.76,9.69,0.00,0.00,0.00,0.00
2026-06-27 10:48:13.797,994.82,994.79,-3.34,-2.42,0.00,-0.23,0.76,9.69,0.00,0.00,0.00,0.00
2026-06-27 10:48:13.801,994.82,994.79,-3.34,-2.42,0.00,-0.23,0.76,9.69,0.00,0.00,0.00,0.00
2026-06-27 10:48:13.805,994.82,994.79,-3.34,-2.42,0.00,-0.23,0.76,9.69,-0.00,0.00,0.00,0.00
2026-06-27 10:48:13.807,994.82,994.79,-3.34,-2.42,0.00,-0.26,0.76,9.69,-0.00,0.00,0.00,0.00
2026-06-27 10:48:13.808,994.82,994.79,-3.34,-2.42,0.00,-0.26,0.76,9.69,-0.00,0.00,0.00,0.00
2026-06-27 10:48:13.814,994.82,994.79,-3.34,-2.42,0.00,-0.26,0.76,9.69,-0.00,0.00,0.00,0.00
2026-06-27 10:48:13.815,994.82,994.79,-3.34,-2.42,0.00,-0.23,0.78,9.69,0.00,0.00,-0.00,0.00
2026-06-27 10:48:13.817,994.82,994.79,-3.34,-2.42,0.00,-0.23,0.78,9.69,0.00,0.00,-0.00,0.00
2026-06-27 10:48:13.820,994.82,994.79,-3.34,-2.42,0.00,-0.23,0.78,9.69,0.00,0.00,-0.00,0.00
2026-06-27 10:48:13.825,994.82,994.79,-3.34,-2.42,0.00,-0.23,0.78,9.69,0.00,0.00,-0.00,0.00
2026-06-27 10:48:13.829,994.82,994.79,-3.34,-2.42,0.00,-0.24,0.77,9.68,0.00,0.00,-0.00,0.00
2026-06-27 10:48:13.975,994.82,994.78,-3.74,-2.56,0.00,-0.24,0.78,9.69,0.00,0.00,0.00,0.00
2026-06-27 10:48:13.981,994.82,994.78,-3.74,-2.56,0.00,-0.24,0.78,9.68,0.00,0.00,0.00,0.00
2026-06-27 10:48:13.985,994.82,994.78,-3.74,-2.56,0.00,-0.24,0.78,9.68,0.00,-0.00,0.00,0.00
2026-06-27 10:48:13.987,994.82,994.78,-3.74,-2.56,0.00,-0.24,0.76,9.69,0.00,-0.00,0.00,0.00
2026-06-27 10:48:13.994,994.82,994.78,-3.74,-2.56,0.00,-0.24,0.76,9.69,0.00,-0.00,0.00,0.00
2026-06-27 10:48:13.996,994.82,994.78,-3.74,-2.56,0.00,-0.23,0.79,9.70,0.00,0.00,-0.00,0.00
2026-06-27 10:48:13.997,994.82,994.78,-3.74,-2.56,0.00,-0.23,0.79,9.70,0.00,0.00,-0.00,0.00
2026-06-27 10:48:13.001,994.82,994.78,-3.74,-2.56,0.00,-0.23,0.79,9.70,0.00,0.00,-0.00,0.00
2026-06-27 10:48:14.006,994.82,994.78,-3.74,-2.56,0.00,-0.23,0.79,9.70,0.00,0.00,0.00,0.00
