timestamp,pressure_bag,pressure_bme,diff_pressure,v_wind_est,speed,accel_x,accel_y,accel_z,gyro_x,gyro_y,gyro_z,power
2026-06-27 17:30:25.170,-0.23,0.00,23.00,nan,0.00,2.31,-0.26,9.33,-0.00,0.00,-0.00,0
2026-06-27 17:30:25.180,-0.23,0.00,23.00,nan,0.00,2.30,-0.28,9.38,-0.00,0.00,-0.00,0
2026-06-27 17:30:25.190,-0.23,0.00,23.00,nan,0.00,2.30,-0.28,9.38,-0.00,0.00,-0.00,0
2026-06-27 17:30:25.200,-0.23,993.40,99363.02,nan,0.00,2.29,-0.29,9.38,-0.00,0.00,-0.00,0
2026-06-27 17:30:25.210,993.32,993.40,7.74,3.70,0.00,2.29,-0.29,9.38,-0.00,0.00,-0.00,0
2026-06-27 17:30:25.220,993.32,993.40,7.74,3.70,0.00,2.30,-0.27,9.39,-0.00,0.00,0.00,0
2026-06-27 17:30:25.230,993.32,993.40,7.74,3.70,0.00,2.30,-0.27,9.39,-0.00,0.00,0.00,0
2026-06-27 17:30:25.240,993.32,993.40,7.74,3.70,0.00,2.31,-0.28,9.37,-0.00,-0.00,0.00,0
2026-06-27 17:30:25.250,993.32,993.40,7.74,3.70,0.00,2.30,-0.28,9.39,-0.00,-0.00,0.00,0
2026-06-27 17:30:25.260,993.32,993.40,7.74,3.70,0.00,2.30,-0.28,9.39,-0.00,-0.00,0.00,0
2026-06-27 17:30:25.270,993.32,993.40,7.74,3.70,0.00,2.31,-0.27,9.40,-0.01,-0.00,0.00,0
2026-06-27 17:30:25.280,993.32,993.40,7.74,3.70,0.00,2.32,-0.31,9.39,-0.00,0.00,0.00,0
2026-06-27 17:30:25.290,993.32,993.40,7.74,3.70,0.00,2.32,-0.31,9.39,-0.00,0.00,0.00,0
2026-06-27 17:30:25.300,993.32,993.40,7.74,3.70,0.00,2.32,-0.28,9.38,-0.00,-0.00,-0.00,0
2026-06-27 17:30:25.310,993.32,993.40,7.74,3.70,0.00,2.32,-0.26,9.37,-0.01,0.00,0.00,0
2026-06-27 17:30:25.320,993.32,993.40,7.74,3.70,0.00,2.32,-0.26,9.37,-0.01,0.00,0.00,0
2026-06-27 17:30:25.330,993.32,993.40,7.74,3.70,0.00,2.31,-0.28,9.38,-0.00,-0.00,-0.00,0
2026-06-27 17:30:25.340,993.32,993.40,7.74,3.70,0.00,2.31,-0.29,9.38,-0.00,-0.00,0.00,0
2026-06-27 17:30:25.350,993.32,993.40,7.74,3.70,0.00,2.31,-0.29,9.38,-0.00,-0.00,0.00,0
2026-06-27 17:30:25.360,993.32,993.40,7.74,3.70,0.00,2.31,-0.27,9.41,-0.00,-0.00,-0.00,0
2026-06-27 17:30:25.370,993.32,993.40,7.75,3.70,0.00,2.31,-0.27,9.41,-0.00,-0.00,-0.00,0
2026-06-27 17:30:25.380,993.32,993.40,7.99,3.75,0.00,2.32,-0.28,9.40,-0.01,-0.00,0.00,0
2026-06-27 17:30:25.390,993.32,993.40,7.99,3.75,0.00,2.30,-0.26,9.38,-0.00,0.00,-0.00,0
2026-06-27 17:30:25.400,993.32,993.40,7.99,3.75,0.00,2.30,-0.29,9.38,-0.00,-0.00,0.00,0
2026-06-27 17:30:25.410,993.32,993.40,7.99,3.75,0.00,2.30,-0.29,9.38,-0.00,-0.00,0.00,0
2026-06-27 17:30:25.420,993.32,993.40,7.99,3.75,0.00,2.30,-0.29,9.40,-0.00,0.00,-0.00,0
2026-06-27 17:30:25.430,993.32,993.40,7.99,3.75,0.00,2.31,-0.28,9.37,0.00,0.00,0.00,0
2026-06-27 17:30:25.440,993.32,993.40,7.99,3.75,0.00,2.31,-0.28,9.37,0.00,0.00,0.00,0
2026-06-27 17:30:25.450,993.32,993.40,7.99,3.75,0.00,2.30,-0.27,9.40,-0.00,-0.00,0.00,0
2026-06-27 17:30:25.460,993.32,993.40,7.99,3.75,0.00,2.30,-0.28,9.41,-0.00,0.00,0.00,0
2026-06-27 17:30:25.470,993.32,993.40,7.99,3.75,0.00,2.30,-0.28,9.41,-0.00,0.00,0.00,0
2026-06-27 17:30:25.480,993.32,993.40,7.99,3.75,0.00,2.30,-0.28,9.38,-0.00,-0.00,0.00,0
2026-06-27 17:30:25.490,993.32,993.40,7.99,3.75,0.00,2.31,-0.29,9.38,-0.00,-0.01,-0.00,0
2026-06-27 17:30:25.500,993.32,993.40,7.99,3.75,0.00,2.30,-0.26,9.39,-0.00,-0.00,-0.00,0
2026-06-27 17:30:25.510,993.32,993.40,7.99,3.75,0.00,2.30,-0.26,9.39,-0.00,-0.00,-0.00,0
2026-06-27 17:30:25.520,993.32,993.40,7.99,3.75,0.00,2.30,-0.28,9.38,-0.00,-0.00,0.00,0
2026-06-27 17:30:25.530,993.32,993.40,7.99,3.75,0.00,2.33,-0.28,9.37,-0.00,0.00,0.00,0
2026-06-27 17:30:25.540,993.32,993.41,9.41,4.07,0.00,2.33,-0.28,9.37,-0.00,0.00,0.00,0
2026-06-27 17:30:25.550,993.32,993.41,9.30,4.05,0.00,2.32,-0.25,9.37,-0.00,-0.00,-0.00,0
2026-06-27 17:30:25.560,993.32,993.41,9.30,4.05,0.00,2.30,-0.27,9.37,-0.00,-0.00,0.00,0
2026-06-27 17:30:25.570,993.32,993.41,9.30,4.05,0.00,2.30,-0.27,9.37,-0.00,-0.00,0.00,0
2026-06-27 17:30:25.580,993.32,993.41,9.30,4.05,0.00,2.31,-0.26,9.37,-0.00,0.00,-0.00,0
2026-06-27 17:30:25.590,993.32,993.41,9.30,4.05,0.00,2.31,-0.27,9.38,-0.00,-0.00,-0.00,0
2026-06-27 17:30:25.600,993.32,993.41,9.30,4.05,0.00,2.32,-0.26,9.39,-0.00,0.00,0.00,0
2026-06-27 17:30:25.610,993.32,993.41,9.30,4.05,0.00,2.32,-0.26,9.39,-0.00,0.00,0.00,0
2026-06-27 17:30:25.620,993.32,993.41,9.30,4.05,0.00,2.31,-0.26,9.38,0.00,-0.00,0.00,0
2026-06-27 17:30:25.630,993.32,993.41,9.30,4.05,0.00,2.30,-0.28,9.37,0.00,0.00,0.00,0
2026-06-27 17:30:25.640,993.32,993.41,9.30,4.05,0.00,2.30,-0.29,9.37,-0.00,-0.00,-0.00,0
2026-06-27 17:30:25.650,993.32,993.41,9.30,4.05,0.00,2.31,-0.30,9.39,-0.00,-0.00,0.00,0
2026-06-27 17:30:25.660,993.32,993.41,9.30,4.05,0.00,2.31,-0.30,9.39,-0.00,-0.00,0.00,0
2026-06-27 17:30:25.670,993.32,993.41,9.30,4.05,0.00,2.31,-0.26,9.38,-0.00,-0.00,0.00,0
2026-06-27 17:30:25.680,993.32,993.41,9.30,4.05,0.00,2.32,-0.26,9.38,-0.00,0.00,0.00,0
2026-06-27 17:30:25.690,993.32,993.41,9.30,4.05,0.00,2.32,-0.26,9.38,-0.00,0.00,0.00,0
2026-06-27 17:30:25.700,993.32,993.40,8.35,3.84,0.00,2.29,-0.26,9.39,0.00,0.00,0.00,0
2026-06-27 17:30:25.710,993.32,993.40,8.61,3.90,0.00,2.30,-0.26,9.39,-0.00,-0.00,0.00,0
2026-06-27 17:30:25.720,993.32,993.40,8.61,3.90,0.00,2.31,-0.27,9.38,0.00,-0.01,-0.00,0
2026-06-27 17:30:25.730,993.32,993.40,8.61,3.90,0.00,2.31,-0.27,9.38,0.00,-0.01,-0.00,0
2026-06-27 17:30:25.740,993.32,993.40,8.61,3.90,0.00,2.30,-0.28,9.41,0.00,-0.00,-0.00,0
2026-06-27 17:30:25.750,993.32,993.40,8.61,3.90,0.00,2.32,-0.29,9.35,0.00,0.00,0.00,0
2026-06-27 17:30:25.760,993.32,993.40,8.61,3.90,0.00,2.31,-0.28,9.38,0.00,0.00,-0.00,0
2026-06-27 17:30:25.770,993.32,993.40,8.61,3.90,0.00,2.31,-0.28,9.38,0.00,0.00,-0.00,0
2026-06-27 17:30:25.780,993.32,993.40,8.61,3.90,0.00,2.30,-0.26,9.42,-0.00,-0.00,-0.00,0
2026-06-27 17:30:25.790,993.32,993.40,8.61,3.90,0.00,2.31,-0.27,9.38,0.00,-0.01,0.00,0
2026-06-27 17:30:25.800,993.32,993.40,8.61,3.90,0.00,2.32,-0.27,9.37,0.00,-0.00,0.00,0
2026-06-27 17:30:25.810,993.32,993.40,8.61,3.90,0.00,2.32,-0.27,9.37,0.00,-0.00,0.00,0
2026-06-27 17:30:25.820,993.32,993.40,8.61,3.90,0.00,2.31,-0.29,9.38,0.00,0.00,0.00,0
2026-06-27 17:30:25.830,993.32,993.40,8.61,3.90,0.00,2.31,-0.27,9.39,-0.00,0.00,-0.00,0
2026-06-27 17:30:25.840,993.32,993.40,8.61,3.90,0.00,2.28,-0.29,9.39,0.00,-0.01,-0.00,0
2026-06-27 17:30:25.850,993.32,993.40,8.61,3.90,0.00,2.28,-0.29,9.39,0.00,-0.01,-0.00,0
2026-06-27 17:30:25.860,993.32,993.40,8.61,3.90,0.00,2.32,-0.28,9.35,0.00,0.00,-0.00,0
2026-06-27 17:30:25.870,993.33,993.40,7.64,3.67,0.00,2.29,-0.28,9.37,-0.00,-0.00,0.00,0
2026-06-27 17:30:25.880,993.33,993.40,7.64,3.67,0.00,2.30,-0.26,9.38,-0.00,-0.00,-0.00,0
2026-06-27 17:30:25.890,993.33,993.40,7.64,3.67,0.00,2.30,-0.26,9.38,-0.00,-0.00,-0.00,0
2026-06-27 17:30:25.900,993.33,993.40,7.64,3.67,0.00,2.30,-0.28,9.39,0.00,0.00,0.00,0
2026-06-27 17:30:25.910,993.33,993.40,7.64,3.67,0.00,2.29,-0.26,9.42,0.00,0.00,0.00,0
2026-06-27 17:30:25.920,993.33,993.40,7.64,3.67,0.00,2.29,-0.26,9.42,0.00,0.00,0.00,0
2026-06-27 17:30:25.930,993.33,993.40,7.64,3.67,0.00,2.30,-0.27,9.39,-0.00,0.00,0.00,0
2026-06-27 17:30:25.940,993.33,993.40,7.64,3.67,0.00,2.31,-0.28,9.38,0.00,0.00,-0.00,0
2026-06-27 17:30:25.950,993.33,993.40,7.64,3.67,0.00,2.30,-0.27,9.39,0.00,0.00,0.00,0
2026-06-27 17:30:25.960,993.33,993.40,7.64,3.67,0.00,2.30,-0.27,9.39,0.00,0.00,0.00,0
2026-06-27 17:30:25.970,993.33,993.40,7.64,3.67,0.00,2.31,-0.27,9.37,0.00,0.00,-0.00,0
2026-06-27 17:30:25.980,993.33,993.40,7.64,3.67,0.00,2.31,-0.28,9.37,0.00,0.00,-0.00,0
2026-06-27 17:30:25.990,993.33,993.40,7.64,3.67,0.00,2.30,-0.27,9.37,0.00,-0.00,0.00,0
2026-06-27 17:30:26.000,993.33,993.40,7.64,3.67,0.00,2.30,-0.27,9.37,0.00,-0.00,0.00,0
2026-06-27 17:30:26.010,993.33,993.40,7.64,3.67,0.00,2.32,-0.26,9.38,-0.00,-0.00,0.00,0
2026-06-27 17:30:26.020,993.33,993.40,7.64,3.67,0.00,2.32,-0.26,9.38,-0.00,-0.00,0.00,0
2026-06-27 17:30:26.030,993.33,993.40,7.64,3.67,0.00,2.30,-0.28,9.39,0.00,-0.00,0.00,0
2026-06-27 17:30:26.040,993.33,993.40,6.93,3.50,0.00,2.31,-0.27,9.37,0.00,0.00,-0.00,0
2026-06-27 17:30:26.050,993.33,993.40,6.93,3.50,0.00,2.31,-0.27,9.37,0.00,0.00,-0.00,0
2026-06-27 17:30:26.060,993.33,993.40,6.93,3.50,0.00,2.30,-0.27,9.37,-0.00,-0.00,-0.00,0
2026-06-27 17:30:26.070,993.33,993.40,6.93,3.50,0.00,2.32,-0.28,9.36,-0.00,0.00,0.00,0
2026-06-27 17:30:26.080,993.33,993.40,6.93,3.50,0.00,2.31,-0.30,9.39,-0.00,0.01,0.00,0
2026-06-27 17:30:26.090,993.33,993.40,6.93,3.50,0.00,2.31,-0.30,9.39,-0.00,0.01,0.00,0
2026-06-27 17:30:26.100,993.33,993.40,6.93,3.50,0.00,2.32,-0.26,9.38,-0.00,-0.00,0.00,0
2026-06-27 17:30:26.110,993.33,993.40,6.93,3.50,0.00,2.31,-0.27,9.38,0.00,0.00,0.00,0
2026-06-27 17:30:26.120,993.33,993.40,6.93,3.50,0.00,2.30,-0.26,9.38,0.00,0.00,-0.00,0
2026-06-27 17:30:26.130,993.33,993.40,6.93,3.50,0.00,2.30,-0.26,9.38,0.00,0.00,-0.00,0
2026-06-27 17:30:26.140,993.33,993.40,6.93,3.50,0.00,2.31,-0.29,9.38,0.00,0.00,0.00,0
2026-06-27 17:30:26.150,993.33,993.40,6.93,3.50,0.00,2.32,-0.27,9.39,-0.00,0.00,-0.00,0
2026-06-27 17:30:26.160,993.33,993.40,6.93,3.50,0.00,2.31,-0.27,9.37,0.00,0.00,-0.00,0
2026-06-27 17:30:26.170,993.33,993.40,6.93,3.50,0.00,2.31,-0.27,9.37,0.00,0.00,-0.00,0
2026-06-27 17:30:26.180,993.33,993.40,6.93,3.50,0.00,2.32,-0.28,9.39,0.00,-0.00,0.00,0
2026-06-27 17:30:26.190,993.33,993.40,6.93,3.50,0.00,2.30,-0.27,9.38,0.00,0.00,-0.00,0
2026-06-27 17:30:26.200,993.33,993.40,6.75,3.45,0.00,2.30,-0.27,9.38,0.00,0.00,-0.00,0
2026-06-27 17:30:26.210,993.33,993.40,6.75,3.45,0.00,2.32,-0.29,9.38,0.00,0.00,-0.00,0
2026-06-27 17:30:26.220,993.33,993.40,6.75,3.45,0.00,2.28,-0.27,9.39,-0.00,-0.00,-0.00,0
2026-06-27 17:30:26.230,993.33,993.40,6.75,3.45,0.00,2.31,-0.27,9.39,-0.00,0.00,-0.00,0
2026-06-27 17:30:26.240,993.33,993.40,6.75,3.45,0.00,2.31,-0.27,9.39,-0.00,0.00,-0.00,0
2026-06-27 17:30:26.250,993.33,993.40,6.75,3.45,0.00,2.32,-0.28,9.39,0.00,-0.00,-0.00,0
2026-06-27 17:30:26.260,993.33,993.40,6.75,3.45,0.00,2.30,-0.30,9.38,-0.00,0.00,-0.00,0
2026-06-27 17:30:26.270,993.33,993.40,6.75,3.45,0.00,2.30,-0.26,9.39,0.00,0.00,0.00,0
2026-06-27 17:30:26.280,993.33,993.40,6.75,3.45,0.00,2.30,-0.26,9.39,0.00,0.00,0.00,0
2026-06-27 17:30:26.290,993.33,993.40,6.75,3.45,0.00,2.31,-0.28,9.38,-0.00,0.00,-0.00,0
2026-06-27 17:30:26.300,993.33,993.40,6.75,3.45,0.00,2.32,-0.28,9.39,-0.00,0.00,-0.00,0
2026-06-27 17:30:26.310,993.33,993.40,6.75,3.45,0.00,2.32,-0.28,9.39,-0.00,0.00,-0.00,0
2026-06-27 17:30:26.320,993.33,993.40,6.75,3.45,0.00,2.32,-0.28,9.36,-0.00,0.00,0.00,0
2026-06-27 17:30:26.330,993.33,993.40,6.75,3.45,0.00,2.31,-0.25,9.38,-0.00,-0.00,-0.00,0
2026-06-27 17:30:26.340,993.33,993.40,6.75,3.45,0.00,2.30,-0.28,9.39,-0.00,0.00,0.00,0
2026-06-27 17:30:26.350,993.33,993.40,6.75,3.45,0.00,2.30,-0.28,9.39,-0.00,0.00,0.00,0
2026-06-27 17:30:26.360,993.33,993.40,6.75,3.45,0.00,2.30,-0.28,9.42,-0.00,-0.00,-0.00,0
2026-06-27 17:30:26.370,993.31,993.40,8.98,3.98,0.00,2.32,-0.28,9.39,-0.00,-0.00,-0.00,0
2026-06-27 17:30:26.380,993.31,993.40,8.98,3.98,0.00,2.29,-0.28,9.40,0.00,0.00,0.00,0
2026-06-27 17:30:26.390,993.31,993.40,8.98,3.98,0.00,2.29,-0.28,9.40,0.00,0.00,0.00,0
2026-06-27 17:30:26.400,993.31,993.40,8.98,3.98,0.00,2.31,-0.27,9.41,-0.00,0.00,0.00,0
2026-06-27 17:30:26.410,993.31,993.40,8.98,3.98,0.00,2.31,-0.27,9.41,-0.00,0.00,0.00,0
2026-06-27 17:30:26.420,993.31,993.40,8.98,3.98,0.00,2.30,-0.27,9.39,0.00,-0.00,0.00,0
2026-06-27 17:30:26.430,993.31,993.40,8.98,3.98,0.00,2.30,-0.27,9.39,0.00,-0.00,-0.00,0
2026-06-27 17:30:26.440,993.31,993.40,8.98,3.98,0.00,2.30,-0.27,9.39,0.00,-0.00,-0.00,0
2026-06-27 17:30:26.450,993.31,993.40,8.98,3.98,0.00,2.30,-0.26,9.40,0.00,-0.00,-0.00,0
2026-06-27 17:30:26.460,993.31,993.40,8.98,3.98,0.00,2.31,-0.27,9.39,0.00,0.00,-0.00,0
2026-06-27 17:30:26.470,993.31,993.40,8.98,3.98,0.00,2.31,-0.27,9.39,0.00,0.00,-0.00,0
2026-06-27 17:30:26.480,993.31,993.40,8.98,3.98,0.00,2.30,-0.26,9.39,-0.00,0.00,0.00,0
2026-06-27 17:30:26.490,993.31,993.40,8.98,3.98,0.00,2.32,-0.27,9.40,0.00,0.00,-0.00,0
2026-06-27 17:30:26.500,993.31,993.40,8.98,3.98,0.00,2.32,-0.27,9.40,0.00,0.00,-0.00,0
2026-06-27 17:30:26.510,993.31,993.40,8.98,3.98,0.00,2.30,-0.28,9.39,-0.00,-0.00,0.00,0
2026-06-27 17:30:26.520,993.31,993.40,8.98,3.98,0.00,2.30,-0.29,9.44,0.00,0.00,0.00,0
2026-06-27 17:30:26.530,993.32,993.40,8.87,3.96,0.00,2.30,-0.28,9.41,0.00,-0.01,-0.00,0
2026-06-27 17:30:26.540,993.32,993.40,8.87,3.96,0.00,2.30,-0.28,9.41,0.00,-0.01,-0.00,0
2026-06-27 17:30:26.550,993.32,993.40,8.87,3.96,0.00,2.29,-0.28,9.38,0.00,-0.00,0.00,0
2026-06-27 17:30:26.560,993.32,993.40,8.87,3.96,0.00,2.30,-0.26,9.38,0.00,-0.00,0.00,0
2026-06-27 17:30:26.570,993.32,993.40,8.87,3.96,0.00,2.30,-0.26,9.38,0.00,-0.00,0.00,0
2026-06-27 17:30:26.580,993.32,993.40,8.87,3.96,0.00,2.30,-0.28,9.40,-0.00,0.00,-0.00,0
2026-06-27 17:30:26.590,993.32,993.40,8.87,3.96,0.00,2.32,-0.29,9.39,0.00,0.00,0.00,0
2026-06-27 17:30:26.600,993.32,993.40,8.87,3.96,0.00,2.30,-0.28,9.38,0.00,-0.00,-0.00,0
2026-06-27 17:30:26.610,993.32,993.40,8.87,3.96,0.00,2.31,-0.26,9.40,0.00,-0.00,-0.00,0
2026-06-27 17:30:26.620,993.32,993.40,8.87,3.96,0.00,2.31,-0.26,9.40,0.00,-0.00,-0.00,0
2026-06-27 17:30:26.630,993.32,993.40,8.87,3.96,0.00,2.31,-0.26,9.39,-0.00,0.00,-0.00,0
2026-06-27 17:30:26.640,993.32,993.40,8.87,3.96,0.00,2.30,-0.31,9.39,-0.00,-0.00,-0.00,0
2026-06-27 17:30:26.650,993.32,993.40,8.87,3.96,0.00,2.32,-0.26,9.41,0.00,0.00,0.00,0
2026-06-27 17:30:26.660,993.32,993.40,8.87,3.96,0.00,2.32,-0.26,9.41,0.00,0.00,0.00,0
2026-06-27 17:30:26.670,993.32,993.40,8.87,3.96,0.00,2.32,-0.28,9.43,-0.00,0.00,-0.00,0
2026-06-27 17:30:26.680,993.32,993.40,8.87,3.96,0.00,2.31,-0.29,9.39,0.00,-0.00,0.00,0
2026-06-27 17:30:26.690,993.34,993.40,5.28,3.05,0.00,2.31,-0.29,9.39,0.00,-0.00,0.00,0
2026-06-27 17:30:26.700,993.34,993.40,5.28,3.05,0.00,2.30,-0.26,9.39,-0.00,0.00,-0.00,0
2026-06-27 17:30:26.710,993.34,993.40,5.28,3.05,0.00,2.31,-0.28,9.42,-0.00,-0.00,0.00,0
2026-06-27 17:30:26.720,993.34,993.40,5.28,3.05,0.00,2.31,-0.28,9.39,-0.00,-0.00,-0.00,0
2026-06-27 17:30:26.730,993.34,993.40,5.28,3.05,0.00,2.31,-0.28,9.39,-0.00,-0.00,-0.00,0
2026-06-27 17:30:26.740,993.34,993.40,5.28,3.05,0.00,2.31,-0.26,9.40,-0.00,0.00,-0.00,0
2026-06-27 17:30:26.750,993.34,993.40,5.28,3.05,0.00,2.32,-0.27,9.39,0.00,-0.00,-0.00,0
2026-06-27 17:30:26.760,993.34,993.40,5.28,3.05,0.00,2.30,-0.29,9.41,0.00,0.00,-0.00,0
2026-06-27 17:30:26.770,993.34,993.40,5.28,3.05,0.00,2.30,-0.29,9.41,0.00,0.00,-0.00,0
2026-06-27 17:30:26.780,993.34,993.40,5.28,3.05,0.00,2.30,-0.28,9.41,-0.00,0.01,-0.00,0
2026-06-27 17:30:26.790,993.34,993.40,5.28,3.05,0.00,2.31,-0.28,9.40,0.00,0.00,-0.00,0
2026-06-27 17:30:26.800,993.34,993.40,5.28,3.05,0.00,2.32,-0.27,9.39,0.00,0.00,0.00,0
2026-06-27 17:30:26.810,993.34,993.40,5.28,3.05,0.00,2.32,-0.27,9.39,0.00,0.00,0.00,0
2026-06-27 17:30:26.820,993.34,993.40,5.28,3.05,0.00,2.30,-0.26,9.39,-0.00,-0.00,0.00,0
2026-06-27 17:30:26.830,993.34,993.40,5.28,3.05,0.00,2.32,-0.30,9.41,-0.00,0.00,-0.00,0
2026-06-27 17:30:26.840,993.34,993.40,5.28,3.05,0.00,2.31,-0.26,9.42,0.00,-0.00,0.00,0
2026-06-27 17:30:26.850,993.34,993.40,5.28,3.05,0.00,2.31,-0.26,9.42,0.00,-0.00,0.00,0
2026-06-27 17:30:26.860,993.32,993.42,9.99,4.20,0.00,2.29,-0.27,9.39,0.00,0.00,0.00,0
2026-06-27 17:30:26.870,993.32,993.42,9.99,4.20,0.00,2.31,-0.28,9.40,-0.00,0.00,0.00,0
2026-06-27 17:30:26.880,993.32,993.42,9.99,4.20,0.00,2.32,-0.28,9.41,0.00,0.00,-0.00,0
2026-06-27 17:30:26.890,993.32,993.42,9.99,4.20,0.00,2.32,-0.28,9.41,0.00,0.00,-0.00,0
2026-06-27 17:30:26.900,993.32,993.42,9.99,4.20,0.00,2.32,-0.28,9.40,-0.00,-0.00,-0.00,0
2026-06-27 17:30:26.910,993.32,993.42,9.99,4.20,0.00,2.30,-0.30,9.42,0.00,0.00,0.00,0
2026-06-27 17:30:26.920,993.32,993.42,9.99,4.20,0.00,2.32,-0.26,9.39,-0.00,0.01,-0.00,0
2026-06-27 17:30:26.930,993.32,993.42,9.99,4.20,0.00,2.32,-0.26,9.39,0.00,-0.00,0.00,0
2026-06-27 17:30:26.940,993.32,993.42,9.99,4.20,0.00,2.32,-0.26,9.39,0.00,-0.00,0.00,0
2026-06-27 17:30:26.950,993.32,993.42,9.99,4.20,0.00,2.31,-0.27,9.41,0.00,0.00,0.00,0
2026-06-27 17:30:26.960,993.32,993.42,9.99,4.20,0.00,2.28,-0.26,9.39,0.00,0.00,0.00,0
2026-06-27 17:30:26.970,993.32,993.42,9.99,4.20,0.00,2.32,-0.29,9.39,0.00,0.00,-0.00,0
2026-06-27 17:30:26.980,993.32,993.42,9.99,4.20,0.00,2.32,-0.29,9.39,0.00,0.00,-0.00,0
2026-06-27 17:30:26.990,993.32,993.42,9.99,4.20,0.00,2.28,-0.27,9.39,0.00,0.00,0.00,0
2026-06-27 17:30:27.000,993.32,993.42,9.99,4.20,0.00,2.31,-0.27,9.41,-0.00,0.00,-0.00,0
2026-06-27 17:30:27.010,993.32,993.42,9.99,4.20,0.00,2.31,-0.27,9.41,-0.00,0.00,-0.00,0
2026-06-27 17:30:27.020,993.33,993.42,9.08,4.00,0.00,2.31,-0.29,9.40,-0.00,0.00,-0.00,0
2026-06-27 17:30:27.030,993.33,993.39,5.52,3.12,0.00,2.31,-0.28,9.40,0.00,-0.00,-0.00,0
2026-06-27 17:30:27.040,993.33,993.39,5.52,3.12,0.00,2.31,-0.27,9.39,0.00,0.00,-0.00,0
2026-06-27 17:30:27.050,993.33,993.39,5.52,3.12,0.00,2.30,-0.28,9.39,0.00,0.00,0.00,0
2026-06-27 17:30:27.060,993.33,993.39,5.52,3.12,0.00,2.30,-0.28,9.39,0.00,0.00,0.00,0
2026-06-27 17:30:27.070,993.33,993.39,5.52,3.12,0.00,2.32,-0.27,9.39,0.00,0.00,0.00,0
2026-06-27 17:30:27.080,993.33,993.39,5.52,3.12,0.00,2.29,-0.28,9.40,0.00,-0.00,-0.00,0
2026-06-27 17:30:27.090,993.33,993.39,5.52,3.12,0.00,2.29,-0.28,9.40,0.00,0.00,0.00,0
2026-06-27 17:30:27.100,993.33,993.39,5.52,3.12,0.00,2.29,-0.28,9.40,0.00,0.00,0.00,0
2026-06-27 17:30:27.110,993.33,993.39,5.52,3.12,0.00,2.32,-0.31,9.39,0.00,0.00,-0.00,0
2026-06-27 17:30:27.120,993.33,993.39,5.52,3.12,0.00,2.30,-0.28,9.39,-0.00,0.00,0.00,0
2026-06-27 17:30:27.130,993.33,993.39,5.52,3.12,0.00,2.31,-0.28,9.41,0.00,0.00,0.00,0
2026-06-27 17:30:27.140,993.33,993.39,5.52,3.12,0.00,2.31,-0.28,9.41,0.00,0.00,0.00,0
2026-06-27 17:30:27.150,993.33,993.39,5.52,3.12,0.00,2.31,-0.28,9.41,-0.00,0.00,0.00,0
2026-06-27 17:30:27.160,993.33,993.39,5.52,3.12,0.00,2.29,-0.27,9.40,-0.00,-0.00,-0.00,0
2026-06-27 17:30:27.170,993.33,993.39,5.52,3.12,0.00,2.29,-0.26,9.41,-0.00,-0.00,0.00,0
2026-06-27 17:30:27.180,993.33,993.39,5.52,3.12,0.00,2.29,-0.26,9.41,-0.00,-0.00,0.00,0
2026-06-27 17:30:27.190,993.32,993.39,6.95,3.50,0.00,2.31,-0.28,9.42,0.00,-0.00,0.00,0
2026-06-27 17:30:27.200,993.32,993.39,7.29,3.59,0.00,2.30,-0.26,9.40,-0.00,0.00,-0.00,0
2026-06-27 17:30:27.210,993.32,993.39,7.29,3.59,0.00,2.30,-0.29,9.40,-0.00,-0.00,0.00,0
2026-06-27 17:30:27.220,993.32,993.39,7.29,3.59,0.00,2.30,-0.29,9.40,-0.00,-0.00,0.00,0
2026-06-27 17:30:27.230,993.32,993.39,7.29,3.59,0.00,2.31,-0.26,9.40,-0.00,0.00,-0.00,0
2026-06-27 17:30:27.240,993.32,993.39,7.29,3.59,0.00,2.31,-0.28,9.41,-0.00,-0.00,-0.00,0
2026-06-27 17:30:27.250,993.32,993.39,7.29,3.59,0.00,2.32,-0.31,9.40,-0.00,-0.00,-0.00,0
2026-06-27 17:30:27.260,993.32,993.39,7.29,3.59,0.00,2.32,-0.31,9.40,-0.00,-0.00,-0.00,0
2026-06-27 17:30:27.270,993.32,993.39,7.29,3.59,0.00,2.32,-0.27,9.39,0.00,0.00,-0.00,0
2026-06-27 17:30:27.280,993.32,993.39,7.29,3.59,0.00,2.32,-0.28,9.40,-0.00,0.00,-0.00,0
2026-06-27 17:30:27.290,993.32,993.39,7.29,3.59,0.00,2.30,-0.27,9.39,-0.00,-0.00,0.00,0
2026-06-27 17:30:27.300,993.32,993.39,7.29,3.59,0.00,2.30,-0.27,9.39,-0.00,-0.00,0.00,0
2026-06-27 17:30:27.310,993.32,993.39,7.29,3.59,0.00,2.30,-0.28,9.42,-0.00,-0.00,-0.00,0
2026-06-27 17:30:27.320,993.32,993.39,7.29,3.59,0.00,2.31,-0.28,9.41,-0.00,-0.00,0.00,0
2026-06-27 17:30:27.330,993.32,993.39,7.29,3.59,0.00,2.30,-0.30,9.41,-0.00,-0.00,-0.00,0
2026-06-27 17:30:27.340,993.32,993.39,7.29,3.59,0.00,2.30,-0.30,9.41,-0.00,-0.00,-0.00,0
2026-06-27 17:30:27.350,993.32,993.39,7.29,3.59,0.00,2.30,-0.29,9.40,-0.00,0.00,0.00,0
2026-06-27 17:30:27.360,993.31,993.39,7.86,3.73,0.00,2.31,-0.26,9.40,-0.00,-0.00,-0.00,0
2026-06-27 17:30:27.370,993.31,993.39,7.86,3.73,0.00,2.30,-0.28,9.38,0.00,0.00,0.00,0
2026-06-27 17:30:27.380,993.31,993.39,7.86,3.73,0.00,2.30,-0.28,9.38,0.00,0.00,0.00,0
2026-06-27 17:30:27.390,993.31,993.39,7.86,3.73,0.00,2.29,-0.28,9.38,-0.00,0.00,0.00,0
2026-06-27 17:30:27.400,993.31,993.39,7.86,3.73,0.00,2.32,-0.26,9.39,-0.00,-0.00,-0.00,0
2026-06-27 17:30:27.410,993.31,993.39,7.86,3.73,0.00,2.31,-0.28,9.39,-0.00,0.00,0.00,0
2026-06-27 17:30:27.420,993.31,993.39,7.86,3.73,0.00,2.31,-0.28,9.39,-0.00,0.00,0.00,0
2026-06-27 17:30:27.430,993.31,993.39,7.86,3.73,0.00,2.31,-0.29,9.39,0.00,0.00,0.00,0
2026-06-27 17:30:27.440,993.31,993.39,7.86,3.73,0.00,2.31,-0.29,9.41,-0.00,0.00,-0.00,0
2026-06-27 17:30:27.450,993.31,993.39,7.86,3.73,0.00,2.31,-0.30,9.38,0.00,0.00,0.00,0
2026-06-27 17:30:27.460,993.31,993.39,7.86,3.73,0.00,2.31,-0.30,9.38,0.00,0.00,0.00,0
2026-06-27 17:30:27.470,993.31,993.39,7.86,3.73,0.00,2.32,-0.28,9.40,-0.00,-0.00,0.00,0
2026-06-27 17:30:27.480,993.31,993.39,7.86,3.73,0.00,2.30,-0.27,9.41,-0.00,-0.00,-0.00,0
2026-06-27 17:30:27.490,993.31,993.39,7.86,3.73,0.00,2.31,-0.27,9.41,-0.00,-0.00,-0.00,0
2026-06-27 17:30:27.500,993.31,993.39,7.86,3.73,0.00,2.31,-0.28,9.39,-0.00,0.00,0.00,0
2026-06-27 17:30:27.510,993.31,993.39,7.86,3.73,0.00,2.31,-0.28,9.39,-0.00,0.00,0.00,0
2026-06-27 17:30:27.520,993.31,993.39,7.86,3.73,0.00,2.29,-0.29,9.43,-0.00,0.00,0.00,0
2026-06-27 17:30:27.530,993.31,993.39,7.57,3.66,0.00,2.30,-0.29,9.42,-0.00,0.00,-0.00,0
2026-06-27 17:30:27.540,993.31,993.39,7.57,3.66,0.00,2.30,-0.28,9.40,0.00,-0.00,0.00,0
2026-06-27 17:30:27.550,993.31,993.39,7.57,3.66,0.00,2.30,-0.28,9.40,0.00,-0.00,0.00,0
2026-06-27 17:30:27.560,993.31,993.39,7.57,3.66,0.00,2.31,-0.27,9.39,-0.00,-0.00,-0.00,0
2026-06-27 17:30:27.570,993.31,993.39,7.57,3.66,0.00,2.32,-0.29,9.38,-0.00,-0.00,-0.00,0
2026-06-27 17:30:27.580,993.31,993.39,7.57,3.66,0.00,2.31,-0.29,9.41,-0.00,0.00,0.00,0
2026-06-27 17:30:27.590,993.31,993.39,7.57,3.66,0.00,2.31,-0.29,9.41,-0.00,0.00,0.00,0
2026-06-27 17:30:27.600,993.31,993.39,7.57,3.66,0.00,2.30,-0.31,9.41,-0.00,-0.00,-0.00,0
2026-06-27 17:30:27.610,993.31,993.39,7.57,3.66,0.00,2.31,-0.26,9.41,-0.00,0.00,0.00,0
2026-06-27 17:30:27.620,993.31,993.39,7.57,3.66,0.00,2.32,-0.30,9.39,0.00,0.00,0.00,0
2026-06-27 17:30:27.630,993.31,993.39,7.57,3.66,0.00,2.32,-0.30,9.39,0.00,0.00,0.00,0
2026-06-27 17:30:27.640,993.31,993.39,7.57,3.66,0.00,2.30,-0.26,9.42,0.00,0.00,0.00,0
2026-06-27 17:30:27.650,993.31,993.39,7.57,3.66,0.00,2.31,-0.26,9.39,0.00,0.00,-0.00,0
2026-06-27 17:30:27.660,993.31,993.39,7.57,3.66,0.00,2.31,-0.27,9.39,0.00,-0.00,-0.00,0
2026-06-27 17:30:27.670,993.31,993.39,7.57,3.66,0.00,2.31,-0.27,9.39,0.00,-0.00,-0.00,0
2026-06-27 17:30:27.680,993.31,993.39,7.57,3.66,0.00,2.29,-0.27,9.39,-0.00,0.00,-0.00,0
2026-06-27 17:30:27.690,993.32,993.38,6.53,3.39,0.00,2.31,-0.28,9.41,0.00,0.00,-0.00,0
2026-06-27 17:30:27.700,993.32,993.38,6.53,3.39,0.00,2.33,-0.27,9.38,-0.00,-0.00,0.00,0
2026-06-27 17:30:27.710,993.32,993.38,6.53,3.39,0.00,2.30,-0.28,9.40,-0.00,-0.00,0.00,0
2026-06-27 17:30:27.720,993.32,993.38,6.53,3.39,0.00,2.30,-0.28,9.40,-0.00,-0.00,0.00,0
2026-06-27 17:30:27.730,993.32,993.38,6.53,3.39,0.00,2.32,-0.25,9.37,0.00,0.00,-0.00,0
2026-06-27 17:30:27.740,993.32,993.38,6.53,3.39,0.00,2.32,-0.28,9.39,0.00,0.00,-0.00,0
2026-06-27 17:30:27.750,993.32,993.38,6.53,3.39,0.00,2.30,-0.26,9.39,0.00,0.00,-0.00,0
2026-06-27 17:30:27.760,993.32,993.38,6.53,3.39,0.00,2.30,-0.26,9.39,0.00,0.00,-0.00,0
2026-06-27 17:30:27.770,993.32,993.38,6.53,3.39,0.00,2.32,-0.26,9.39,0.00,0.00,0.00,0
2026-06-27 17:30:27.780,993.32,993.38,6.53,3.39,0.00,2.30,-0.29,9.40,-0.00,0.00,0.00,0
2026-06-27 17:30:27.790,993.32,993.38,6.53,3.39,0.00,2.30,-0.27,9.41,0.00,-0.00,-0.00,0
2026-06-27 17:30:27.800,993.32,993.38,6.53,3.39,0.00,2.30,-0.27,9.41,0.00,-0.00,-0.00,0
2026-06-27 17:30:27.810,993.32,993.38,6.53,3.39,0.00,2.32,-0.28,9.41,0.00,0.00,0.00,0
2026-06-27 17:30:27.820,993.32,993.38,6.53,3.39,0.00,2.31,-0.29,9.39,-0.00,0.00,-0.00,0
2026-06-27 17:30:27.830,993.32,993.38,6.53,3.39,0.00,2.32,-0.27,9.40,0.00,0.00,0.00,0
2026-06-27 17:30:27.840,993.32,993.38,6.53,3.39,0.00,2.32,-0.27,9.40,0.00,0.00,0.00,0
2026-06-27 17:30:27.850,993.32,993.38,6.53,3.39,0.00,2.32,-0.29,9.40,0.00,-0.00,0.00,0
2026-06-27 17:30:27.860,993.32,993.40,8.06,3.77,0.00,2.32,-0.28,9.40,-0.00,-0.00,0.00,0
2026-06-27 17:30:27.870,993.32,993.40,8.06,3.77,0.00,2.28,-0.29,9.40,-0.00,-0.00,-0.00,0
2026-06-27 17:30:27.880,993.32,993.40,8.06,3.77,0.00,2.31,-0.26,9.41,0.00,0.00,-0.00,0
2026-06-27 17:30:27.890,993.32,993.40,8.06,3.77,0.00,2.31,-0.26,9.41,0.00,0.00,-0.00,0
2026-06-27 17:30:27.900,993.32,993.40,8.06,3.77,0.00,2.30,-0.29,9.41,0.00,0.00,-0.00,0
2026-06-27 17:30:27.910,993.32,993.40,8.06,3.77,0.00,2.32,-0.27,9.39,-0.00,0.00,-0.00,0
2026-06-27 17:30:27.920,993.32,993.40,8.06,3.77,0.00,2.31,-0.27,9.39,0.00,-0.00,-0.00,0
2026-06-27 17:30:27.930,993.32,993.40,8.06,3.77,0.00,2.31,-0.27,9.39,0.00,-0.00,-0.00,0
2026-06-27 17:30:27.940,993.32,993.40,8.06,3.77,0.00,2.31,-0.26,9.41,0.00,-0.00,0.00,0
2026-06-27 17:30:27.950,993.32,993.40,8.06,3.77,0.00,2.29,-0.27,9.39,0.00,0.00,0.00,0
2026-06-27 17:30:27.960,993.32,993.40,8.06,3.77,0.00,2.30,-0.25,9.39,0.00,-0.00,-0.00,0
2026-06-27 17:30:27.970,993.32,993.40,8.06,3.77,0.00,2.30,-0.25,9.39,0.00,-0.00,-0.00,0
2026-06-27 17:30:27.980,993.32,993.40,8.06,3.77,0.00,2.30,-0.27,9.39,-0.00,-0.00,-0.00,0
2026-06-27 17:30:27.990,993.32,993.40,8.06,3.77,0.00,2.31,-0.29,9.41,0.00,0.00,-0.00,0
2026-06-27 17:30:28.000,993.32,993.40,8.06,3.77,0.00,2.31,-0.29,9.41,0.00,0.00,-0.00,0
2026-06-27 17:30:28.010,993.32,993.40,8.06,3.77,0.00,2.31,-0.26,9.40,0.00,0.00,-0.00,0
2026-06-27 17:30:28.020,993.32,993.40,7.45,3.63,0.00,2.32,-0.31,9.39,0.00,0.00,-0.00,0
2026-06-27 17:30:28.030,993.32,993.40,7.45,3.63,0.00,2.32,-0.28,9.41,0.00,-0.00,-0.00,0
2026-06-27 17:30:28.040,993.32,993.40,7.45,3.63,0.00,2.32,-0.28,9.41,0.00,-0.00,-0.00,0
2026-06-27 17:30:28.050,993.32,993.40,7.45,3.63,0.00,2.31,-0.26,9.39,-0.00,-0.00,-0.00,0
2026-06-27 17:30:28.060,993.32,993.40,7.45,3.63,0.00,2.32,-0.26,9.41,-0.00,-0.00,0.00,0
2026-06-27 17:30:28.070,993.32,993.40,7.45,3.63,0.00,2.31,-0.25,9.40,0.00,0.00,-0.00,0
2026-06-27 17:30:28.080,993.32,993.40,7.45,3.63,0.00,2.31,-0.25,9.40,0.00,0.00,-0.00,0
2026-06-27 17:30:28.090,993.32,993.40,7.45,3.63,0.00,2.30,-0.29,9.41,-0.00,-0.00,0.00,0
2026-06-27 17:30:28.100,993.32,993.40,7.45,3.63,0.00,2.31,-0.29,9.39,-0.00,0.00,-0.00,0
2026-06-27 17:30:28.110,993.32,993.40,7.45,3.63,0.00,2.31,-0.29,9.39,0.00,-0.00,0.00,0
2026-06-27 17:30:28.120,993.32,993.40,7.45,3.63,0.00,2.31,-0.29,9.39,0.00,-0.00,0.00,0
2026-06-27 17:30:28.130,993.32,993.40,7.45,3.63,0.00,2.30,-0.28,9.41,-0.00,0.00,0.00,0
2026-06-27 17:30:28.140,993.32,993.40,7.45,3.63,0.00,2.30,-0.26,9.41,-0.00,0.00,0.00,0
2026-06-27 17:30:28.150,993.32,993.40,7.45,3.63,0.00,2.31,-0.29,9.38,-0.00,0.00,0.00,0
2026-06-27 17:30:28.160,993.32,993.40,7.45,3.63,0.00,2.31,-0.29,9.38,-0.00,0.00,0.00,0
2026-06-27 17:30:28.170,993.32,993.40,7.45,3.63,0.00,2.30,-0.26,9.40,-0.00,-0.00,0.00,0
2026-06-27 17:30:28.180,993.32,993.39,6.59,3.41,0.00,2.30,-0.26,9.43,-0.00,0.00,-0.00,0
2026-06-27 17:30:28.190,993.29,993.39,9.50,4.10,0.00,2.30,-0.28,9.42,-0.00,0.00,-0.00,0
2026-06-27 17:30:28.200,993.29,993.39,9.50,4.10,0.00,2.30,-0.28,9.42,-0.00,0.00,-0.00,0
2026-06-27 17:30:28.210,993.29,993.39,9.50,4.10,0.00,2.34,-0.28,9.40,0.00,-0.00,-0.00,0
2026-06-27 17:30:28.220,993.29,993.39,9.50,4.10,0.00,2.28,-0.27,9.38,-0.00,-0.00,-0.00,0
2026-06-27 17:30:28.230,993.29,993.39,9.50,4.10,0.00,2.28,-0.26,9.40,-0.00,0.00,-0.00,0
2026-06-27 17:30:28.240,993.29,993.39,9.50,4.10,0.00,2.28,-0.26,9.40,-0.00,0.00,-0.00,0
2026-06-27 17:30:28.250,993.29,993.39,9.50,4.10,0.00,2.30,-0.28,9.40,-0.00,0.00,0.00,0
2026-06-27 17:30:28.260,993.29,993.39,9.50,4.10,0.00,2.30,-0.28,9.39,-0.00,0.00,-0.00,0
2026-06-27 17:30:28.270,993.29,993.39,9.50,4.10,0.00,2.31,-0.26,9.39,-0.00,-0.00,0.00,0
2026-06-27 17:30:28.280,993.29,993.39,9.50,4.10,0.00,2.31,-0.26,9.39,-0.00,-0.00,0.00,0
2026-06-27 17:30:28.290,993.29,993.39,9.50,4.10,0.00,2.28,-0.29,9.38,-0.00,0.00,-0.00,0
2026-06-27 17:30:28.300,993.29,993.39,9.50,4.10,0.00,2.30,-0.28,9.40,0.00,-0.00,-0.00,0
2026-06-27 17:30:28.310,993.29,993.39,9.50,4.10,0.00,2.29,-0.28,9.38,0.00,-0.00,0.00,0
2026-06-27 17:30:28.320,993.29,993.39,9.50,4.10,0.00,2.29,-0.27,9.41,-0.00,0.00,0.00,0
2026-06-27 17:30:28.330,993.29,993.39,9.50,4.10,0.00,2.29,-0.27,9.41,-0.00,0.00,0.00,0
2026-06-27 17:30:28.340,993.29,993.39,9.50,4.10,0.00,2.32,-0.27,9.40,-0.00,0.00,0.00,0
2026-06-27 17:30:28.350,993.31,993.38,7.17,3.56,0.00,2.30,-0.27,9.41,-0.00,-0.00,-0.00,0
2026-06-27 17:30:28.360,993.31,993.38,7.17,3.56,0.00,2.31,-0.29,9.40,0.00,0.00,0.00,0
2026-06-27 17:30:28.370,993.31,993.38,7.17,3.56,0.00,2.31,-0.29,9.40,0.00,0.00,0.00,0
2026-06-27 17:30:28.380,993.31,993.38,7.17,3.56,0.00,2.30,-0.28,9.43,-0.00,0.00,0.00,0
2026-06-27 17:30:28.390,993.31,993.38,7.17,3.56,0.00,2.31,-0.27,9.40,-0.00,-0.00,-0.00,0
2026-06-27 17:30:28.400,993.31,993.38,7.17,3.56,0.00,2.31,-0.27,9.40,-0.00,-0.00,-0.00,0
2026-06-27 17:30:28.410,993.31,993.38,7.17,3.56,0.00,2.31,-0.26,9.38,-0.00,0.00,-0.00,0
2026-06-27 17:30:28.420,993.31,993.38,7.17,3.56,0.00,2.31,-0.27,9.38,-0.00,-0.00,0.00,0
2026-06-27 17:30:28.430,993.31,993.38,7.17,3.56,0.00,2.32,-0.28,9.40,-0.00,-0.00,-0.00,0
2026-06-27 17:30:28.440,993.31,993.38,7.17,3.56,0.00,2.32,-0.28,9.40,-0.00,-0.00,-0.00,0
2026-06-27 17:30:28.450,993.31,993.38,7.17,3.56,0.00,2.30,-0.30,9.42,0.00,-0.00,-0.00,0
2026-06-27 17:30:28.460,993.31,993.38,7.17,3.56,0.00,2.30,-0.28,9.41,-0.00,0.00,0.00,0
2026-06-27 17:30:28.470,993.31,993.38,7.17,3.56,0.00,2.30,-0.27,9.39,-0.00,0.00,0.00,0
2026-06-27 17:30:28.480,993.31,993.38,7.17,3.56,0.00,2.30,-0.26,9.40,-0.00,0.00,-0.00,0
2026-06-27 17:30:28.490,993.31,993.38,7.17,3.56,0.00,2.30,-0.26,9.40,-0.00,0.00,-0.00,0
2026-06-27 17:30:28.500,993.31,993.38,7.17,3.56,0.00,2.31,-0.29,9.40,-0.00,0.00,0.00,0
2026-06-27 17:30:28.510,993.31,993.38,7.17,3.56,0.00,2.32,-0.26,9.40,-0.00,0.01,-0.00,0
2026-06-27 17:30:28.520,993.30,993.38,7.85,3.72,0.00,2.32,-0.26,9.40,-0.00,0.01,-0.00,0
2026-06-27 17:30:28.530,993.30,993.38,7.85,3.72,0.00,2.31,-0.29,9.43,-0.00,0.00,0.00,0
2026-06-27 17:30:28.540,993.30,993.38,7.85,3.72,0.00,2.31,-0.27,9.40,0.00,0.00,0.00,0
2026-06-27 17:30:28.550,993.30,993.38,7.85,3.72,0.00,2.31,-0.29,9.40,0.00,-0.00,0.00,0
2026-06-27 17:30:28.560,993.30,993.38,7.85,3.72,0.00,2.31,-0.29,9.40,0.00,-0.00,0.00,0
2026-06-27 17:30:28.570,993.30,993.38,7.85,3.72,0.00,2.32,-0.28,9.39,-0.00,0.00,0.00,0
2026-06-27 17:30:28.580,993.30,993.38,7.85,3.72,0.00,2.31,-0.26,9.39,-0.00,-0.00,-0.00,0
2026-06-27 17:30:28.590,993.30,993.38,7.85,3.72,0.00,2.31,-0.26,9.39,-0.00,-0.00,-0.00,0
2026-06-27 17:30:28.600,993.30,993.38,7.85,3.72,0.00,2.32,-0.28,9.41,-0.00,-0.00,0.00,0
2026-06-27 17:30:28.610,993.30,993.38,7.85,3.72,0.00,2.32,-0.28,9.40,-0.00,0.00,0.00,0
2026-06-27 17:30:28.620,993.30,993.38,7.85,3.72,0.00,2.32,-0.28,9.40,-0.00,0.00,0.00,0
2026-06-27 17:30:28.630,993.30,993.38,7.85,3.72,0.00,2.32,-0.31,9.40,0.00,-0.00,-0.00,0
2026-06-27 17:30:28.640,993.30,993.38,7.85,3.72,0.00,2.30,-0.30,9.40,0.00,0.00,-0.00,0
2026-06-27 17:30:28.650,993.30,993.38,7.85,3.72,0.00,2.29,-0.28,9.42,0.00,-0.00,-0.00,0
2026-06-27 17:30:28.660,993.30,993.38,7.85,3.72,0.00,2.29,-0.28,9.42,0.00,-0.00,-0.00,0
2026-06-27 17:30:28.670,993.30,993.38,7.85,3.72,0.00,2.31,-0.27,9.42,0.00,0.00,0.00,0
2026-06-27 17:30:28.680,993.31,993.40,8.47,3.87,0.00,2.30,-0.25,9.39,0.00,-0.00,-0.00,0
2026-06-27 17:30:28.690,993.31,993.40,8.47,3.87,0.00,2.28,-0.29,9.39,0.00,-0.00,-0.00,0
2026-06-27 17:30:28.700,993.31,993.40,8.47,3.87,0.00,2.28,-0.29,9.39,0.00,-0.00,-0.00,0
2026-06-27 17:30:28.710,993.31,993.40,8.47,3.87,0.00,2.30,-0.27,9.40,0.00,-0.01,-0.00,0
2026-06-27 17:30:28.720,993.31,993.40,8.47,3.87,0.00,2.29,-0.26,9.40,-0.00,-0.00,-0.00,0
2026-06-27 17:30:28.730,993.31,993.40,8.47,3.87,0.00,2.29,-0.30,9.41,-0.00,-0.00,-0.00,0
2026-06-27 17:30:28.740,993.31,993.40,8.47,3.87,0.00,2.30,-0.26,9.41,0.00,-0.00,0.00,0
2026-06-27 17:30:28.750,993.31,993.40,8.47,3.87,0.00,2.30,-0.26,9.41,0.00,-0.00,0.00,0
2026-06-27 17:30:28.760,993.31,993.40,8.47,3.87,0.00,2.31,-0.27,9.39,-0.00,-0.00,-0.00,0
2026-06-27 17:30:28.770,993.31,993.40,8.47,3.87,0.00,2.30,-0.26,9.40,-0.00,-0.00,-0.00,0
2026-06-27 17:30:28.780,993.31,993.40,8.47,3.87,0.00,2.30,-0.26,9.40,-0.00,-0.00,-0.00,0
2026-06-27 17:30:28.790,993.31,993.40,8.47,3.87,0.00,2.32,-0.28,9.38,0.00,0.00,0.00,0
2026-06-27 17:30:28.800,993.31,993.40,8.47,3.87,0.00,2.31,-0.26,9.41,0.00,0.00,0.00,0
2026-06-27 17:30:28.810,993.31,993.40,8.47,3.87,0.00,2.31,-0.26,9.41,0.00,0.00,0.00,0
2026-06-27 17:30:28.820,993.31,993.40,8.47,3.87,0.00,2.32,-0.28,9.39,0.00,0.00,0.00,0
2026-06-27 17:30:28.830,993.31,993.40,8.47,3.87,0.00,2.30,-0.30,9.41,0.00,0.00,-0.00,0
2026-06-27 17:30:28.840,993.32,993.40,8.06,3.77,0.00,2.29,-0.29,9.40,0.00,0.00,0.00,0
2026-06-27 17:30:28.850,993.32,993.40,8.06,3.77,0.00,2.32,-0.29,9.41,-0.00,-0.00,0.00,0
2026-06-27 17:30:28.860,993.32,993.40,8.06,3.77,0.00,2.32,-0.29,9.41,-0.00,-0.00,0.00,0
2026-06-27 17:30:28.870,993.32,993.40,8.06,3.77,0.00,2.29,-0.28,9.39,0.00,0.00,0.00,0
2026-06-27 17:30:28.880,993.32,993.40,8.06,3.77,0.00,2.30,-0.28,9.41,0.00,-0.00,-0.00,0
2026-06-27 17:30:28.890,993.32,993.40,8.06,3.77,0.00,2.32,-0.28,9.40,0.00,0.00,0.00,0
2026-06-27 17:30:28.900,993.32,993.40,8.06,3.77,0.00,2.32,-0.28,9.40,0.00,0.00,0.00,0
2026-06-27 17:30:28.910,993.32,993.40,8.06,3.77,0.00,2.32,-0.26,9.39,0.00,-0.00,0.00,0
2026-06-27 17:30:28.920,993.32,993.40,8.06,3.77,0.00,2.32,-0.28,9.41,-0.00,-0.00,-0.00,0
2026-06-27 17:30:28.930,993.32,993.40,8.06,3.77,0.00,2.31,-0.25,9.40,-0.00,-0.00,0.00,0
2026-06-27 17:30:28.940,993.32,993.40,8.06,3.77,0.00,2.31,-0.25,9.40,-0.00,-0.00,0.00,0
2026-06-27 17:30:28.950,993.32,993.40,8.06,3.77,0.00,2.31,-0.26,9.40,0.00,0.00,0.00,0
2026-06-27 17:30:28.960,993.32,993.40,8.06,3.77,0.00,2.30,-0.28,9.40,-0.00,-0.00,0.00,0
2026-06-27 17:30:28.970,993.32,993.40,8.06,3.77,0.00,2.30,-0.28,9.40,-0.00,-0.00,0.00,0
2026-06-27 17:30:28.980,993.32,993.40,8.06,3.77,0.00,2.31,-0.28,9.39,0.00,0.00,0.00,0
2026-06-27 17:30:28.990,993.32,993.40,8.06,3.77,0.00,2.31,-0.27,9.39,0.00,-0.00,-0.00,0
2026-06-27 17:30:29.000,993.30,993.40,10.07,4.22,0.00,2.31,-0.29,9.41,0.00,0.00,-0.00,0
2026-06-27 17:30:29.010,993.30,993.36,6.19,3.30,0.00,2.31,-0.29,9.41,0.00,0.00,-0.00,0
2026-06-27 17:30:29.020,993.30,993.36,6.19,3.30,0.00,2.29,-0.28,9.38,-0.00,-0.00,0.00,0
2026-06-27 17:30:29.030,993.30,993.36,6.19,3.30,0.00,2.30,-0.28,9.40,0.00,0.00,0.00,0
2026-06-27 17:30:29.040,993.30,993.36,6.19,3.30,0.00,2.32,-0.27,9.39,0.00,-0.00,-0.00,0
2026-06-27 17:30:29.050,993.30,993.36,6.19,3.30,0.00,2.32,-0.27,9.39,0.00,-0.00,-0.00,0
2026-06-27 17:30:29.060,993.30,993.36,6.19,3.30,0.00,2.31,-0.28,9.40,0.00,0.00,-0.00,0
2026-06-27 17:30:29.070,993.30,993.36,6.19,3.30,0.00,2.32,-0.28,9.39,-0.00,-0.00,-0.00,0
2026-06-27 17:30:29.080,993.30,993.36,6.19,3.30,0.00,2.30,-0.27,9.39,-0.00,-0.00,-0.00,0
2026-06-27 17:30:29.090,993.30,993.36,6.19,3.30,0.00,2.30,-0.27,9.39,-0.00,-0.00,-0.00,0
2026-06-27 17:30:29.100,993.30,993.36,6.19,3.30,0.00,2.31,-0.29,9.42,0.00,-0.00,0.00,0
2026-06-27 17:30:29.110,993.30,993.36,6.19,3.30,0.00,2.28,-0.31,9.40,0.00,-0.00,0.00,0
2026-06-27 17:30:29.120,993.30,993.36,6.19,3.30,0.00,2.31,-0.28,9.41,0.00,-0.00,-0.00,0
2026-06-27 17:30:29.130,993.30,993.36,6.19,3.30,0.00,2.31,-0.28,9.41,0.00,-0.00,-0.00,0
2026-06-27 17:30:29.140,993.30,993.36,6.19,3.30,0.00,2.32,-0.29,9.42,-0.00,-0.00,-0.00,0
2026-06-27 17:30:29.150,993.30,993.36,6.19,3.30,0.00,2.31,-0.30,9.39,0.00,0.00,0.00,0
2026-06-27 17:30:29.160,993.30,993.36,6.19,3.30,0.00,2.30,-0.29,9.39,0.00,0.00,0.00,0
2026-06-27 17:30:29.170,993.31,993.39,7.87,3.73,0.00,2.31,-0.28,9.40,-0.00,0.00,-0.00,0
2026-06-27 17:30:29.180,993.31,993.39,7.87,3.73,0.00,2.31,-0.28,9.40,-0.00,0.00,-0.00,0
2026-06-27 17:30:29.190,993.31,993.39,7.87,3.73,0.00,2.31,-0.29,9.40,0.00,-0.00,0.00,0
2026-06-27 17:30:29.200,993.31,993.39,7.87,3.73,0.00,2.30,-0.27,9.41,-0.00,-0.00,-0.00,0
2026-06-27 17:30:29.210,993.31,993.39,7.87,3.73,0.00,2.32,-0.29,9.39,-0.00,0.00,-0.00,0
2026-06-27 17:30:29.220,993.31,993.39,7.87,3.73,0.00,2.32,-0.29,9.39,-0.00,0.00,-0.00,0
2026-06-27 17:30:29.230,993.31,993.39,7.87,3.73,0.00,2.32,-0.29,9.40,0.00,-0.00,-0.00,0
2026-06-27 17:30:29.240,993.31,993.39,7.87,3.73,0.00,2.30,-0.27,9.39,0.00,0.00,0.00,0
2026-06-27 17:30:29.250,993.31,993.39,7.87,3.73,0.00,2.32,-0.30,9.43,0.00,-0.00,-0.00,0
2026-06-27 17:30:29.260,993.31,993.39,7.87,3.73,0.00,2.32,-0.30,9.43,0.00,-0.00,-0.00,0
2026-06-27 17:30:29.270,993.31,993.39,7.87,3.73,0.00,2.32,-0.28,9.41,-0.00,0.00,-0.00,0
2026-06-27 17:30:29.280,993.31,993.39,7.87,3.73,0.00,2.31,-0.30,9.41,0.00,0.00,0.00,0
2026-06-27 17:30:29.290,993.31,993.39,7.87,3.73,0.00,2.31,-0.30,9.41,0.00,0.00,0.00,0
2026-06-27 17:30:29.300,993.31,993.39,7.87,3.73,0.00,2.31,-0.28,9.40,0.00,-0.00,-0.00,0
2026-06-27 17:30:29.310,993.31,993.39,7.87,3.73,0.00,2.30,-0.29,9.41,-0.00,0.00,-0.00,0
2026-06-27 17:30:29.320,993.31,993.39,7.87,3.73,0.00,2.30,-0.29,9.41,-0.00,0.00,-0.00,0
2026-06-27 17:30:29.330,993.31,993.39,7.87,3.73,0.00,2.32,-0.27,9.39,-0.00,-0.00,-0.00,0
2026-06-27 17:30:29.340,993.31,993.38,7.93,3.74,0.00,2.32,-0.27,9.39,-0.00,-0.00,-0.00,0
2026-06-27 17:30:29.350,993.31,993.38,7.93,3.74,0.00,2.29,-0.27,9.42,0.00,-0.00,-0.00,0
2026-06-27 17:30:29.360,993.31,993.38,7.93,3.74,0.00,2.29,-0.27,9.42,0.00,-0.00,-0.00,0
2026-06-27 17:30:29.370,993.31,993.38,7.93,3.74,0.00,2.31,-0.27,9.41,0.00,-0.00,0.00,0
2026-06-27 17:30:29.380,993.31,993.38,7.93,3.74,0.00,2.29,-0.26,9.41,0.00,-0.00,0.00,0
2026-06-27 17:30:29.390,993.31,993.38,7.93,3.74,0.00,2.29,-0.26,9.41,0.00,-0.00,0.00,0
2026-06-27 17:30:29.400,993.31,993.38,7.93,3.74,0.00,2.29,-0.28,9.41,0.00,-0.00,0.00,0
2026-06-27 17:30:29.410,993.31,993.38,7.93,3.74,0.00,2.29,-0.28,9.41,0.00,-0.00,0.00,0
2026-06-27 17:30:29.420,993.31,993.38,7.93,3.74,0.00,2.31,-0.28,9.41,-0.00,-0.00,-0.00,0
2026-06-27 17:30:29.430,993.31,993.38,7.93,3.74,0.00,2.30,-0.29,9.42,-0.00,0.00,-0.00,0
2026-06-27 17:30:29.440,993.31,993.38,7.93,3.74,0.00,2.30,-0.29,9.42,-0.00,0.00,-0.00,0
2026-06-27 17:30:29.450,993.31,993.38,7.93,3.74,0.00,2.32,-0.26,9.39,-0.00,0.00,-0.00,0
2026-06-27 17:30:29.460,993.31,993.38,7.93,3.74,0.00,2.32,-0.26,9.39,-0.00,0.00,-0.00,0
2026-06-27 17:30:29.470,993.31,993.38,7.93,3.74,0.00,2.31,-0.28,9.42,-0.00,0.00,-0.00,0
2026-06-27 17:30:29.480,993.31,993.38,7.93,3.74,0.00,2.31,-0.28,9.42,-0.00,0.00,-0.00,0
2026-06-27 17:30:29.490,993.31,993.38,7.93,3.74,0.00,2.31,-0.30,9.40,0.00,0.00,0.00,0
2026-06-27 17:30:29.500,993.31,993.38,7.93,3.74,0.00,2.30,-0.29,9.39,0.00,0.00,0.00,0
2026-06-27 17:30:29.510,993.31,993.38,7.93,3.74,0.00,2.30,-0.29,9.39,0.00,0.00,0.00,0
2026-06-27 17:30:29.520,993.31,993.38,7.68,3.68,0.00,2.30,-0.27,9.41,0.00,-0.00,0.00,0
2026-06-27 17:30:29.530,993.30,993.38,7.78,3.71,0.00,2.31,-0.28,9.39,0.00,-0.00,0.00,0
2026-06-27 17:30:29.540,993.30,993.38,7.78,3.71,0.00,2.31,-0.28,9.39,0.00,-0.00,0.00,0
2026-06-27 17:30:29.550,993.30,993.38,7.78,3.71,0.00,2.30,-0.27,9.39,0.00,0.00,0.00,0
2026-06-27 17:30:29.560,993.30,993.38,7.78,3.71,0.00,2.31,-0.27,9.40,0.00,-0.00,0.00,0
2026-06-27 17:30:29.570,993.30,993.38,7.78,3.71,0.00,2.31,-0.27,9.40,0.00,-0.00,0.00,0
2026-06-27 17:30:29.580,993.30,993.38,7.78,3.71,0.00,2.31,-0.27,9.39,0.00,-0.00,-0.00,0
2026-06-27 17:30:29.590,993.30,993.38,7.78,3.71,0.00,2.31,-0.26,9.41,0.00,-0.00,-0.00,0
2026-06-27 17:30:29.600,993.30,993.38,7.78,3.71,0.00,2.31,-0.26,9.41,0.00,-0.00,-0.00,0
2026-06-27 17:30:29.610,993.30,993.38,7.78,3.71,0.00,2.30,-0.27,9.41,0.00,-0.00,-0.00,0
2026-06-27 17:30:29.620,993.30,993.38,7.78,3.71,0.00,2.32,-0.27,9.41,0.00,0.00,-0.00,0
2026-06-27 17:30:29.630,993.30,993.38,7.78,3.71,0.00,2.31,-0.30,9.39,0.00,-0.00,-0.00,0
2026-06-27 17:30:29.640,993.30,993.38,7.78,3.71,0.00,2.31,-0.30,9.39,0.00,-0.00,-0.00,0
2026-06-27 17:30:29.650,993.30,993.38,7.78,3.71,0.00,2.31,-0.30,9.39,0.00,-0.00,-0.00,0
2026-06-27 17:30:29.660,993.30,993.38,7.78,3.71,0.00,2.31,-0.29,9.40,0.00,-0.00,0.00,0
2026-06-27 17:30:29.670,993.30,993.38,7.78,3.71,0.00,2.29,-0.28,9.40,0.00,0.00,0.00,0
2026-06-27 17:30:29.680,993.30,993.38,7.78,3.71,0.00,2.32,-0.28,9.42,-0.00,0.00,-0.00,0
2026-06-27 17:30:29.690,993.30,993.40,9.33,4.06,0.00,2.32,-0.28,9.42,-0.00,0.00,-0.00,0
2026-06-27 17:30:29.700,993.30,993.40,9.33,4.06,0.00,2.30,-0.29,9.40,0.00,0.00,-0.00,0
2026-06-27 17:30:29.710,993.30,993.40,9.33,4.06,0.00,2.28,-0.27,9.39,0.00,0.00,0.00,0
2026-06-27 17:30:29.720,993.30,993.40,9.33,4.06,0.00,2.31,-0.26,9.40,0.00,0.00,-0.00,0
2026-06-27 17:30:29.730,993.30,993.40,9.33,4.06,0.00,2.31,-0.26,9.40,0.00,0.00,-0.00,0
2026-06-27 17:30:29.740,993.30,993.40,9.33,4.06,0.00,2.32,-0.26,9.40,0.00,-0.00,0.00,0
2026-06-27 17:30:29.750,993.30,993.40,9.33,4.06,0.00,2.31,-0.27,9.41,0.00,-0.00,0.00,0
2026-06-27 17:30:29.760,993.30,993.40,9.33,4.06,0.00,2.31,-0.25,9.39,-0.00,0.00,-0.00,0
2026-06-27 17:30:29.770,993.30,993.40,9.33,4.06,0.00,2.31,-0.25,9.39,-0.00,0.00,-0.00,0
2026-06-27 17:30:29.780,993.30,993.40,9.33,4.06,0.00,2.33,-0.26,9.40,-0.00,-0.00,-0.00,0
2026-06-27 17:30:29.790,993.30,993.40,9.33,4.06,0.00,2.32,-0.28,9.38,-0.00,0.00,-0.00,0
2026-06-27 17:30:29.800,993.30,993.40,9.33,4.06,0.00,2.31,-0.26,9.41,-0.00,0.00,0.00,0
2026-06-27 17:30:29.810,993.30,993.40,9.33,4.06,0.00,2.31,-0.26,9.41,-0.00,0.00,0.00,0
2026-06-27 17:30:29.820,993.30,993.40,9.33,4.06,0.00,2.31,-0.28,9.39,-0.00,0.00,0.00,0
2026-06-27 17:30:29.830,993.30,993.40,9.33,4.06,0.00,2.30,-0.26,9.40,0.00,-0.00,0.00,0
2026-06-27 17:30:29.840,993.30,993.40,9.33,4.06,0.00,2.31,-0.26,9.40,-0.00,-0.00,-0.00,0
2026-06-27 17:30:29.850,993.30,993.38,7.20,3.57,0.00,2.31,-0.26,9.40,-0.00,-0.00,-0.00,0
2026-06-27 17:30:29.860,993.30,993.38,7.78,3.71,0.00,2.32,-0.28,9.41,0.00,-0.00,0.00,0
2026-06-27 17:30:29.870,993.30,993.38,7.78,3.71,0.00,2.32,-0.28,9.41,-0.00,0.00,-0.00,0
2026-06-27 17:30:29.880,993.30,993.38,7.78,3.71,0.00,2.32,-0.30,9.41,-0.00,-0.00,0.00,0
2026-06-27 17:30:29.890,993.30,993.38,7.78,3.71,0.00,2.32,-0.30,9.41,-0.00,-0.00,0.00,0
2026-06-27 17:30:29.900,993.30,993.38,7.78,3.71,0.00,2.31,-0.27,9.41,0.00,-0.00,0.00,0
2026-06-27 17:30:29.910,993.30,993.38,7.78,3.71,0.00,2.30,-0.27,9.39,-0.00,0.00,-0.00,0
2026-06-27 17:30:29.920,993.30,993.38,7.78,3.71,0.00,2.31,-0.27,9.41,-0.00,0.00,0.00,0
2026-06-27 17:30:29.930,993.30,993.38,7.78,3.71,0.00,2.31,-0.27,9.41,-0.00,0.00,0.00,0
2026-06-27 17:30:29.940,993.30,993.38,7.78,3.71,0.00,2.31,-0.27,9.42,0.00,-0.00,-0.00,0
2026-06-27 17:30:29.950,993.30,993.38,7.78,3.71,0.00,2.29,-0.27,9.40,0.00,-0.00,0.00,0
2026-06-27 17:30:29.960,993.30,993.38,7.78,3.71,0.00,2.32,-0.25,9.41,0.00,-0.00,-0.00,0
2026-06-27 17:30:29.970,993.30,993.38,7.78,3.71,0.00,2.32,-0.25,9.41,0.00,-0.00,-0.00,0
2026-06-27 17:30:29.980,993.30,993.38,7.78,3.71,0.00,2.32,-0.26,9.39,-0.00,-0.00,-0.00,0
2026-06-27 17:30:29.990,993.30,993.38,7.78,3.71,0.00,2.31,-0.27,9.41,-0.00,0.00,0.00,0
2026-06-27 17:30:30.000,993.30,993.38,7.78,3.71,0.00,2.31,-0.26,9.38,0.00,-0.00,0.00,0
2026-06-27 17:30:30.010,993.30,993.38,7.78,3.71,0.00,2.31,-0.26,9.38,0.00,-0.00,0.00,0
2026-06-27 17:30:30.020,993.32,993.37,4.44,2.80,0.00,2.31,-0.27,9.41,-0.00,0.00,0.00,0
2026-06-27 17:30:30.030,993.32,993.37,4.44,2.80,0.00,2.30,-0.30,9.43,-0.00,0.00,0.00,0
2026-06-27 17:30:30.040,993.32,993.37,4.44,2.80,0.00,2.32,-0.26,9.40,-0.00,-0.00,0.00,0
2026-06-27 17:30:30.050,993.32,993.37,4.44,2.80,0.00,2.32,-0.26,9.40,-0.00,-0.00,0.00,0
2026-06-27 17:30:30.060,993.32,993.37,4.44,2.80,0.00,2.30,-0.28,9.40,0.00,-0.00,0.00,0
2026-06-27 17:30:30.070,993.32,993.37,4.44,2.80,0.00,2.30,-0.25,9.39,0.00,-0.00,0.00,0
2026-06-27 17:30:30.080,993.32,993.37,4.44,2.80,0.00,2.30,-0.29,9.39,-0.00,-0.00,0.00,0
2026-06-27 17:30:30.090,993.32,993.37,4.44,2.80,0.00,2.30,-0.29,9.39,-0.00,-0.00,0.00,0
2026-06-27 17:30:30.100,993.32,993.37,4.44,2.80,0.00,2.30,-0.28,9.39,0.00,-0.00,-0.00,0
2026-06-27 17:30:30.110,993.32,993.37,4.44,2.80,0.00,2.32,-0.28,9.38,0.00,-0.00,0.00,0
2026-06-27 17:30:30.120,993.32,993.37,4.44,2.80,0.00,2.31,-0.28,9.41,0.00,0.00,0.00,0
2026-06-27 17:30:30.130,993.32,993.37,4.44,2.80,0.00,2.31,-0.28,9.41,0.00,0.00,0.00,0
2026-06-27 17:30:30.140,993.32,993.37,4.44,2.80,0.00,2.32,-0.25,9.40,0.00,-0.00,0.00,0
2026-06-27 17:30:30.150,993.32,993.37,4.44,2.80,0.00,2.31,-0.29,9.39,-0.00,0.00,0.00,0
2026-06-27 17:30:30.160,993.32,993.37,4.44,2.80,0.00,2.30,-0.29,9.39,-0.00,0.00,-0.00,0
2026-06-27 17:30:30.170,993.32,993.37,4.44,2.80,0.00,2.30,-0.29,9.39,-0.00,0.00,-0.00,0
2026-06-27 17:30:30.180,993.32,993.38,5.96,3.24,0.00,2.31,-0.28,9.43,-0.00,0.00,-0.00,0
2026-06-27 17:30:30.190,993.32,993.38,5.96,3.24,0.00,2.31,-0.27,9.40,0.00,0.00,-0.00,0
2026-06-27 17:30:30.200,993.32,993.38,5.96,3.24,0.00,2.31,-0.27,9.40,0.00,0.00,-0.00,0
2026-06-27 17:30:30.210,993.32,993.38,5.96,3.24,0.00,2.29,-0.27,9.42,0.00,0.00,-0.00,0
2026-06-27 17:30:30.220,993.32,993.38,5.96,3.24,0.00,2.32,-0.28,9.40,0.00,0.00,0.00,0
2026-06-27 17:30:30.230,993.32,993.38,5.96,3.24,0.00,2.30,-0.26,9.41,0.00,-0.00,-0.00,0
2026-06-27 17:30:30.240,993.32,993.38,5.96,3.24,0.00,2.30,-0.26,9.41,0.00,-0.00,-0.00,0
2026-06-27 17:30:30.250,993.32,993.38,5.96,3.24,0.00,2.29,-0.28,9.40,-0.00,0.00,-0.00,0
2026-06-27 17:30:30.260,993.32,993.38,5.96,3.24,0.00,2.31,-0.28,9.40,0.00,-0.00,0.00,0
2026-06-27 17:30:30.270,993.32,993.38,5.96,3.24,0.00,2.30,-0.27,9.39,0.00,0.00,0.00,0
2026-06-27 17:30:30.280,993.32,993.38,5.96,3.24,0.00,2.30,-0.27,9.39,0.00,0.00,0.00,0
2026-06-27 17:30:30.290,993.32,993.38,5.96,3.24,0.00,2.29,-0.28,9.40,0.00,-0.00,-0.00,0
2026-06-27 17:30:30.300,993.32,993.38,5.96,3.24,0.00,2.32,-0.26,9.40,0.00,-0.00,0.00,0
2026-06-27 17:30:30.310,993.32,993.38,5.96,3.24,0.00,2.31,-0.30,9.40,0.00,0.00,0.00,0
2026-06-27 17:30:30.320,993.32,993.38,5.96,3.24,0.00,2.31,-0.30,9.40,0.00,0.00,0.00,0
2026-06-27 17:30:30.330,993.32,993.38,5.96,3.24,0.00,2.32,-0.26,9.42,-0.00,0.00,-0.00,0
2026-06-27 17:30:30.340,993.32,993.39,7.42,3.62,0.00,2.29,-0.29,9.41,-0.00,0.00,-0.00,0
2026-06-27 17:30:30.350,993.32,993.39,7.42,3.62,0.00,2.32,-0.27,9.40,0.00,-0.00,0.00,0
2026-06-27 17:30:30.360,993.32,993.39,7.42,3.62,0.00,2.32,-0.27,9.40,0.00,-0.00,0.00,0
2026-06-27 17:30:30.370,993.32,993.39,7.42,3.62,0.00,2.31,-0.27,9.39,-0.00,-0.00,-0.00,0
2026-06-27 17:30:30.380,993.32,993.39,7.42,3.62,0.00,2.32,-0.29,9.41,0.00,0.00,-0.00,0
2026-06-27 17:30:30.390,993.32,993.39,7.42,3.62,0.00,2.32,-0.29,9.41,0.00,0.00,-0.00,0
2026-06-27 17:30:30.400,993.32,993.39,7.42,3.62,0.00,2.32,-0.28,9.39,0.00,0.00,0.00,0
2026-06-27 17:30:30.410,993.32,993.39,7.42,3.62,0.00,2.32,-0.28,9.40,0.00,-0.00,0.00,0
2026-06-27 17:30:30.420,993.32,993.39,7.42,3.62,0.00,2.30,-0.27,9.41,0.00,0.00,0.00,0
2026-06-27 17:30:30.430,993.32,993.39,7.42,3.62,0.00,2.30,-0.27,9.41,0.00,0.00,0.00,0
2026-06-27 17:30:30.440,993.32,993.39,7.42,3.62,0.00,2.30,-0.27,9.39,0.00,-0.00,-0.00,0
2026-06-27 17:30:30.450,993.32,993.39,7.42,3.62,0.00,2.30,-0.28,9.41,0.00,0.00,-0.00,0
2026-06-27 17:30:30.460,993.32,993.39,7.42,3.62,0.00,2.30,-0.29,9.43,-0.00,-0.00,-0.00,0
2026-06-27 17:30:30.470,993.32,993.39,7.42,3.62,0.00,2.30,-0.29,9.43,-0.00,-0.00,-0.00,0
2026-06-27 17:30:30.480,993.32,993.39,7.42,3.62,0.00,2.32,-0.26,9.39,0.00,-0.00,-0.00,0
2026-06-27 17:30:30.490,993.32,993.39,7.42,3.62,0.00,2.30,-0.28,9.39,-0.00,-0.00,-0.00,0
2026-06-27 17:30:30.500,993.30,993.37,7.46,3.63,0.00,2.32,-0.28,9.41,-0.00,0.00,0.00,0
2026-06-27 17:30:30.510,993.30,993.37,7.46,3.63,0.00,2.32,-0.28,9.41,-0.00,0.00,0.00,0
2026-06-27 17:30:30.520,993.30,993.37,7.46,3.63,0.00,2.31,-0.29,9.41,0.00,0.00,0.00,0
2026-06-27 17:30:30.530,993.30,993.37,7.46,3.63,0.00,2.29,-0.30,9.42,-0.00,-0.00,-0.00,0
2026-06-27 17:30:30.540,993.30,993.37,7.46,3.63,0.00,2.29,-0.30,9.42,-0.00,-0.00,-0.00,0
2026-06-27 17:30:30.550,993.30,993.37,7.46,3.63,0.00,2.30,-0.27,9.40,-0.00,-0.00,0.00,0
2026-06-27 17:30:30.560,993.30,993.37,7.46,3.63,0.00,2.31,-0.26,9.39,0.00,0.00,-0.00,0
2026-06-27 17:30:30.570,993.30,993.37,7.46,3.63,0.00,2.31,-0.26,9.39,0.00,0.00,-0.00,0
2026-06-27 17:30:30.580,993.30,993.37,7.46,3.63,0.00,2.32,-0.28,9.39,0.00,-0.00,0.00,0
2026-06-27 17:30:30.590,993.30,993.37,7.46,3.63,0.00,2.31,-0.27,9.40,-0.00,-0.00,0.00,0
2026-06-27 17:30:30.600,993.30,993.37,7.46,3.63,0.00,2.31,-0.30,9.41,0.00,-0.00,-0.00,0
2026-06-27 17:30:30.610,993.30,993.37,7.46,3.63,0.00,2.31,-0.30,9.41,0.00,-0.00,-0.00,0
2026-06-27 17:30:30.620,993.30,993.37,7.46,3.63,0.00,2.31,-0.27,9.41,-0.00,-0.00,0.00,0
2026-06-27 17:30:30.630,993.30,993.37,7.46,3.63,0.00,2.30,-0.27,9.40,0.00,0.00,0.00,0
2026-06-27 17:30:30.640,993.30,993.37,7.46,3.63,0.00,2.30,-0.26,9.39,-0.00,0.00,0.00,0
2026-06-27 17:30:30.650,993.30,993.37,7.46,3.63,0.00,2.31,-0.25,9.41,0.00,-0.00,0.00,0
2026-06-27 17:30:30.660,993.29,993.38,9.64,4.13,0.00,2.31,-0.25,9.41,0.00,-0.00,0.00,0
2026-06-27 17:30:30.670,993.29,993.38,9.64,4.13,0.00,2.31,-0.30,9.38,0.00,0.00,0.00,0
2026-06-27 17:30:30.680,993.29,993.38,9.64,4.13,0.00,2.31,-0.27,9.39,-0.00,0.00,-0.00,0
2026-06-27 17:30:30.690,993.29,993.38,9.64,4.13,0.00,2.31,-0.27,9.39,-0.00,0.00,-0.00,0
2026-06-27 17:30:30.700,993.29,993.38,9.64,4.13,0.00,2.30,-0.27,9.41,0.00,0.00,0.00,0
2026-06-27 17:30:30.710,993.29,993.38,9.64,4.13,0.00,2.32,-0.27,9.38,0.00,0.00,0.00,0
2026-06-27 17:30:30.720,993.29,993.38,9.64,4.13,0.00,2.34,-0.27,9.39,0.00,0.00,0.00,0
2026-06-27 17:30:30.730,993.29,993.38,9.64,4.13,0.00,2.34,-0.27,9.39,0.00,0.00,0.00,0
2026-06-27 17:30:30.740,993.29,993.38,9.64,4.13,0.00,2.29,-0.27,9.41,0.00,0.01,0.00,0
2026-06-27 17:30:30.750,993.29,993.38,9.64,4.13,0.00,2.29,-0.30,9.37,-0.00,-0.00,-0.00,0
2026-06-27 17:30:30.760,993.29,993.38,9.64,4.13,0.00,2.30,-0.26,9.41,0.00,-0.00,0.00,0
2026-06-27 17:30:30.770,993.29,993.38,9.64,4.13,0.00,2.30,-0.26,9.41,0.00,-0.00,0.00,0
2026-06-27 17:30:30.780,993.29,993.38,9.64,4.13,0.00,2.33,-0.26,9.39,-0.00,0.00,-0.00,0
2026-06-27 17:30:30.790,993.29,993.38,9.64,4.13,0.00,2.30,-0.28,9.41,0.00,-0.00,0.00,0
2026-06-27 17:30:30.800,993.29,993.38,9.64,4.13,0.00,2.32,-0.28,9.39,0.00,0.00,-0.00,0
2026-06-27 17:30:30.810,993.29,993.38,9.64,4.13,0.00,2.32,-0.28,9.39,0.00,0.00,-0.00,0
2026-06-27 17:30:30.820,993.29,993.38,9.64,4.13,0.00,2.32,-0.28,9.40,0.00,-0.00,-0.00,0
2026-06-27 17:30:30.830,993.30,993.37,7.13,3.55,0.00,2.29,-0.24,9.40,-0.00,0.00,0.00,0
2026-06-27 17:30:30.840,993.30,993.37,7.13,3.55,0.00,2.30,-0.29,9.40,-0.00,0.00,0.00,0
2026-06-27 17:30:30.850,993.30,993.37,7.13,3.55,0.00,2.30,-0.29,9.40,-0.00,0.00,0.00,0
2026-06-27 17:30:30.860,993.30,993.37,7.13,3.55,0.00,2.32,-0.29,9.43,-0.00,0.00,-0.00,0
2026-06-27 17:30:30.870,993.30,993.37,7.13,3.55,0.00,2.30,-0.28,9.40,-0.00,0.00,0.00,0
2026-06-27 17:30:30.880,993.30,993.37,7.13,3.55,0.00,2.30,-0.28,9.40,-0.00,0.00,0.00,0
2026-06-27 17:30:30.890,993.30,993.37,7.13,3.55,0.00,2.29,-0.29,9.38,0.00,0.00,0.00,0
2026-06-27 17:30:30.900,993.30,993.37,7.13,3.55,0.00,2.30,-0.28,9.39,0.00,0.01,-0.00,0
2026-06-27 17:30:30.910,993.30,993.37,7.13,3.55,0.00,2.30,-0.28,9.39,0.00,0.01,-0.00,0
2026-06-27 17:30:30.920,993.30,993.37,7.13,3.55,0.00,2.30,-0.29,9.42,0.00,0.01,0.00,0
2026-06-27 17:30:30.930,993.30,993.37,7.13,3.55,0.00,2.31,-0.28,9.39,0.00,0.00,0.00,0
2026-06-27 17:30:30.940,993.30,993.37,7.13,3.55,0.00,2.31,-0.28,9.39,0.00,0.00,0.00,0
2026-06-27 17:30:30.950,993.30,993.37,7.13,3.55,0.00,2.30,-0.27,9.41,0.00,0.00,0.00,0
2026-06-27 17:30:30.960,993.30,993.37,7.13,3.55,0.00,2.30,-0.27,9.41,0.00,0.00,0.00,0
2026-06-27 17:30:30.970,993.30,993.37,7.13,3.55,0.00,2.29,-0.28,9.39,0.00,0.00,0.00,0
2026-06-27 17:30:30.980,993.30,993.37,7.13,3.55,0.00,2.31,-0.28,9.41,-0.00,0.00,-0.00,0
2026-06-27 17:30:30.990,993.30,993.38,7.62,3.67,0.00,2.31,-0.28,9.41,-0.00,0.00,-0.00,0
2026-06-27 17:30:31.000,993.30,993.38,7.62,3.67,0.00,2.30,-0.31,9.41,0.00,-0.00,0.00,0
2026-06-27 17:30:31.010,993.30,993.38,7.62,3.67,0.00,2.31,-0.27,9.41,0.00,0.00,-0.00,0
2026-06-27 17:30:31.020,993.30,993.38,7.62,3.67,0.00,2.31,-0.26,9.39,0.00,-0.00,0.00,0
2026-06-27 17:30:31.030,993.30,993.38,7.62,3.67,0.00,2.31,-0.26,9.39,0.00,-0.00,0.00,0
2026-06-27 17:30:31.040,993.30,993.38,7.62,3.67,0.00,2.31,-0.28,9.41,-0.00,-0.00,-0.00,0
2026-06-27 17:30:31.050,993.30,993.38,7.62,3.67,0.00,2.31,-0.28,9.41,-0.00,-0.00,-0.00,0
2026-06-27 17:30:31.060,993.30,993.38,7.62,3.67,0.00,2.31,-0.28,9.40,-0.00,0.00,0.00,0
2026-06-27 17:30:31.070,993.30,993.38,7.62,3.67,0.00,2.31,-0.28,9.39,-0.00,-0.00,0.00,0
2026-06-27 17:30:31.080,993.30,993.38,7.62,3.67,0.00,2.31,-0.28,9.39,-0.00,-0.00,0.00,0
2026-06-27 17:30:31.090,993.30,993.38,7.62,3.67,0.00,2.32,-0.29,9.40,0.00,0.00,0.00,0
2026-06-27 17:30:31.100,993.30,993.38,7.62,3.67,0.00,2.30,-0.27,9.39,0.00,0.00,0.00,0
2026-06-27 17:30:31.110,993.30,993.38,7.62,3.67,0.00,2.30,-0.27,9.39,0.00,0.00,0.00,0
2026-06-27 17:30:31.120,993.30,993.38,7.62,3.67,0.00,2.30,-0.26,9.41,0.00,0.00,0.00,0
2026-06-27 17:30:31.130,993.30,993.38,7.62,3.67,0.00,2.32,-0.26,9.39,-0.00,-0.00,-0.00,0
2026-06-27 17:30:31.140,993.30,993.38,7.62,3.67,0.00,2.32,-0.26,9.39,-0.00,-0.00,-0.00,0
2026-06-27 17:30:31.150,993.30,993.38,7.90,3.74,0.00,2.30,-0.26,9.43,-0.00,-0.00,0.00,0
2026-06-27 17:30:31.160,993.30,993.37,7.73,3.69,0.00,2.31,-0.29,9.39,-0.00,0.00,0.00,0
2026-06-27 17:30:31.170,993.30,993.37,7.73,3.69,0.00,2.29,-0.27,9.41,-0.00,-0.00,-0.00,0
2026-06-27 17:30:31.180,993.30,993.37,7.73,3.69,0.00,2.29,-0.27,9.41,-0.00,-0.00,-0.00,0
2026-06-27 17:30:31.190,993.30,993.37,7.73,3.69,0.00,2.31,-0.27,9.40,-0.00,0.00,0.00,0
2026-06-27 17:30:31.200,993.30,993.37,7.73,3.69,0.00,2.30,-0.27,9.41,0.00,0.00,0.00,0
2026-06-27 17:30:31.210,993.30,993.37,7.73,3.69,0.00,2.30,-0.27,9.41,0.00,0.00,0.00,0
2026-06-27 17:30:31.220,993.30,993.37,7.73,3.69,0.00,2.30,-0.31,9.41,-0.00,-0.00,-0.00,0
2026-06-27 17:30:31.230,993.30,993.37,7.73,3.69,0.00,2.30,-0.31,9.41,-0.00,-0.00,-0.00,0
2026-06-27 17:30:31.240,993.30,993.37,7.73,3.69,0.00,2.31,-0.26,9.39,-0.00,0.00,-0.00,0
2026-06-27 17:30:31.250,993.30,993.37,7.73,3.69,0.00,2.31,-0.29,9.39,-0.00,0.00,0.00,0
2026-06-27 17:30:31.260,993.30,993.37,7.73,3.69,0.00,2.30,-0.28,9.42,-0.00,0.00,0.00,0
2026-06-27 17:30:31.270,993.30,993.37,7.73,3.69,0.00,2.33,-0.27,9.40,-0.00,-0.00,-0.00,0
2026-06-27 17:30:31.280,993.30,993.37,7.73,3.69,0.00,2.33,-0.27,9.40,-0.00,-0.00,-0.00,0
2026-06-27 17:30:31.290,993.30,993.37,7.73,3.69,0.00,2.28,-0.29,9.39,0.00,0.00,-0.00,0
2026-06-27 17:30:31.300,993.30,993.37,7.73,3.69,0.00,2.31,-0.28,9.40,-0.00,0.00,0.00,0
2026-06-27 17:30:31.310,993.30,993.37,7.73,3.69,0.00,2.30,-0.27,9.39,-0.00,0.01,0.00,0
2026-06-27 17:30:31.320,993.31,993.37,6.27,3.33,0.00,2.30,-0.27,9.39,-0.00,0.01,0.00,0
2026-06-27 17:30:31.330,993.31,993.37,6.27,3.33,0.00,2.32,-0.28,9.39,0.00,0.00,0.00,0
2026-06-27 17:30:31.340,993.31,993.37,6.27,3.33,0.00,2.31,-0.27,9.39,-0.00,0.00,0.00,0
2026-06-27 17:30:31.350,993.31,993.37,6.27,3.33,0.00,2.32,-0.27,9.42,0.00,0.00,0.00,0
2026-06-27 17:30:31.360,993.31,993.37,6.27,3.33,0.00,2.32,-0.27,9.42,0.00,0.00,0.00,0
2026-06-27 17:30:31.370,993.31,993.37,6.27,3.33,0.00,2.31,-0.27,9.41,0.00,0.00,0.00,0
2026-06-27 17:30:31.380,993.31,993.37,6.27,3.33,0.00,2.32,-0.27,9.39,-0.00,0.00,-0.00,0
2026-06-27 17:30:31.390,993.31,993.37,6.27,3.33,0.00,2.32,-0.27,9.39,-0.00,0.00,-0.00,0
2026-06-27 17:30:31.400,993.31,993.37,6.27,3.33,0.00,2.30,-0.27,9.39,0.00,-0.00,0.00,0
2026-06-27 17:30:31.410,993.31,993.37,6.27,3.33,0.00,2.30,-0.26,9.40,-0.00,-0.00,0.00,0
2026-06-27 17:30:31.420,993.31,993.37,6.27,3.33,0.00,2.30,-0.27,9.39,-0.00,-0.00,-0.00,0
2026-06-27 17:30:31.430,993.31,993.37,6.27,3.33,0.00,2.30,-0.27,9.39,-0.00,-0.00,-0.00,0
2026-06-27 17:30:31.440,993.31,993.37,6.27,3.33,0.00,2.31,-0.28,9.42,-0.00,0.00,0.00,0
2026-06-27 17:30:31.450,993.31,993.37,6.27,3.33,0.00,2.31,-0.28,9.42,-0.00,0.00,0.00,0
2026-06-27 17:30:31.460,993.31,993.37,6.27,3.33,0.00,2.31,-0.27,9.41,-0.00,-0.00,0.00,0
2026-06-27 17:30:31.470,993.31,993.37,6.27,3.33,0.00,2.30,-0.26,9.40,0.00,0.00,0.00,0
2026-06-27 17:30:31.480,993.29,993.37,8.07,3.78,0.00,2.32,-0.26,9.42,-0.00,0.00,-0.00,0
2026-06-27 17:30:31.490,993.29,993.37,8.35,3.84,0.00,2.31,-0.25,9.41,-0.00,0.00,-0.00,0
2026-06-27 17:30:31.500,993.29,993.37,8.35,3.84,0.00,2.31,-0.25,9.41,-0.00,0.00,-0.00,0
2026-06-27 17:30:31.510,993.29,993.37,8.35,3.84,0.00,2.30,-0.30,9.42,0.00,0.00,0.00,0
2026-06-27 17:30:31.520,993.29,993.37,8.35,3.84,0.00,2.31,-0.30,9.40,-0.00,0.00,-0.00,0
2026-06-27 17:30:31.530,993.29,993.37,8.35,3.84,0.00,2.31,-0.30,9.40,-0.00,0.00,-0.00,0
2026-06-27 17:30:31.540,993.29,993.37,8.35,3.84,0.00,2.30,-0.27,9.39,-0.00,0.00,0.00,0
2026-06-27 17:30:31.550,993.29,993.37,8.35,3.84,0.00,2.30,-0.29,9.41,-0.00,0.00,-0.00,0
2026-06-27 17:30:31.560,993.29,993.37,8.35,3.84,0.00,2.31,-0.27,9.40,-0.00,0.00,-0.00,0
2026-06-27 17:30:31.570,993.29,993.37,8.35,3.84,0.00,2.31,-0.27,9.40,-0.00,0.00,-0.00,0
2026-06-27 17:30:31.580,993.29,993.37,8.35,3.84,0.00,2.31,-0.27,9.41,-0.00,0.00,-0.00,0
2026-06-27 17:30:31.590,993.29,993.37,8.35,3.84,0.00,2.31,-0.28,9.39,0.00,-0.01,0.00,0
2026-06-27 17:30:31.600,993.29,993.37,8.35,3.84,0.00,2.30,-0.29,9.40,-0.00,0.00,-0.00,0
2026-06-27 17:30:31.610,993.29,993.37,8.35,3.84,0.00,2.30,-0.29,9.40,-0.00,0.00,-0.00,0
2026-06-27 17:30:31.620,993.29,993.37,8.35,3.84,0.00,2.30,-0.26,9.39,-0.00,0.00,-0.00,0
2026-06-27 17:30:31.630,993.29,993.37,8.35,3.84,0.00,2.30,-0.27,9.40,0.00,0.00,-0.00,0
2026-06-27 17:30:31.640,993.29,993.37,8.35,3.84,0.00,2.31,-0.30,9.41,-0.00,-0.00,-0.00,0
2026-06-27 17:30:31.650,993.30,993.36,6.15,3.30,0.00,2.31,-0.30,9.41,-0.00,-0.00,-0.00,0
2026-06-27 17:30:31.660,993.30,993.36,6.15,3.30,0.00,2.30,-0.26,9.40,-0.00,-0.01,0.00,0
2026-06-27 17:30:31.670,993.30,993.36,6.15,3.30,0.00,2.32,-0.27,9.38,0.00,-0.00,0.00,0
2026-06-27 17:30:31.680,993.30,993.36,6.15,3.30,0.00,2.30,-0.27,9.39,0.00,0.00,-0.00,0
2026-06-27 17:30:31.690,993.30,993.36,6.15,3.30,0.00,2.30,-0.27,9.39,0.00,0.00,-0.00,0
2026-06-27 17:30:31.700,993.30,993.36,6.15,3.30,0.00,2.31,-0.28,9.41,0.00,0.00,-0.00,0
2026-06-27 17:30:31.710,993.30,993.36,6.15,3.30,0.00,2.31,-0.27,9.40,-0.00,-0.00,0.00,0
2026-06-27 17:30:31.720,993.30,993.36,6.15,3.30,0.00,2.31,-0.27,9.40,-0.00,-0.00,0.00,0
2026-06-27 17:30:31.730,993.30,993.36,6.15,3.30,0.00,2.32,-0.29,9.38,0.00,-0.00,0.00,0
2026-06-27 17:30:31.740,993.30,993.36,6.15,3.30,0.00,2.32,-0.27,9.44,0.00,-0.00,0.00,0
2026-06-27 17:30:31.750,993.30,993.36,6.15,3.30,0.00,2.30,-0.30,9.39,-0.00,-0.00,-0.00,0
2026-06-27 17:30:31.760,993.30,993.36,6.15,3.30,0.00,2.30,-0.30,9.39,-0.00,-0.00,-0.00,0
2026-06-27 17:30:31.770,993.30,993.36,6.15,3.30,0.00,2.31,-0.29,9.38,0.00,-0.00,-0.00,0
2026-06-27 17:30:31.780,993.30,993.36,6.15,3.30,0.00,2.32,-0.28,9.39,0.00,0.00,-0.00,0
2026-06-27 17:30:31.790,993.30,993.36,6.15,3.30,0.00,2.31,-0.28,9.43,0.00,-0.00,0.00,0
2026-06-27 17:30:31.800,993.30,993.36,6.15,3.30,0.00,2.31,-0.28,9.43,0.00,-0.00,0.00,0
2026-06-27 17:30:31.810,993.30,993.36,6.15,3.30,0.00,2.32,-0.29,9.40,-0.00,0.00,-0.00,0
2026-06-27 17:30:31.820,993.30,993.36,5.70,3.17,0.00,2.32,-0.29,9.39,0.00,-0.00,0.00,0
2026-06-27 17:30:31.830,993.30,993.36,5.70,3.17,0.00,2.31,-0.27,9.38,0.00,-0.01,-0.00,0
2026-06-27 17:30:31.840,993.30,993.36,5.70,3.17,0.00,2.31,-0.27,9.39,-0.00,0.00,0.00,0
2026-06-27 17:30:31.850,993.30,993.36,5.70,3.17,0.00,2.31,-0.27,9.39,-0.00,0.00,0.00,0
2026-06-27 17:30:31.860,993.30,993.36,5.70,3.17,0.00,2.30,-0.27,9.39,0.00,-0.00,0.00,0
2026-06-27 17:30:31.870,993.30,993.36,5.70,3.17,0.00,2.31,-0.26,9.40,-0.00,-0.00,-0.00,0
2026-06-27 17:30:31.880,993.30,993.36,5.70,3.17,0.00,2.31,-0.27,9.41,0.00,-0.00,-0.00,0
2026-06-27 17:30:31.890,993.30,993.36,5.70,3.17,0.00,2.31,-0.27,9.41,0.00,-0.00,-0.00,0
2026-06-27 17:30:31.900,993.30,993.36,5.70,3.17,0.00,2.29,-0.26,9.40,-0.00,-0.00,-0.00,0
2026-06-27 17:30:31.910,993.30,993.36,5.70,3.17,0.00,2.31,-0.27,9.40,-0.00,0.00,-0.00,0
2026-06-27 17:30:31.920,993.30,993.36,5.70,3.17,0.00,2.31,-0.27,9.40,-0.00,0.00,-0.00,0
2026-06-27 17:30:31.930,993.30,993.36,5.70,3.17,0.00,2.32,-0.28,9.39,0.00,0.00,0.00,0
2026-06-27 17:30:31.940,993.30,993.36,5.70,3.17,0.00,2.32,-0.28,9.39,0.00,0.00,0.00,0
2026-06-27 17:30:31.950,993.30,993.36,5.70,3.17,0.00,2.32,-0.28,9.39,0.00,0.00,0.00,0
2026-06-27 17:30:31.960,993.30,993.36,5.70,3.17,0.00,2.28,-0.30,9.39,-0.00,-0.00,0.00,0
2026-06-27 17:30:31.970,993.30,993.36,5.70,3.17,0.00,2.31,-0.27,9.41,0.00,0.00,0.00,0
2026-06-27 17:30:31.980,993.29,993.37,8.07,3.78,0.00,2.32,-0.29,9.43,0.00,-0.00,-0.00,0
2026-06-27 17:30:31.990,993.29,993.37,8.07,3.78,0.00,2.32,-0.29,9.43,0.00,-0.00,-0.00,0
2026-06-27 17:30:32.000,993.29,993.37,8.07,3.78,0.00,2.32,-0.30,9.39,0.00,0.00,0.00,0
2026-06-27 17:30:32.010,993.29,993.37,8.07,3.78,0.00,2.32,-0.25,9.40,-0.00,-0.00,0.00,0
2026-06-27 17:30:32.020,993.29,993.37,8.07,3.78,0.00,2.31,-0.27,9.42,0.00,-0.00,0.00,0
2026-06-27 17:30:32.030,993.29,993.37,8.07,3.78,0.00,2.31,-0.27,9.42,0.00,-0.00,0.00,0
2026-06-27 17:30:32.040,993.29,993.37,8.07,3.78,0.00,2.31,-0.28,9.39,-0.00,-0.00,-0.00,0
2026-06-27 17:30:32.050,993.29,993.37,8.07,3.78,0.00,2.32,-0.26,9.40,-0.00,0.00,-0.00,0
2026-06-27 17:30:32.060,993.29,993.37,8.07,3.78,0.00,2.31,-0.28,9.40,0.00,-0.00,-0.00,0
2026-06-27 17:30:32.070,993.29,993.37,8.07,3.78,0.00,2.31,-0.28,9.40,0.00,-0.00,-0.00,0
2026-06-27 17:30:32.080,993.29,993.37,8.07,3.78,0.00,2.30,-0.27,9.39,0.00,-0.00,0.00,0
2026-06-27 17:30:32.090,993.29,993.37,8.07,3.78,0.00,2.31,-0.24,9.39,-0.00,-0.00,0.00,0
2026-06-27 17:30:32.100,993.29,993.37,8.07,3.78,0.00,2.31,-0.28,9.39,-0.00,-0.00,0.00,0
2026-06-27 17:30:32.110,993.29,993.37,8.07,3.78,0.00,2.31,-0.28,9.39,-0.00,-0.00,0.00,0
2026-06-27 17:30:32.120,993.29,993.37,8.07,3.78,0.00,2.30,-0.27,9.40,-0.00,-0.00,-0.00,0
2026-06-27 17:30:32.130,993.29,993.37,8.07,3.78,0.00,2.29,-0.29,9.39,0.00,0.00,-0.00,0
2026-06-27 17:30:32.140,993.29,993.37,8.07,3.78,0.00,2.31,-0.30,9.40,0.00,0.00,0.00,0
2026-06-27 17:30:32.150,993.30,993.38,8.17,3.80,0.00,2.31,-0.26,9.39,0.00,0.00,-0.00,0
2026-06-27 17:30:32.160,993.30,993.38,8.17,3.80,0.00,2.31,-0.26,9.39,0.00,0.00,-0.00,0
2026-06-27 17:30:32.170,993.30,993.38,8.17,3.80,0.00,2.33,-0.29,9.40,-0.00,0.00,0.00,0
2026-06-27 17:30:32.180,993.30,993.38,8.17,3.80,0.00,2.31,-0.26,9.38,0.00,0.00,0.00,0
2026-06-27 17:30:32.190,993.30,993.38,8.17,3.80,0.00,2.31,-0.26,9.38,0.00,0.00,0.00,0
2026-06-27 17:30:32.200,993.30,993.38,8.17,3.80,0.00,2.32,-0.26,9.41,0.00,0.00,-0.00,0
2026-06-27 17:30:32.210,993.30,993.38,8.17,3.80,0.00,2.31,-0.26,9.42,0.00,-0.00,0.00,0
2026-06-27 17:30:32.220,993.30,993.38,8.17,3.80,0.00,2.31,-0.29,9.41,0.00,0.00,0.00,0
2026-06-27 17:30:32.230,993.30,993.38,8.17,3.80,0.00,2.31,-0.29,9.37,0.00,0.00,-0.00,0
2026-06-27 17:30:32.240,993.30,993.38,8.17,3.80,0.00,2.31,-0.29,9.37,0.00,0.00,-0.00,0
2026-06-27 17:30:32.250,993.30,993.38,8.17,3.80,0.00,2.31,-0.27,9.38,0.00,0.00,0.00,0
2026-06-27 17:30:32.260,993.30,993.38,8.17,3.80,0.00,2.30,-0.27,9.41,0.00,0.00,-0.00,0
2026-06-27 17:30:32.270,993.30,993.38,8.17,3.80,0.00,2.30,-0.27,9.39,-0.00,-0.00,-0.00,0
2026-06-27 17:30:32.280,993.30,993.38,8.17,3.80,0.00,2.30,-0.27,9.39,-0.00,-0.00,-0.00,0
2026-06-27 17:30:32.290,993.30,993.38,8.17,3.80,0.00,2.30,-0.28,9.41,0.00,0.00,-0.00,0
2026-06-27 17:30:32.300,993.30,993.38,8.17,3.80,0.00,2.29,-0.29,9.39,-0.00,-0.00,-0.00,0
2026-06-27 17:30:32.310,993.30,993.38,8.07,3.78,0.00,2.31,-0.27,9.41,-0.00,0.00,-0.00,0
2026-06-27 17:30:32.320,993.30,993.38,8.07,3.78,0.00,2.30,-0.28,9.39,-0.00,0.00,-0.00,0
2026-06-27 17:30:32.330,993.30,993.38,8.07,3.78,0.00,2.30,-0.28,9.39,-0.00,0.00,-0.00,0
2026-06-27 17:30:32.340,993.30,993.38,8.07,3.78,0.00,2.32,-0.28,9.39,-0.00,0.00,0.00,0
2026-06-27 17:30:32.350,993.30,993.38,8.07,3.78,0.00,2.31,-0.28,9.39,-0.00,0.00,0.00,0
2026-06-27 17:30:32.360,993.30,993.38,8.07,3.78,0.00,2.30,-0.26,9.39,-0.00,-0.00,-0.00,0
2026-06-27 17:30:32.370,993.30,993.38,8.07,3.78,0.00,2.30,-0.26,9.39,-0.00,-0.00,-0.00,0
2026-06-27 17:30:32.380,993.30,993.38,8.07,3.78,0.00,2.32,-0.29,9.40,0.00,0.00,0.00,0
2026-06-27 17:30:32.390,993.30,993.38,8.07,3.78,0.00,2.28,-0.25,9.40,-0.00,0.00,0.00,0
2026-06-27 17:30:32.400,993.30,993.38,8.07,3.78,0.00,2.31,-0.27,9.40,-0.00,0.00,0.00,0
2026-06-27 17:30:32.410,993.30,993.38,8.07,3.78,0.00,2.31,-0.28,9.39,-0.00,0.00,-0.00,0
2026-06-27 17:30:32.420,993.30,993.38,8.07,3.78,0.00,2.31,-0.28,9.39,-0.00,0.00,-0.00,0
2026-06-27 17:30:32.430,993.30,993.38,8.07,3.78,0.00,2.32,-0.26,9.39,0.00,0.00,0.00,0
2026-06-27 17:30:32.440,993.30,993.38,8.07,3.78,0.00,2.32,-0.28,9.40,0.00,0.00,0.00,0
2026-06-27 17:30:32.450,993.30,993.38,8.07,3.78,0.00,2.31,-0.27,9.39,0.00,0.00,-0.00,0
2026-06-27 17:30:32.460,993.30,993.38,8.07,3.78,0.00,2.31,-0.27,9.39,0.00,0.00,-0.00,0
2026-06-27 17:30:32.470,993.30,993.38,8.07,3.78,0.00,2.30,-0.27,9.38,0.00,-0.00,0.00,0
2026-06-27 17:30:32.480,993.31,993.37,5.75,3.19,0.00,2.31,-0.27,9.41,0.00,-0.00,0.00,0
2026-06-27 17:30:32.490,993.31,993.37,5.75,3.19,0.00,2.31,-0.27,9.40,0.00,-0.00,0.00,0
2026-06-27 17:30:32.500,993.31,993.37,5.75,3.19,0.00,2.31,-0.27,9.40,0.00,-0.00,0.00,0
2026-06-27 17:30:32.510,993.31,993.37,5.75,3.19,0.00,2.30,-0.26,9.40,0.00,-0.00,-0.00,0
2026-06-27 17:30:32.520,993.31,993.37,5.75,3.19,0.00,2.29,-0.28,9.40,-0.00,-0.00,0.00,0
2026-06-27 17:30:32.530,993.31,993.37,5.75,3.19,0.00,2.33,-0.26,9.41,0.00,-0.00,-0.00,0
2026-06-27 17:30:32.540,993.31,993.37,5.75,3.19,0.00,2.33,-0.26,9.41,0.00,-0.00,-0.00,0
2026-06-27 17:30:32.550,993.31,993.37,5.75,3.19,0.00,2.31,-0.28,9.40,0.00,0.00,0.00,0
2026-06-27 17:30:32.560,993.31,993.37,5.75,3.19,0.00,2.31,-0.26,9.39,0.00,0.00,-0.00,0
2026-06-27 17:30:32.570,993.31,993.37,5.75,3.19,0.00,2.30,-0.27,9.39,0.00,0.00,0.00,0
2026-06-27 17:30:32.580,993.31,993.37,5.75,3.19,0.00,2.30,-0.27,9.39,0.00,0.00,0.00,0
2026-06-27 17:30:32.590,993.31,993.37,5.75,3.19,0.00,2.31,-0.27,9.41,0.00,0.00,0.00,0
2026-06-27 17:30:32.600,993.31,993.37,5.75,3.19,0.00,2.28,-0.25,9.39,0.00,0.00,-0.00,0
2026-06-27 17:30:32.610,993.31,993.37,5.75,3.19,0.00,2.31,-0.27,9.40,-0.00,0.00,-0.00,0
2026-06-27 17:30:32.620,993.31,993.37,5.75,3.19,0.00,2.31,-0.29,9.40,0.00,0.00,0.00,0
2026-06-27 17:30:32.630,993.31,993.37,5.75,3.19,0.00,2.31,-0.29,9.40,0.00,0.00,0.00,0
2026-06-27 17:30:32.640,993.30,993.37,6.61,3.42,0.00,2.28,-0.28,9.41,-0.00,-0.00,-0.00,0
2026-06-27 17:30:32.650,993.30,993.38,8.22,3.81,0.00,2.32,-0.29,9.42,-0.00,-0.00,-0.00,0
2026-06-27 17:30:32.660,993.30,993.38,8.22,3.81,0.00,2.31,-0.30,9.40,0.00,-0.00,-0.00,0
2026-06-27 17:30:32.670,993.30,993.38,8.22,3.81,0.00,2.31,-0.30,9.40,0.00,-0.00,-0.00,0
2026-06-27 17:30:32.680,993.30,993.38,8.22,3.81,0.00,2.32,-0.26,9.41,0.00,-0.00,-0.00,0
2026-06-27 17:30:32.690,993.30,993.38,8.22,3.81,0.00,2.29,-0.28,9.37,0.00,-0.00,0.00,0
2026-06-27 17:30:32.700,993.30,993.38,8.22,3.81,0.00,2.30,-0.27,9.41,-0.00,-0.00,-0.00,0
2026-06-27 17:30:32.710,993.30,993.38,8.22,3.81,0.00,2.30,-0.27,9.41,-0.00,-0.00,-0.00,0
2026-06-27 17:30:32.720,993.30,993.38,8.22,3.81,0.00,2.30,-0.29,9.39,0.00,-0.00,-0.00,0
2026-06-27 17:30:32.730,993.30,993.38,8.22,3.81,0.00,2.29,-0.27,9.41,0.00,0.00,0.00,0
2026-06-27 17:30:32.740,993.30,993.38,8.22,3.81,0.00,2.29,-0.27,9.41,0.00,0.00,0.00,0
2026-06-27 17:30:32.750,993.30,993.38,8.22,3.81,0.00,2.30,-0.29,9.39,-0.00,-0.00,0.00,0
2026-06-27 17:30:32.760,993.30,993.38,8.22,3.81,0.00,2.31,-0.28,9.39,0.00,-0.00,0.00,0
2026-06-27 17:30:32.770,993.30,993.38,8.22,3.81,0.00,2.32,-0.27,9.40,-0.00,-0.00,-0.00,0
2026-06-27 17:30:32.780,993.30,993.38,8.22,3.81,0.00,2.31,-0.28,9.39,0.00,-0.00,0.00,0
2026-06-27 17:30:32.790,993.30,993.38,8.22,3.81,0.00,2.31,-0.28,9.39,0.00,-0.00,0.00,0
2026-06-27 17:30:32.800,993.30,993.38,8.22,3.81,0.00,2.32,-0.30,9.41,0.00,-0.00,-0.00,0
2026-06-27 17:30:32.810,993.30,993.38,8.51,3.88,0.00,2.31,-0.27,9.38,-0.00,0.00,-0.00,0
2026-06-27 17:30:32.820,993.30,993.38,8.51,3.88,0.00,2.32,-0.27,9.41,-0.00,-0.00,-0.00,0
2026-06-27 17:30:32.830,993.30,993.38,8.51,3.88,0.00,2.32,-0.27,9.41,-0.00,-0.00,-0.00,0
2026-06-27 17:30:32.840,993.30,993.38,8.51,3.88,0.00,2.32,-0.29,9.41,0.00,0.00,-0.00,0
2026-06-27 17:30:32.850,993.30,993.38,8.51,3.88,0.00,2.30,-0.26,9.41,0.00,0.00,-0.00,0
2026-06-27 17:30:32.860,993.30,993.38,8.51,3.88,0.00,2.29,-0.28,9.41,-0.00,-0.00,0.00,0
2026-06-27 17:30:32.870,993.30,993.38,8.51,3.88,0.00,2.29,-0.28,9.41,-0.00,-0.00,0.00,0
2026-06-27 17:30:32.880,993.30,993.38,8.51,3.88,0.00,2.29,-0.26,9.41,-0.00,0.00,-0.00,0
2026-06-27 17:30:32.890,993.30,993.38,8.51,3.88,0.00,2.32,-0.26,9.40,0.00,-0.01,-0.00,0
2026-06-27 17:30:32.900,993.30,993.38,8.51,3.88,0.00,2.31,-0.26,9.39,-0.00,-0.00,-0.00,0
2026-06-27 17:30:32.910,993.30,993.38,8.51,3.88,0.00,2.31,-0.26,9.39,-0.00,-0.00,-0.00,0
2026-06-27 17:30:32.920,993.30,993.38,8.51,3.88,0.00,2.29,-0.27,9.38,0.00,0.00,-0.00,0
2026-06-27 17:30:32.930,993.30,993.38,8.51,3.88,0.00,2.31,-0.29,9.37,0.00,0.00,-0.00,0
2026-06-27 17:30:32.940,993.30,993.38,8.51,3.88,0.00,2.32,-0.27,9.39,-0.00,-0.00,-0.00,0
2026-06-27 17:30:32.950,993.30,993.38,8.51,3.88,0.00,2.32,-0.27,9.39,-0.00,-0.00,-0.00,0
2026-06-27 17:30:32.960,993.30,993.38,8.51,3.88,0.00,2.31,-0.29,9.41,0.00,0.00,-0.00,0
2026-06-27 17:30:32.970,993.30,993.38,8.51,3.88,0.00,2.30,-0.29,9.39,-0.00,-0.00,0.00,0
2026-06-27 17:30:32.980,993.30,993.39,8.82,3.95,0.00,2.30,-0.27,9.38,0.00,0.00,0.00,0
2026-06-27 17:30:32.990,993.30,993.39,8.82,3.95,0.00,2.30,-0.27,9.38,0.00,0.00,0.00,0
2026-06-27 17:30:33.000,993.30,993.39,8.82,3.95,0.00,2.31,-0.27,9.38,0.00,-0.00,-0.00,0
2026-06-27 17:30:33.010,993.30,993.39,8.82,3.95,0.00,2.31,-0.27,9.40,-0.00,-0.00,-0.00,0
2026-06-27 17:30:33.020,993.30,993.39,8.82,3.95,0.00,2.33,-0.28,9.39,0.00,-0.00,0.00,0
2026-06-27 17:30:33.030,993.30,993.39,8.82,3.95,0.00,2.33,-0.28,9.39,0.00,-0.00,0.00,0
2026-06-27 17:30:33.040,993.30,993.39,8.82,3.95,0.00,2.32,-0.27,9.40,0.00,0.00,0.00,0
2026-06-27 17:30:33.050,993.30,993.39,8.82,3.95,0.00,2.30,-0.28,9.39,0.00,-0.00,0.00,0
2026-06-27 17:30:33.060,993.30,993.39,8.82,3.95,0.00,2.32,-0.24,9.40,-0.00,0.00,0.00,0
2026-06-27 17:30:33.070,993.30,993.39,8.82,3.95,0.00,2.32,-0.24,9.40,-0.00,0.00,0.00,0
2026-06-27 17:30:33.080,993.30,993.39,8.82,3.95,0.00,2.30,-0.29,9.41,0.00,-0.00,0.00,0
2026-06-27 17:30:33.090,993.30,993.39,8.82,3.95,0.00,2.33,-0.29,9.41,0.00,-0.00,0.00,0
2026-06-27 17:30:33.100,993.30,993.39,8.82,3.95,0.00,2.29,-0.29,9.40,0.00,0.00,-0.00,0
2026-06-27 17:30:33.110,993.30,993.39,8.82,3.95,0.00,2.29,-0.30,9.38,0.00,-0.00,-0.00,0
2026-06-27 17:30:33.120,993.30,993.39,8.82,3.95,0.00,2.29,-0.30,9.38,0.00,-0.00,-0.00,0
2026-06-27 17:30:33.130,993.30,993.39,8.82,3.95,0.00,2.31,-0.29,9.40,0.00,0.00,0.00,0
2026-06-27 17:30:33.140,993.31,993.37,6.03,3.26,0.00,2.28,-0.26,9.41,0.00,-0.00,0.00,0
2026-06-27 17:30:33.150,993.31,993.37,6.03,3.26,0.00,2.32,-0.28,9.40,0.00,0.00,0.00,0
2026-06-27 17:30:33.160,993.31,993.37,6.03,3.26,0.00,2.32,-0.28,9.40,0.00,0.00,0.00,0
2026-06-27 17:30:33.170,993.31,993.37,6.03,3.26,0.00,2.31,-0.28,9.42,0.00,-0.00,-0.00,0
2026-06-27 17:30:33.180,993.31,993.37,6.03,3.26,0.00,2.31,-0.30,9.39,-0.00,-0.00,0.00,0
2026-06-27 17:30:33.190,993.31,993.37,6.03,3.26,0.00,2.32,-0.25,9.40,-0.00,0.00,-0.00,0
2026-06-27 17:30:33.200,993.31,993.37,6.03,3.26,0.00,2.32,-0.25,9.40,-0.00,0.00,-0.00,0
2026-06-27 17:30:33.210,993.31,993.37,6.03,3.26,0.00,2.31,-0.28,9.40,-0.00,-0.00,0.00,0
2026-06-27 17:30:33.220,993.31,993.37,6.03,3.26,0.00,2.30,-0.26,9.40,0.00,-0.00,0.00,0
2026-06-27 17:30:33.230,993.31,993.37,6.03,3.26,0.00,2.30,-0.29,9.42,0.00,0.00,-0.00,0
2026-06-27 17:30:33.240,993.31,993.37,6.03,3.26,0.00,2.30,-0.29,9.42,0.00,0.00,-0.00,0
2026-06-27 17:30:33.250,993.31,993.37,6.03,3.26,0.00,2.30,-0.26,9.39,-0.00,-0.00,-0.00,0
2026-06-27 17:30:33.260,993.31,993.37,6.03,3.26,0.00,2.31,-0.26,9.39,-0.00,-0.00,0.00,0
2026-06-27 17:30:33.270,993.31,993.37,6.03,3.26,0.00,2.31,-0.26,9.39,-0.00,-0.00,0.00,0
2026-06-27 17:30:33.280,993.31,993.37,6.03,3.26,0.00,2.30,-0.30,9.40,0.00,-0.00,0.00,0
2026-06-27 17:30:33.290,993.31,993.37,6.03,3.26,0.00,2.32,-0.29,9.39,0.00,0.00,-0.00,0
2026-06-27 17:30:33.300,993.31,993.37,6.03,3.26,0.00,2.31,-0.27,9.39,0.00,-0.00,0.00,0
2026-06-27 17:30:33.310,993.30,993.37,7.02,3.52,0.00,2.31,-0.27,9.39,0.00,-0.00,0.00,0
2026-06-27 17:30:33.320,993.30,993.37,7.02,3.52,0.00,2.31,-0.26,9.38,-0.00,-0.00,-0.00,0
2026-06-27 17:30:33.330,993.30,993.37,7.02,3.52,0.00,2.31,-0.28,9.40,-0.00,-0.00,-0.00,0
2026-06-27 17:30:33.340,993.30,993.37,7.02,3.52,0.00,2.30,-0.29,9.42,-0.00,0.00,-0.00,0
2026-06-27 17:30:33.350,993.30,993.37,7.02,3.52,0.00,2.31,-0.28,9.41,0.00,-0.00,-0.00,0
2026-06-27 17:30:33.360,993.30,993.37,7.02,3.52,0.00,2.31,-0.28,9.41,0.00,-0.00,-0.00,0
2026-06-27 17:30:33.370,993.30,993.37,7.02,3.52,0.00,2.31,-0.24,9.40,0.00,0.00,0.00,0
2026-06-27 17:30:33.380,993.30,993.37,7.02,3.52,0.00,2.30,-0.26,9.41,0.00,0.00,-0.00,0
2026-06-27 17:30:33.390,993.30,993.37,7.02,3.52,0.00,2.30,-0.26,9.41,0.00,0.00,-0.00,0
2026-06-27 17:30:33.400,993.30,993.37,7.02,3.52,0.00,2.33,-0.26,9.39,0.00,0.00,0.00,0
2026-06-27 17:30:33.410,993.30,993.37,7.02,3.52,0.00,2.31,-0.27,9.40,-0.00,0.00,-0.00,0
2026-06-27 17:30:33.420,993.30,993.37,7.02,3.52,0.00,2.32,-0.27,9.41,-0.00,-0.00,0.00,0
2026-06-27 17:30:33.430,993.30,993.37,7.02,3.52,0.00,2.29,-0.27,9.40,0.00,-0.00,0.00,0
2026-06-27 17:30:33.440,993.30,993.37,7.02,3.52,0.00,2.29,-0.27,9.40,0.00,-0.00,0.00,0
2026-06-27 17:30:33.450,993.30,993.37,7.02,3.52,0.00,2.29,-0.27,9.41,-0.00,-0.00,0.00,0
2026-06-27 17:30:33.460,993.30,993.37,7.02,3.52,0.00,2.31,-0.28,9.39,-0.00,-0.00,-0.00,0
2026-06-27 17:30:33.470,993.31,993.37,6.32,3.34,0.00,2.31,-0.28,9.40,-0.00,-0.00,-0.00,0
2026-06-27 17:30:33.480,993.31,993.37,6.32,3.34,0.00,2.31,-0.28,9.40,-0.00,-0.00,-0.00,0
2026-06-27 17:30:33.490,993.31,993.37,6.32,3.34,0.00,2.30,-0.29,9.38,0.00,-0.00,-0.00,0
2026-06-27 17:30:33.500,993.31,993.37,6.32,3.34,0.00,2.31,-0.27,9.41,-0.00,0.00,-0.00,0
2026-06-27 17:30:33.510,993.31,993.37,6.32,3.34,0.00,2.31,-0.28,9.39,-0.00,-0.00,-0.00,0
2026-06-27 17:30:33.520,993.31,993.37,6.32,3.34,0.00,2.31,-0.28,9.39,-0.00,-0.00,-0.00,0
2026-06-27 17:30:33.530,993.31,993.37,6.32,3.34,0.00,2.31,-0.26,9.39,0.00,-0.00,0.00,0
2026-06-27 17:30:33.540,993.31,993.37,6.32,3.34,0.00,2.29,-0.27,9.41,-0.00,0.00,0.00,0
2026-06-27 17:30:33.550,993.31,993.37,6.32,3.34,0.00,2.32,-0.28,9.40,0.00,0.00,0.00,0
2026-06-27 17:30:33.560,993.31,993.37,6.32,3.34,0.00,2.32,-0.28,9.40,0.00,0.00,0.00,0
2026-06-27 17:30:33.570,993.31,993.37,6.32,3.34,0.00,2.29,-0.27,9.40,0.00,0.00,0.00,0
2026-06-27 17:30:33.580,993.31,993.37,6.32,3.34,0.00,2.31,-0.26,9.40,0.00,0.00,0.00,0
2026-06-27 17:30:33.590,993.31,993.37,6.32,3.34,0.00,2.31,-0.28,9.43,0.00,0.00,0.00,0
2026-06-27 17:30:33.600,993.31,993.37,6.32,3.34,0.00,2.30,-0.26,9.40,0.00,0.00,0.00,0
2026-06-27 17:30:33.610,993.31,993.37,6.32,3.34,0.00,2.30,-0.26,9.40,0.00,0.00,0.00,0
2026-06-27 17:30:33.620,993.31,993.37,6.32,3.34,0.00,2.29,-0.30,9.41,0.00,0.00,0.00,0
2026-06-27 17:30:33.630,993.31,993.37,6.32,3.34,0.00,2.31,-0.29,9.43,-0.00,0.00,-0.00,0
2026-06-27 17:30:33.640,993.30,993.36,6.94,3.50,0.00,2.31,-0.29,9.43,-0.00,0.00,-0.00,0
2026-06-27 17:30:33.650,993.30,993.36,6.94,3.50,0.00,2.31,-0.29,9.39,0.00,0.00,0.00,0
2026-06-27 17:30:33.660,993.30,993.36,6.94,3.50,0.00,2.30,-0.28,9.39,-0.00,-0.00,-0.00,0
2026-06-27 17:30:33.670,993.30,993.36,6.94,3.50,0.00,2.30,-0.28,9.39,-0.00,-0.00,-0.00,0
2026-06-27 17:30:33.680,993.30,993.36,6.94,3.50,0.00,2.30,-0.28,9.40,-0.00,0.00,-0.00,0
2026-06-27 17:30:33.690,993.30,993.36,6.94,3.50,0.00,2.32,-0.28,9.39,0.00,0.00,0.00,0
2026-06-27 17:30:33.700,993.30,993.36,6.94,3.50,0.00,2.32,-0.28,9.40,0.00,0.00,0.00,0
2026-06-27 17:30:33.710,993.30,993.36,6.94,3.50,0.00,2.31,-0.26,9.41,0.00,0.00,0.00,0
2026-06-27 17:30:33.720,993.30,993.36,6.94,3.50,0.00,2.31,-0.26,9.41,0.00,0.00,0.00,0
2026-06-27 17:30:33.730,993.30,993.36,6.94,3.50,0.00,2.31,-0.28,9.39,0.00,0.00,0.00,0
2026-06-27 17:30:33.740,993.30,993.36,6.94,3.50,0.00,2.32,-0.29,9.38,0.00,0.00,0.00,0
2026-06-27 17:30:33.750,993.30,993.36,6.94,3.50,0.00,2.29,-0.26,9.42,0.00,-0.00,0.00,0
2026-06-27 17:30:33.760,993.30,993.36,6.94,3.50,0.00,2.29,-0.26,9.42,0.00,-0.00,0.00,0
2026-06-27 17:30:33.770,993.30,993.36,6.94,3.50,0.00,2.31,-0.26,9.42,-0.00,-0.00,-0.00,0
2026-06-27 17:30:33.780,993.30,993.36,6.94,3.50,0.00,2.30,-0.28,9.40,-0.00,0.00,0.00,0
2026-06-27 17:30:33.790,993.30,993.36,6.94,3.50,0.00,2.32,-0.26,9.41,0.00,-0.00,0.00,0
2026-06-27 17:30:33.800,993.30,993.36,6.94,3.50,0.00,2.32,-0.26,9.41,0.00,-0.00,0.00,0
2026-06-27 17:30:33.810,993.30,993.38,8.13,3.79,0.00,2.30,-0.26,9.41,0.00,-0.00,0.00,0
2026-06-27 17:30:33.820,993.30,993.38,8.13,3.79,0.00,2.32,-0.28,9.39,-0.00,0.00,-0.00,0
2026-06-27 17:30:33.830,993.30,993.38,8.13,3.79,0.00,2.32,-0.28,9.40,-0.00,0.00,0.00,0
2026-06-27 17:30:33.840,993.30,993.38,8.13,3.79,0.00,2.32,-0.28,9.40,-0.00,0.00,0.00,0
2026-06-27 17:30:33.850,993.30,993.38,8.13,3.79,0.00,2.29,-0.27,9.40,0.00,-0.00,0.00,0
2026-06-27 17:30:33.860,993.30,993.38,8.13,3.79,0.00,2.28,-0.28,9.39,0.00,0.00,0.00,0
2026-06-27 17:30:33.870,993.30,993.38,8.13,3.79,0.00,2.29,-0.27,9.41,0.00,0.00,-0.00,0
2026-06-27 17:30:33.880,993.30,993.38,8.13,3.79,0.00,2.29,-0.27,9.41,0.00,0.00,-0.00,0
2026-06-27 17:30:33.890,993.30,993.38,8.13,3.79,0.00,2.34,-0.27,9.38,0.00,0.00,0.00,0
2026-06-27 17:30:33.900,993.30,993.38,8.13,3.79,0.00,2.30,-0.27,9.39,-0.00,-0.00,0.00,0
2026-06-27 17:30:33.910,993.30,993.38,8.13,3.79,0.00,2.29,-0.26,9.40,0.00,-0.00,-0.00,0
2026-06-27 17:30:33.920,993.30,993.38,8.13,3.79,0.00,2.29,-0.26,9.40,0.00,-0.00,-0.00,0
2026-06-27 17:30:33.930,993.30,993.38,8.13,3.79,0.00,2.31,-0.28,9.40,0.00,-0.00,-0.00,0
2026-06-27 17:30:33.940,993.30,993.38,8.13,3.79,0.00,2.31,-0.28,9.39,0.00,-0.00,0.00,0
2026-06-27 17:30:33.950,993.30,993.38,8.13,3.79,0.00,2.31,-0.28,9.39,0.00,-0.00,0.00,0
2026-06-27 17:30:33.960,993.30,993.38,8.13,3.79,0.00,2.32,-0.29,9.43,0.00,-0.00,0.00,0
2026-06-27 17:30:33.970,993.31,993.39,8.12,3.79,0.00,2.28,-0.26,9.39,-0.00,-0.00,-0.00,0
2026-06-27 17:30:33.980,993.31,993.39,8.12,3.79,0.00,2.28,-0.26,9.39,-0.00,-0.00,-0.00,0
2026-06-27 17:30:33.990,993.31,993.39,8.12,3.79,0.00,2.32,-0.29,9.40,0.00,0.00,-0.00,0
2026-06-27 17:30:34.000,993.31,993.39,8.12,3.79,0.00,2.30,-0.29,9.41,-0.00,-0.00,-0.00,0
2026-06-27 17:30:34.010,993.31,993.39,8.12,3.79,0.00,2.30,-0.29,9.41,-0.00,-0.00,-0.00,0
2026-06-27 17:30:34.020,993.31,993.39,8.12,3.79,0.00,2.32,-0.27,9.41,-0.00,-0.00,0.00,0
2026-06-27 17:30:34.030,993.31,993.39,8.12,3.79,0.00,2.31,-0.26,9.42,-0.00,0.00,0.00,0
2026-06-27 17:30:34.040,993.31,993.39,8.12,3.79,0.00,2.31,-0.27,9.43,0.00,0.00,0.00,0
2026-06-27 17:30:34.050,993.31,993.39,8.12,3.79,0.00,2.32,-0.26,9.39,0.00,0.00,-0.00,0
2026-06-27 17:30:34.060,993.31,993.39,8.12,3.79,0.00,2.32,-0.26,9.39,0.00,0.00,-0.00,0
2026-06-27 17:30:34.070,993.31,993.39,8.12,3.79,0.00,2.32,-0.28,9.39,0.00,0.00,-0.00,0
2026-06-27 17:30:34.080,993.31,993.39,8.12,3.79,0.00,2.31,-0.29,9.38,-0.00,0.00,-0.00,0
2026-06-27 17:30:34.090,993.31,993.39,8.12,3.79,0.00,2.29,-0.29,9.39,-0.00,-0.00,0.00,0
2026-06-27 17:30:34.100,993.31,993.39,8.12,3.79,0.00,2.29,-0.29,9.39,-0.00,-0.00,0.00,0
2026-06-27 17:30:34.110,993.31,993.39,8.12,3.79,0.00,2.30,-0.28,9.40,0.00,0.00,-0.00,0
2026-06-27 17:30:34.120,993.31,993.39,8.12,3.79,0.00,2.32,-0.27,9.41,0.00,0.00,0.00,0
2026-06-27 17:30:34.130,993.31,993.39,8.12,3.79,0.00,2.32,-0.27,9.41,0.00,0.00,0.00,0
2026-06-27 17:30:34.140,993.30,993.36,6.00,3.26,0.00,2.30,-0.29,9.39,0.00,-0.00,-0.00,0
2026-06-27 17:30:34.150,993.30,993.36,6.00,3.26,0.00,2.30,-0.28,9.43,0.00,-0.00,-0.00,0
2026-06-27 17:30:34.160,993.30,993.36,6.00,3.26,0.00,2.28,-0.26,9.40,0.00,0.00,0.00,0
2026-06-27 17:30:34.170,993.30,993.36,6.00,3.26,0.00,2.28,-0.26,9.40,0.00,0.00,0.00,0
2026-06-27 17:30:34.180,993.30,993.36,6.00,3.26,0.00,2.32,-0.27,9.39,0.00,-0.00,-0.00,0
2026-06-27 17:30:34.190,993.30,993.36,6.00,3.26,0.00,2.31,-0.26,9.38,0.00,-0.00,-0.00,0
2026-06-27 17:30:34.200,993.30,993.36,6.00,3.26,0.00,2.31,-0.28,9.39,0.00,0.01,0.00,0
2026-06-27 17:30:34.210,993.30,993.36,6.00,3.26,0.00,2.31,-0.28,9.39,0.00,0.01,0.00,0
2026-06-27 17:30:34.220,993.30,993.36,6.00,3.26,0.00,2.31,-0.28,9.41,0.00,-0.00,0.00,0
2026-06-27 17:30:34.230,993.30,993.36,6.00,3.26,0.00,2.32,-0.28,9.40,0.00,-0.00,-0.00,0
2026-06-27 17:30:34.240,993.30,993.36,6.00,3.26,0.00,2.32,-0.28,9.40,0.00,-0.00,-0.00,0
2026-06-27 17:30:34.250,993.30,993.36,6.00,3.26,0.00,2.31,-0.27,9.42,0.00,0.00,-0.00,0
2026-06-27 17:30:34.260,993.30,993.36,6.00,3.26,0.00,2.31,-0.30,9.40,-0.00,0.00,0.00,0
2026-06-27 17:30:34.270,993.30,993.36,6.00,3.26,0.00,2.32,-0.24,9.40,0.00,0.00,0.00,0
2026-06-27 17:30:34.280,993.30,993.36,6.00,3.26,0.00,2.32,-0.24,9.40,0.00,0.00,0.00,0
2026-06-27 17:30:34.290,993.30,993.36,6.00,3.26,0.00,2.30,-0.27,9.41,0.00,-0.00,-0.00,0
2026-06-27 17:30:34.300,993.31,993.38,7.33,3.60,0.00,2.32,-0.27,9.37,-0.00,-0.00,-0.00,0
2026-06-27 17:30:34.310,993.31,993.38,7.33,3.60,0.00,2.31,-0.29,9.42,0.00,0.00,-0.00,0
2026-06-27 17:30:34.320,993.31,993.38,7.33,3.60,0.00,2.31,-0.29,9.42,0.00,0.00,-0.00,0
2026-06-27 17:30:34.330,993.31,993.38,7.33,3.60,0.00,2.32,-0.28,9.40,0.00,-0.00,-0.00,0
2026-06-27 17:30:34.340,993.31,993.38,7.33,3.60,0.00,2.30,-0.29,9.41,-0.00,0.00,-0.00,0
2026-06-27 17:30:34.350,993.31,993.38,7.33,3.60,0.00,2.29,-0.28,9.40,0.00,-0.00,-0.00,0
2026-06-27 17:30:34.360,993.31,993.38,7.33,3.60,0.00,2.29,-0.28,9.40,0.00,-0.00,-0.00,0
2026-06-27 17:30:34.370,993.31,993.38,7.33,3.60,0.00,2.30,-0.27,9.39,0.00,0.00,0.00,0
2026-06-27 17:30:34.380,993.31,993.38,7.33,3.60,0.00,2.29,-0.28,9.42,0.00,0.00,0.00,0
2026-06-27 17:30:34.390,993.31,993.38,7.33,3.60,0.00,2.29,-0.28,9.42,0.00,0.00,0.00,0
2026-06-27 17:30:34.400,993.31,993.38,7.33,3.60,0.00,2.29,-0.30,9.43,-0.00,-0.00,-0.00,0
2026-06-27 17:30:34.410,993.31,993.38,7.33,3.60,0.00,2.30,-0.28,9.40,-0.00,-0.00,0.00,0
2026-06-27 17:30:34.420,993.31,993.38,7.33,3.60,0.00,2.30,-0.25,9.40,-0.00,-0.00,0.00,0
2026-06-27 17:30:34.430,993.31,993.38,7.33,3.60,0.00,2.30,-0.25,9.40,-0.00,-0.00,0.00,0
2026-06-27 17:30:34.440,993.31,993.38,7.33,3.60,0.00,2.32,-0.27,9.40,0.00,0.00,0.00,0
2026-06-27 17:30:34.450,993.31,993.38,7.33,3.60,0.00,2.33,-0.26,9.39,-0.00,0.00,0.00,0
2026-06-27 17:30:34.460,993.31,993.38,7.39,3.61,0.00,2.31,-0.28,9.39,0.00,-0.00,0.00,0
2026-06-27 17:30:34.470,993.31,993.38,7.02,3.52,0.00,2.31,-0.28,9.39,0.00,-0.00,0.00,0
2026-06-27 17:30:34.480,993.31,993.38,7.02,3.52,0.00,2.29,-0.28,9.41,-0.00,-0.00,-0.00,0
2026-06-27 17:30:34.490,993.31,993.38,7.02,3.52,0.00,2.31,-0.27,9.39,0.00,0.00,0.00,0
2026-06-27 17:30:34.500,993.31,993.38,7.02,3.52,0.00,2.30,-0.29,9.40,0.00,0.00,0.00,0
2026-06-27 17:30:34.510,993.31,993.38,7.02,3.52,0.00,2.30,-0.29,9.40,0.00,0.00,0.00,0
2026-06-27 17:30:34.520,993.31,993.38,7.02,3.52,0.00,2.30,-0.26,9.39,0.00,0.00,0.00,0
2026-06-27 17:30:34.530,993.31,993.38,7.02,3.52,0.00,2.29,-0.30,9.39,-0.00,0.00,-0.00,0
2026-06-27 17:30:34.540,993.31,993.38,7.02,3.52,0.00,2.31,-0.25,9.41,0.00,0.00,-0.00,0
2026-06-27 17:30:34.550,993.31,993.38,7.02,3.52,0.00,2.31,-0.25,9.41,0.00,0.00,-0.00,0
2026-06-27 17:30:34.560,993.31,993.38,7.02,3.52,0.00,2.32,-0.28,9.41,0.00,0.00,0.00,0
2026-06-27 17:30:34.570,993.31,993.38,7.02,3.52,0.00,2.32,-0.27,9.43,0.00,0.00,-0.00,0
2026-06-27 17:30:34.580,993.31,993.38,7.02,3.52,0.00,2.30,-0.27,9.41,0.00,-0.00,0.00,0
2026-06-27 17:30:34.590,993.31,993.38,7.02,3.52,0.00,2.30,-0.27,9.41,0.00,-0.00,0.00,0
2026-06-27 17:30:34.600,993.31,993.38,7.02,3.52,0.00,2.31,-0.27,9.41,0.00,0.00,0.00,0
2026-06-27 17:30:34.610,993.31,993.38,7.02,3.52,0.00,2.30,-0.26,9.39,0.00,-0.00,-0.00,0
2026-06-27 17:30:34.620,993.31,993.38,7.02,3.52,0.00,2.32,-0.27,9.43,0.00,-0.00,-0.00,0
2026-06-27 17:30:34.630,993.31,993.39,8.02,3.76,0.00,2.32,-0.27,9.43,0.00,-0.00,-0.00,0
2026-06-27 17:30:34.640,993.31,993.39,8.02,3.76,0.00,2.32,-0.26,9.40,0.00,0.00,0.00,0
2026-06-27 17:30:34.650,993.31,993.39,8.02,3.76,0.00,2.29,-0.29,9.40,-0.00,0.00,0.00,0
2026-06-27 17:30:34.660,993.31,993.39,8.02,3.76,0.00,2.29,-0.25,9.39,-0.00,0.00,-0.00,0
2026-06-27 17:30:34.670,993.31,993.39,8.02,3.76,0.00,2.29,-0.25,9.39,-0.00,0.00,-0.00,0
2026-06-27 17:30:34.680,993.31,993.39,8.02,3.76,0.00,2.30,-0.26,9.39,0.00,0.00,0.00,0
2026-06-27 17:30:34.690,993.31,993.39,8.02,3.76,0.00,2.31,-0.27,9.40,-0.00,0.00,0.00,0
2026-06-27 17:30:34.700,993.31,993.39,8.02,3.76,0.00,2.31,-0.27,9.40,-0.00,0.00,0.00,0
2026-06-27 17:30:34.710,993.31,993.39,8.02,3.76,0.00,2.29,-0.27,9.41,-0.00,-0.00,-0.00,0
2026-06-27 17:30:34.720,993.31,993.39,8.02,3.76,0.00,2.32,-0.28,9.40,0.00,0.00,0.00,0
2026-06-27 17:30:34.730,993.31,993.39,8.02,3.76,0.00,2.32,-0.28,9.40,0.00,0.00,0.00,0
2026-06-27 17:30:34.740,993.31,993.39,8.02,3.76,0.00,2.31,-0.27,9.38,-0.00,0.01,0.00,0
2026-06-27 17:30:34.750,993.31,993.39,8.02,3.76,0.00,2.31,-0.28,9.40,0.00,0.00,0.00,0
2026-06-27 17:30:34.760,993.31,993.39,8.02,3.76,0.00,2.31,-0.28,9.40,0.00,0.00,0.00,0
2026-06-27 17:30:34.770,993.31,993.39,8.02,3.76,0.00,2.30,-0.27,9.42,0.00,-0.00,0.00,0
2026-06-27 17:30:34.780,993.31,993.39,8.02,3.76,0.00,2.29,-0.28,9.36,0.00,-0.00,-0.00,0
2026-06-27 17:30:34.790,993.30,993.37,7.39,3.61,0.00,2.30,-0.28,9.40,0.00,-0.00,0.00,0
2026-06-27 17:30:34.800,993.30,993.37,7.39,3.61,0.00,2.30,-0.28,9.40,0.00,-0.00,0.00,0
2026-06-27 17:30:34.810,993.30,993.37,7.39,3.61,0.00,2.31,-0.27,9.40,0.00,-0.00,-0.00,0
2026-06-27 17:30:34.820,993.30,993.37,7.39,3.61,0.00,2.32,-0.26,9.40,0.00,0.00,0.00,0
2026-06-27 17:30:34.830,993.30,993.37,7.39,3.61,0.00,2.32,-0.27,9.40,-0.00,-0.00,0.00,0
2026-06-27 17:30:34.840,993.30,993.37,7.39,3.61,0.00,2.31,-0.27,9.42,-0.00,0.00,-0.00,0
2026-06-27 17:30:34.850,993.30,993.37,7.39,3.61,0.00,2.31,-0.27,9.42,-0.00,0.00,-0.00,0
2026-06-27 17:30:34.860,993.30,993.37,7.39,3.61,0.00,2.30,-0.27,9.41,0.00,0.00,-0.00,0
2026-06-27 17:30:34.870,993.30,993.37,7.39,3.61,0.00,2.31,-0.26,9.41,-0.00,-0.00,0.00,0
2026-06-27 17:30:34.880,993.30,993.37,7.39,3.61,0.00,2.31,-0.26,9.41,-0.00,-0.00,0.00,0
2026-06-27 17:30:34.890,993.30,993.37,7.39,3.61,0.00,2.30,-0.26,9.39,-0.00,0.00,-0.00,0
2026-06-27 17:30:34.900,993.30,993.37,7.39,3.61,0.00,2.31,-0.26,9.40,0.00,-0.00,-0.00,0
2026-06-27 17:30:34.910,993.30,993.37,7.39,3.61,0.00,2.31,-0.26,9.40,0.00,-0.00,-0.00,0
2026-06-27 17:30:34.920,993.30,993.37,7.39,3.61,0.00,2.29,-0.32,9.40,0.00,0.00,-0.00,0
2026-06-27 17:30:34.930,993.30,993.37,7.39,3.61,0.00,2.30,-0.27,9.39,-0.00,0.00,0.00,0
2026-06-27 17:30:34.940,993.30,993.37,7.39,3.61,0.00,2.31,-0.26,9.39,0.00,0.00,0.00,0
2026-06-27 17:30:34.950,993.30,993.37,7.39,3.61,0.00,2.31,-0.26,9.39,0.00,0.00,0.00,0
2026-06-27 17:30:34.960,993.32,993.37,5.34,3.07,0.00,2.31,-0.27,9.41,-0.00,0.00,0.00,0
2026-06-27 17:30:34.970,993.32,993.37,5.34,3.07,0.00,2.31,-0.28,9.40,0.00,-0.00,0.00,0
2026-06-27 17:30:34.980,993.32,993.37,5.34,3.07,0.00,2.30,-0.27,9.43,-0.00,-0.00,-0.00,0
2026-06-27 17:30:34.990,993.32,993.37,5.34,3.07,0.00,2.30,-0.27,9.43,-0.00,-0.00,-0.00,0
2026-06-27 17:30:35.000,993.32,993.37,5.34,3.07,0.00,2.30,-0.27,9.40,0.00,-0.00,-0.00,0
2026-06-27 17:30:35.010,993.32,993.37,5.34,3.07,0.00,2.31,-0.28,9.43,0.00,-0.00,-0.00,0
2026-06-27 17:30:35.020,993.32,993.37,5.34,3.07,0.00,2.31,-0.28,9.43,0.00,-0.00,-0.00,0
2026-06-27 17:30:35.030,993.32,993.37,5.34,3.07,0.00,2.31,-0.28,9.37,0.00,0.00,-0.00,0
2026-06-27 17:30:35.040,993.32,993.37,5.34,3.07,0.00,2.30,-0.26,9.39,0.00,0.00,0.00,0
2026-06-27 17:30:35.050,993.32,993.37,5.34,3.07,0.00,2.30,-0.25,9.38,0.00,0.00,-0.00,0
2026-06-27 17:30:35.060,993.32,993.37,5.34,3.07,0.00,2.30,-0.25,9.38,0.00,0.00,-0.00,0
2026-06-27 17:30:35.070,993.32,993.37,5.34,3.07,0.00,2.32,-0.27,9.41,0.00,0.00,-0.00,0
2026-06-27 17:30:35.080,993.32,993.37,5.34,3.07,0.00,2.29,-0.26,9.39,0.00,0.00,-0.00,0
2026-06-27 17:30:35.090,993.32,993.37,5.34,3.07,0.00,2.30,-0.29,9.40,-0.00,0.00,-0.00,0
2026-06-27 17:30:35.100,993.32,993.37,5.34,3.07,0.00,2.30,-0.29,9.40,-0.00,0.00,-0.00,0
2026-06-27 17:30:35.110,993.32,993.37,5.34,3.07,0.00,2.31,-0.28,9.39,0.00,0.00,-0.00,0
2026-06-27 17:30:35.120,993.32,993.39,7.24,3.58,0.00,2.31,-0.28,9.39,0.00,-0.00,0.00,0
2026-06-27 17:30:35.130,993.30,993.39,8.68,3.92,0.00,2.31,-0.27,9.41,-0.00,0.00,-0.00,0
2026-06-27 17:30:35.140,993.30,993.39,8.68,3.92,0.00,2.31,-0.27,9.41,-0.00,0.00,-0.00,0
2026-06-27 17:30:35.150,993.30,993.39,8.68,3.92,0.00,2.30,-0.28,9.39,-0.00,0.00,-0.00,0
2026-06-27 17:30:35.160,993.30,993.39,8.68,3.92,0.00,2.30,-0.28,9.39,-0.00,0.00,0.00,0
2026-06-27 17:30:35.170,993.30,993.39,8.68,3.92,0.00,2.30,-0.28,9.39,-0.00,0.00,0.00,0
2026-06-27 17:30:35.180,993.30,993.39,8.68,3.92,0.00,2.30,-0.27,9.40,-0.00,0.00,0.00,0
2026-06-27 17:30:35.190,993.30,993.39,8.68,3.92,0.00,2.31,-0.26,9.42,0.00,-0.00,0.00,0
2026-06-27 17:30:35.200,993.30,993.39,8.68,3.92,0.00,2.30,-0.25,9.41,-0.00,-0.00,-0.00,0
2026-06-27 17:30:35.210,993.30,993.39,8.68,3.92,0.00,2.31,-0.27,9.40,0.00,0.00,0.00,0
2026-06-27 17:30:35.220,993.30,993.39,8.68,3.92,0.00,2.31,-0.27,9.40,0.00,0.00,0.00,0
2026-06-27 17:30:35.230,993.30,993.39,8.68,3.92,0.00,2.31,-0.30,9.39,0.00,0.00,0.00,0
2026-06-27 17:30:35.240,993.30,993.39,8.68,3.92,0.00,2.28,-0.27,9.39,-0.00,0.00,0.00,0
2026-06-27 17:30:35.250,993.30,993.39,8.68,3.92,0.00,2.30,-0.27,9.39,0.00,0.00,0.00,0
2026-06-27 17:30:35.260,993.30,993.39,8.68,3.92,0.00,2.30,-0.27,9.39,0.00,0.00,0.00,0
2026-06-27 17:30:35.270,993.30,993.39,8.68,3.92,0.00,2.31,-0.30,9.40,-0.00,0.00,0.00,0
2026-06-27 17:30:35.280,993.30,993.38,7.79,3.71,0.00,2.29,-0.28,9.39,-0.00,0.00,0.00,0
2026-06-27 17:30:35.290,993.29,993.38,8.62,3.90,0.00,2.29,-0.27,9.40,-0.00,-0.00,-0.00,0
2026-06-27 17:30:35.300,993.29,993.38,8.62,3.90,0.00,2.29,-0.27,9.40,-0.00,-0.00,-0.00,0
2026-06-27 17:30:35.310,993.29,993.38,8.62,3.90,0.00,2.30,-0.28,9.43,-0.00,0.00,0.00,0
2026-06-27 17:30:35.320,993.29,993.38,8.62,3.90,0.00,2.31,-0.27,9.39,-0.00,-0.00,-0.00,0
2026-06-27 17:30:35.330,993.29,993.38,8.62,3.90,0.00,2.31,-0.27,9.39,-0.00,-0.00,-0.00,0
2026-06-27 17:30:35.340,993.29,993.38,8.62,3.90,0.00,2.32,-0.28,9.41,0.00,0.00,0.00,0
2026-06-27 17:30:35.350,993.29,993.38,8.62,3.90,0.00,2.30,-0.26,9.42,0.00,0.00,0.00,0
2026-06-27 17:30:35.360,993.29,993.38,8.62,3.90,0.00,2.30,-0.26,9.42,0.00,0.00,0.00,0
2026-06-27 17:30:35.370,993.29,993.38,8.62,3.90,0.00,2.32,-0.28,9.39,-0.00,-0.00,-0.00,0
2026-06-27 17:30:35.380,993.29,993.38,8.62,3.90,0.00,2.32,-0.31,9.39,0.00,-0.00,0.00,0
2026-06-27 17:30:35.390,993.29,993.38,8.62,3.90,0.00,2.31,-0.25,9.39,-0.00,0.00,-0.00,0
2026-06-27 17:30:35.400,993.29,993.38,8.62,3.90,0.00,2.31,-0.25,9.39,-0.00,0.00,-0.00,0
2026-06-27 17:30:35.410,993.29,993.38,8.62,3.90,0.00,2.32,-0.27,9.39,-0.00,0.00,0.00,0
2026-06-27 17:30:35.420,993.29,993.38,8.62,3.90,0.00,2.30,-0.28,9.41,-0.00,-0.00,0.00,0
2026-06-27 17:30:35.430,993.29,993.38,8.62,3.90,0.00,2.30,-0.31,9.39,-0.00,-0.00,0.00,0
2026-06-27 17:30:35.440,993.29,993.38,8.62,3.90,0.00,2.31,-0.28,9.39,-0.00,-0.00,-0.00,0
2026-06-27 17:30:35.450,993.29,993.38,8.62,3.90,0.00,2.31,-0.28,9.39,-0.00,-0.00,-0.00,0
2026-06-27 17:30:35.460,993.30,993.38,8.22,3.81,0.00,2.31,-0.27,9.42,-0.00,-0.00,-0.00,0
2026-06-27 17:30:35.470,993.30,993.38,8.22,3.81,0.00,2.31,-0.27,9.42,-0.00,0.00,-0.00,0
2026-06-27 17:30:35.480,993.30,993.38,8.22,3.81,0.00,2.33,-0.26,9.39,-0.00,0.00,0.00,0
