timestamp,pressure_mpl,pressure_bme,diff_pressure,v_wind_est,speed,accel_x,accel_y,accel_z,gyro_x,gyro_y,gyro_z
2026-06-23 20:04:29.099,0.10,991.50,99140.25,nan,0.00,0.66,0.37,9.29,0.00,-0.00,0.00
2026-06-23 20:04:29.104,0.10,991.50,99140.25,nan,0.00,0.66,0.37,9.29,0.00,-0.00,0.00
2026-06-23 20:04:29.106,0.10,991.50,99140.25,nan,0.00,0.66,0.39,9.28,0.00,0.00,-0.00
2026-06-23 20:04:29.107,0.10,991.50,99140.25,nan,0.00,0.66,0.39,9.28,0.00,0.00,-0.00
2026-06-23 20:04:29.108,0.10,991.50,99140.25,nan,0.00,0.66,0.39,9.28,0.00,0.00,-0.00
2026-06-23 20:04:29.109,0.10,991.50,99140.25,nan,0.00,0.66,0.39,9.28,0.00,0.00,-0.00
2026-06-23 20:04:29.113,0.10,991.50,99140.25,nan,0.00,0.66,0.39,9.28,0.00,0.00,-0.00
2026-06-23 20:04:29.116,0.10,991.50,99140.25,nan,0.00,0.67,0.39,9.29,0.00,-0.00,0.00
2026-06-23 20:04:29.119,0.10,991.50,99140.25,nan,0.00,0.67,0.39,9.29,0.00,-0.00,0.00
2026-06-23 20:04:29.122,0.10,991.50,99140.25,nan,0.00,0.67,0.39,9.29,0.00,-0.00,0.00
2026-06-23 20:04:29.126,0.10,991.50,99140.25,nan,0.00,0.67,0.39,9.29,0.00,-0.00,-0.00
2026-06-23 20:04:29.127,0.10,991.50,99140.25,nan,0.00,0.66,0.38,9.31,0.00,-0.00,-0.00
2026-06-23 20:04:29.129,0.10,991.50,99140.25,nan,0.00,0.66,0.38,9.31,0.00,-0.00,-0.00
2026-06-23 20:04:29.130,0.10,991.50,99140.25,nan,0.00,0.66,0.38,9.31,0.00,-0.00,-0.00
2026-06-23 20:04:29.132,0.10,991.50,99140.25,nan,0.00,0.66,0.38,9.31,0.00,-0.00,-0.00
2026-06-23 20:04:29.135,0.10,991.50,99140.25,nan,0.00,0.66,0.38,9.31,-0.00,0.00,0.00
2026-06-23 20:04:29.137,0.10,991.50,99140.25,nan,0.00,0.65,0.38,9.29,-0.00,0.00,0.00
2026-06-23 20:04:29.138,0.10,991.50,99140.25,nan,0.00,0.65,0.38,9.29,-0.00,0.00,0.00
2026-06-23 20:04:29.139,0.10,991.50,99140.25,nan,0.00,0.65,0.38,9.29,-0.00,0.00,0.00
2026-06-23 20:04:29.141,0.10,991.50,99140.25,nan,0.00,0.65,0.38,9.29,-0.00,0.00,0.00
2026-06-23 20:04:29.145,0.10,991.50,99140.25,nan,0.00,0.65,0.38,9.29,-0.00,0.00,0.00
2026-06-23 20:04:29.147,0.10,991.50,99140.25,nan,0.00,0.66,0.38,9.30,-0.00,0.00,0.00
2026-06-23 20:04:29.148,0.10,991.50,99140.25,nan,0.00,0.66,0.38,9.30,-0.00,0.00,0.00
2026-06-23 20:04:29.150,0.10,991.50,99140.25,nan,0.00,0.66,0.38,9.30,-0.00,0.00,0.00
2026-06-23 20:04:29.155,0.10,991.50,99140.25,nan,0.00,0.66,0.38,9.30,-0.00,0.00,0.00
2026-06-23 20:04:29.156,0.10,991.50,99140.25,nan,0.00,0.66,0.40,9.27,0.00,0.00,-0.00
2026-06-23 20:04:29.157,0.10,991.50,99140.25,nan,0.00,0.66,0.40,9.27,0.00,0.00,-0.00
2026-06-23 20:04:29.159,0.10,991.50,99140.25,nan,0.00,0.66,0.40,9.27,0.00,0.00,-0.00
2026-06-23 20:04:29.160,0.10,991.50,99140.25,nan,0.00,0.66,0.40,9.27,0.00,0.00,-0.00
2026-06-23 20:04:29.163,0.10,991.50,99140.25,nan,0.00,0.66,0.40,9.27,0.00,0.00,-0.00
2026-06-23 20:04:29.166,0.10,991.50,99140.25,nan,0.00,0.66,0.40,9.27,-0.00,-0.00,-0.00
2026-06-23 20:04:29.167,0.10,991.50,99140.25,nan,0.00,0.65,0.38,9.29,-0.00,-0.00,-0.00
2026-06-23 20:04:29.168,0.10,991.50,99140.25,nan,0.00,0.65,0.38,9.29,-0.00,-0.00,-0.00
2026-06-23 20:04:29.169,0.10,991.50,99140.25,nan,0.00,0.65,0.38,9.29,-0.00,-0.00,-0.00
2026-06-23 20:04:29.173,0.10,991.50,99140.25,nan,0.00,0.65,0.38,9.29,-0.00,-0.00,-0.00
2026-06-23 20:04:29.176,0.10,991.50,99140.25,nan,0.00,0.65,0.38,9.29,0.00,-0.00,0.00
2026-06-23 20:04:29.177,0.10,991.50,99140.25,nan,0.00,0.65,0.37,9.32,0.00,-0.00,0.00
2026-06-23 20:04:29.178,0.10,991.50,99140.25,nan,0.00,0.65,0.37,9.32,0.00,-0.00,0.00
2026-06-23 20:04:29.180,0.10,991.50,99140.25,nan,0.00,0.65,0.37,9.32,0.00,-0.00,0.00
2026-06-23 20:04:29.182,0.10,991.50,99140.25,nan,0.00,0.65,0.37,9.32,0.00,-0.00,0.00
2026-06-23 20:04:29.185,0.10,991.50,99140.25,nan,0.00,0.65,0.37,9.32,0.00,0.00,0.00
2026-06-23 20:04:29.187,0.10,991.50,99140.25,nan,0.00,0.66,0.38,9.30,0.00,0.00,0.00
2026-06-23 20:04:29.188,0.10,991.50,99140.25,nan,0.00,0.66,0.38,9.30,0.00,0.00,0.00
2026-06-23 20:04:29.189,0.10,991.50,99140.25,nan,0.00,0.66,0.38,9.30,0.00,0.00,0.00
2026-06-23 20:04:29.190,0.10,991.50,99140.25,nan,0.00,0.66,0.38,9.30,0.00,0.00,0.00
2026-06-23 20:04:29.195,0.10,991.50,99140.25,nan,0.00,0.66,0.38,9.30,0.00,0.00,0.00
2026-06-23 20:04:29.197,0.10,991.50,99140.25,nan,0.00,0.67,0.38,9.29,0.00,-0.00,-0.00
2026-06-23 20:04:29.387,0.10,991.54,99144.10,nan,0.00,0.66,0.39,9.30,0.00,-0.00,-0.00
2026-06-23 20:04:29.388,0.10,991.54,99144.10,nan,0.00,0.66,0.39,9.30,0.00,-0.00,-0.00
2026-06-23 20:04:29.390,0.10,991.54,99144.10,nan,0.00,0.66,0.39,9.30,0.00,-0.00,-0.00
2026-06-23 20:04:29.392,0.10,991.54,99144.10,nan,0.00,0.66,0.39,9.30,0.00,-0.00,-0.00
2026-06-23 20:04:29.396,0.10,991.54,99144.10,nan,0.00,0.66,0.39,9.30,-0.00,0.00,0.00
2026-06-23 20:04:29.398,0.10,991.54,99144.10,nan,0.00,0.65,0.37,9.30,-0.00,0.00,0.00
2026-06-23 20:04:29.399,0.10,991.54,99144.10,nan,0.00,0.65,0.37,9.30,-0.00,0.00,0.00
2026-06-23 20:04:29.403,0.10,991.54,99144.10,nan,0.00,0.65,0.37,9.30,-0.00,0.00,0.00
2026-06-23 20:04:29.406,0.10,991.54,99144.10,nan,0.00,0.65,0.37,9.30,-0.00,0.00,0.00
2026-06-23 20:04:29.408,0.10,991.54,99144.10,nan,0.00,0.66,0.39,9.30,-0.00,0.00,0.00
2026-06-23 20:04:29.409,0.10,991.54,99144.10,nan,0.00,0.66,0.39,9.30,-0.00,0.00,0.00
2026-06-23 20:04:29.410,0.10,991.54,99144.10,nan,0.00,0.66,0.39,9.30,-0.00,0.00,0.00
2026-06-23 20:04:29.416,0.10,991.54,99144.10,nan,0.00,0.66,0.39,9.30,-0.00,0.00,0.00
2026-06-23 20:04:29.418,0.10,991.54,99144.10,nan,0.00,0.67,0.36,9.28,-0.00,0.00,0.00
2026-06-23 20:04:29.420,0.10,991.54,99144.10,nan,0.00,0.67,0.36,9.28,-0.00,0.00,0.00
2026-06-23 20:04:29.423,0.10,991.54,99144.10,nan,0.00,0.67,0.36,9.28,-0.00,0.00,0.00
2026-06-23 20:04:29.426,0.10,991.54,99144.10,nan,0.00,0.67,0.36,9.28,-0.00,0.00,0.00
2026-06-23 20:04:29.428,0.10,991.54,99144.10,nan,0.00,0.67,0.39,9.32,-0.00,0.00,0.00
2026-06-23 20:04:29.429,0.10,991.54,99144.10,nan,0.00,0.67,0.39,9.32,-0.00,0.00,0.00
2026-06-23 20:04:29.431,0.10,991.54,99144.10,nan,0.00,0.67,0.39,9.32,-0.00,0.00,0.00
2026-06-23 20:04:29.433,0.10,991.54,99144.10,nan,0.00,0.67,0.39,9.32,-0.00,0.00,0.00
2026-06-23 20:04:29.434,0.10,991.54,99144.10,nan,0.00,0.67,0.39,9.32,-0.00,0.00,0.00
2026-06-23 20:04:29.437,0.10,991.54,99144.10,nan,0.00,0.66,0.38,9.29,0.00,0.00,0.00
2026-06-23 20:04:29.439,0.10,991.54,99144.10,nan,0.00,0.66,0.38,9.29,0.00,0.00,0.00
2026-06-23 20:04:29.440,0.10,991.54,99144.10,nan,0.00,0.66,0.38,9.29,0.00,0.00,0.00
2026-06-23 20:04:29.444,0.10,991.54,99144.10,nan,0.00,0.66,0.38,9.29,0.00,0.00,0.00
2026-06-23 20:04:29.447,0.10,991.54,99144.10,nan,0.00,0.67,0.38,9.29,-0.00,0.00,0.00
2026-06-23 20:04:29.448,0.10,991.54,99144.10,nan,0.00,0.67,0.38,9.29,-0.00,0.00,0.00
2026-06-23 20:04:29.450,0.10,991.54,99144.10,nan,0.00,0.67,0.38,9.29,-0.00,0.00,0.00
2026-06-23 20:04:29.456,0.10,991.54,99144.10,nan,0.00,0.67,0.38,9.29,-0.00,0.00,0.00
2026-06-23 20:04:29.457,0.10,991.54,99144.10,nan,0.00,0.67,0.39,9.29,-0.00,0.00,0.00
2026-06-23 20:04:29.458,0.10,991.54,99144.10,nan,0.00,0.67,0.39,9.29,-0.00,0.00,0.00
2026-06-23 20:04:29.460,0.10,991.54,99144.10,nan,0.00,0.67,0.39,9.29,-0.00,0.00,0.00
2026-06-23 20:04:29.461,0.10,991.54,99144.10,nan,0.00,0.67,0.39,9.29,-0.00,0.00,0.00
2026-06-23 20:04:29.465,0.10,991.54,99144.10,nan,0.00,0.67,0.39,9.29,-0.00,0.00,0.00
2026-06-23 20:04:29.467,0.10,991.54,99144.10,nan,0.00,0.66,0.40,9.29,-0.00,0.00,0.00
2026-06-23 20:04:29.469,0.10,991.54,99144.10,nan,0.00,0.66,0.40,9.29,-0.00,0.00,0.00
2026-06-23 20:04:29.474,0.10,991.54,99144.10,nan,0.00,0.66,0.40,9.29,-0.00,0.00,0.00
2026-06-23 20:04:29.477,0.10,991.54,99144.10,nan,0.00,0.65,0.37,9.31,-0.00,-0.00,0.00
2026-06-23 20:04:29.478,0.10,991.54,99144.10,nan,0.00,0.65,0.37,9.31,-0.00,-0.00,0.00
2026-06-23 20:04:29.481,0.10,991.54,99144.10,nan,0.00,0.65,0.37,9.31,-0.00,-0.00,0.00
2026-06-23 20:04:29.483,0.10,991.54,99144.10,nan,0.00,0.65,0.37,9.31,-0.00,-0.00,0.00
2026-06-23 20:04:29.486,0.10,991.54,99144.10,nan,0.00,0.65,0.37,9.31,-0.00,0.00,0.00
2026-06-23 20:04:29.678,0.10,991.57,99147.30,nan,0.00,0.66,0.37,9.32,0.00,0.00,0.00
2026-06-23 20:04:29.679,0.10,991.57,99147.30,nan,0.00,0.66,0.37,9.32,0.00,0.00,0.00
2026-06-23 20:04:29.681,0.10,991.57,99147.30,nan,0.00,0.66,0.37,9.32,0.00,0.00,0.00
2026-06-23 20:04:29.683,0.10,991.57,99147.30,nan,0.00,0.66,0.37,9.32,0.00,0.00,0.00
2026-06-23 20:04:29.686,0.10,991.57,99147.30,nan,0.00,0.66,0.37,9.32,0.00,0.00,0.00
2026-06-23 20:04:29.688,0.10,991.57,99147.30,nan,0.00,0.66,0.38,9.29,0.00,0.00,0.00
2026-06-23 20:04:29.689,0.10,991.57,99147.30,nan,0.00,0.66,0.38,9.29,0.00,0.00,0.00
2026-06-23 20:04:29.690,0.10,991.57,99147.30,nan,0.00,0.66,0.38,9.29,0.00,0.00,0.00
2026-06-23 20:04:29.691,0.10,991.57,99147.30,nan,0.00,0.66,0.38,9.29,0.00,0.00,0.00
2026-06-23 20:04:29.696,0.10,991.57,99147.30,nan,0.00,0.66,0.38,9.29,0.00,0.00,0.00
2026-06-23 20:04:29.698,0.10,991.57,99147.30,nan,0.00,0.65,0.39,9.30,0.00,-0.00,0.00
2026-06-23 20:04:29.704,0.10,991.57,99147.30,nan,0.00,0.65,0.39,9.30,0.00,-0.00,0.00
2026-06-23 20:04:29.707,0.10,991.57,99147.30,nan,0.00,0.65,0.39,9.30,-0.00,-0.00,0.00
2026-06-23 20:04:29.708,0.10,991.57,99147.30,nan,0.00,0.66,0.38,9.29,-0.00,-0.00,0.00
2026-06-23 20:04:29.709,0.10,991.57,99147.30,nan,0.00,0.66,0.38,9.29,-0.00,-0.00,0.00
2026-06-23 20:04:29.711,0.10,991.57,99147.30,nan,0.00,0.66,0.38,9.29,-0.00,-0.00,0.00
2026-06-23 20:04:29.717,0.10,991.57,99147.30,nan,0.00,0.66,0.38,9.29,-0.00,-0.00,0.00
2026-06-23 20:04:29.718,0.10,991.57,99147.30,nan,0.00,0.67,0.38,9.31,0.00,-0.00,-0.00
2026-06-23 20:04:29.720,0.10,991.57,99147.30,nan,0.00,0.67,0.38,9.31,0.00,-0.00,-0.00
2026-06-23 20:04:29.721,0.10,991.57,99147.30,nan,0.00,0.67,0.38,9.31,0.00,-0.00,-0.00
2026-06-23 20:04:29.724,0.10,991.57,99147.30,nan,0.00,0.67,0.38,9.31,0.00,-0.00,-0.00
2026-06-23 20:04:29.727,0.10,991.57,99147.30,nan,0.00,0.67,0.38,9.31,0.00,-0.00,0.00
2026-06-23 20:04:29.729,0.10,991.57,99147.30,nan,0.00,0.66,0.38,9.29,0.00,-0.00,0.00
2026-06-23 20:04:29.730,0.10,991.57,99147.30,nan,0.00,0.66,0.38,9.29,0.00,-0.00,0.00
2026-06-23 20:04:29.733,0.10,991.57,99147.30,nan,0.00,0.66,0.38,9.29,0.00,-0.00,0.00
2026-06-23 20:04:29.736,0.10,991.57,99147.30,nan,0.00,0.66,0.38,9.29,0.00,-0.00,0.00
2026-06-23 20:04:29.738,0.10,991.57,99147.30,nan,0.00,0.66,0.37,9.33,0.00,0.00,0.00
2026-06-23 20:04:29.739,0.10,991.57,99147.30,nan,0.00,0.66,0.37,9.33,0.00,0.00,0.00
2026-06-23 20:04:29.741,0.10,991.57,99147.30,nan,0.00,0.66,0.37,9.33,0.00,0.00,0.00
2026-06-23 20:04:29.743,0.10,991.57,99147.30,nan,0.00,0.66,0.37,9.33,0.00,0.00,0.00
2026-06-23 20:04:29.747,0.10,991.57,99147.30,nan,0.00,0.66,0.37,9.33,0.00,-0.00,0.00
2026-06-23 20:04:29.750,0.10,991.57,99147.30,nan,0.00,0.66,0.38,9.29,0.00,-0.00,0.00
2026-06-23 20:04:29.753,0.10,991.57,99147.30,nan,0.00,0.66,0.38,9.29,0.00,-0.00,0.00
2026-06-23 20:04:29.757,0.10,991.57,99147.30,nan,0.00,0.66,0.38,9.29,0.00,-0.00,0.00
2026-06-23 20:04:29.758,0.10,991.57,99147.30,nan,0.00,0.65,0.40,9.26,0.00,-0.00,0.00
2026-06-23 20:04:29.759,0.10,991.57,99147.30,nan,0.00,0.65,0.40,9.26,0.00,-0.00,0.00
2026-06-23 20:04:29.761,0.10,991.57,99147.30,nan,0.00,0.65,0.40,9.26,0.00,-0.00,0.00
2026-06-23 20:04:29.762,0.10,991.57,99147.30,nan,0.00,0.65,0.40,9.26,0.00,-0.00,0.00
2026-06-23 20:04:29.768,0.10,991.57,99147.30,nan,0.00,0.65,0.40,9.26,0.00,-0.00,-0.00
2026-06-23 20:04:29.770,0.10,991.57,99147.30,nan,0.00,0.67,0.37,9.28,0.00,-0.00,-0.00
2026-06-23 20:04:29.773,0.10,991.57,99147.30,nan,0.00,0.67,0.37,9.28,0.00,-0.00,-0.00
2026-06-23 20:04:29.777,0.10,991.57,99147.30,nan,0.00,0.67,0.37,9.28,0.00,-0.00,0.00
2026-06-23 20:04:29.968,0.10,991.54,99144.36,nan,0.00,0.66,0.38,9.31,0.00,-0.00,0.00
2026-06-23 20:04:29.969,0.10,991.54,99144.36,nan,0.00,0.66,0.38,9.31,0.00,-0.00,0.00
2026-06-23 20:04:29.970,0.10,991.54,99144.36,nan,0.00,0.66,0.38,9.31,0.00,-0.00,0.00
2026-06-23 20:04:29.972,0.10,991.54,99144.36,nan,0.00,0.66,0.38,9.31,0.00,-0.00,0.00
2026-06-23 20:04:29.977,0.10,991.54,99144.36,nan,0.00,0.66,0.38,9.31,0.00,-0.00,0.00
2026-06-23 20:04:29.979,0.10,991.54,99144.36,nan,0.00,0.66,0.38,9.31,0.00,-0.00,-0.00
2026-06-23 20:04:29.980,0.10,991.54,99144.36,nan,0.00,0.66,0.38,9.31,0.00,-0.00,-0.00
2026-06-23 20:04:29.982,0.10,991.54,99144.36,nan,0.00,0.66,0.38,9.31,0.00,-0.00,-0.00
2026-06-23 20:04:29.983,0.10,991.54,99144.36,nan,0.00,0.66,0.38,9.31,0.00,-0.00,-0.00
2026-06-23 20:04:29.985,0.10,991.54,99144.36,nan,0.00,0.66,0.38,9.31,0.00,-0.00,-0.00
2026-06-23 20:04:29.987,0.10,991.54,99144.36,nan,0.00,0.66,0.38,9.31,0.00,0.00,0.00
2026-06-23 20:04:29.988,0.10,991.54,99144.36,nan,0.00,0.66,0.38,9.30,0.00,0.00,0.00
2026-06-23 20:04:29.990,0.10,991.54,99144.36,nan,0.00,0.66,0.38,9.30,0.00,0.00,0.00
2026-06-23 20:04:29.991,0.10,991.54,99144.36,nan,0.00,0.66,0.38,9.30,0.00,0.00,0.00
2026-06-23 20:04:29.993,0.10,991.54,99144.36,nan,0.00,0.66,0.38,9.30,0.00,0.00,0.00
2026-06-23 20:04:29.997,0.10,991.54,99144.36,nan,0.00,0.66,0.38,9.30,0.00,0.00,-0.00
2026-06-23 20:04:29.999,0.10,991.54,99144.36,nan,0.00,0.66,0.41,9.30,0.00,0.00,-0.00
2026-06-23 20:04:29.000,0.10,991.54,99144.36,nan,0.00,0.66,0.41,9.30,0.00,0.00,-0.00
2026-06-23 20:04:29.002,0.10,991.54,99144.36,nan,0.00,0.66,0.41,9.30,0.00,0.00,-0.00
2026-06-23 20:04:30.007,0.10,991.54,99144.36,nan,0.00,0.66,0.41,9.30,0.00,0.00,-0.00
2026-06-23 20:04:30.008,0.10,991.54,99144.36,nan,0.00,0.66,0.38,9.27,0.00,-0.00,0.00
2026-06-23 20:04:30.009,0.10,991.54,99144.36,nan,0.00,0.66,0.38,9.27,0.00,-0.00,0.00
2026-06-23 20:04:30.011,0.10,991.54,99144.36,nan,0.00,0.66,0.38,9.27,0.00,-0.00,0.00
2026-06-23 20:04:30.014,0.10,991.54,99144.36,nan,0.00,0.66,0.38,9.27,0.00,-0.00,0.00
2026-06-23 20:04:30.018,0.10,991.54,99144.36,nan,0.00,0.66,0.38,9.27,0.00,0.00,0.00
2026-06-23 20:04:30.019,0.10,991.54,99144.36,nan,0.00,0.67,0.38,9.31,0.00,0.00,0.00
2026-06-23 20:04:30.020,0.10,991.54,99144.36,nan,0.00,0.67,0.38,9.31,0.00,0.00,0.00
2026-06-23 20:04:30.021,0.10,991.54,99144.36,nan,0.00,0.67,0.38,9.31,0.00,0.00,0.00
2026-06-23 20:04:30.026,0.10,991.54,99144.36,nan,0.00,0.67,0.38,9.31,0.00,0.00,0.00
2026-06-23 20:04:30.028,0.10,991.54,99144.36,nan,0.00,0.65,0.37,9.32,-0.00,0.00,0.00
2026-06-23 20:04:30.030,0.10,991.54,99144.36,nan,0.00,0.65,0.37,9.32,-0.00,0.00,0.00
2026-06-23 20:04:30.031,0.10,991.54,99144.36,nan,0.00,0.65,0.37,9.32,-0.00,0.00,0.00
2026-06-23 20:04:30.033,0.10,991.54,99144.36,nan,0.00,0.65,0.37,9.32,-0.00,0.00,0.00
2026-06-23 20:04:30.034,0.10,991.54,99144.36,nan,0.00,0.65,0.37,9.32,-0.00,0.00,0.00
2026-06-23 20:04:30.037,0.10,991.54,99144.36,nan,0.00,0.65,0.37,9.32,-0.00,0.00,0.00
2026-06-23 20:04:30.038,0.10,991.54,99144.36,nan,0.00,0.66,0.38,9.29,0.00,0.00,0.00
2026-06-23 20:04:30.039,0.10,991.54,99144.36,nan,0.00,0.66,0.38,9.29,0.00,0.00,0.00
2026-06-23 20:04:30.041,0.10,991.54,99144.36,nan,0.00,0.66,0.38,9.29,0.00,0.00,0.00
2026-06-23 20:04:30.042,0.10,991.54,99144.36,nan,0.00,0.66,0.38,9.29,0.00,0.00,0.00
2026-06-23 20:04:30.047,0.10,991.54,99144.36,nan,0.00,0.66,0.38,9.29,0.00,0.00,0.00
2026-06-23 20:04:30.049,0.10,991.54,99144.36,nan,0.00,0.66,0.37,9.28,-0.00,0.00,0.00
2026-06-23 20:04:30.050,0.10,991.54,99144.36,nan,0.00,0.66,0.37,9.28,-0.00,0.00,0.00
2026-06-23 20:04:30.052,0.10,991.54,99144.36,nan,0.00,0.66,0.37,9.28,-0.00,0.00,0.00
2026-06-23 20:04:30.057,0.10,991.54,99144.36,nan,0.00,0.66,0.37,9.28,-0.00,0.00,0.00
2026-06-23 20:04:30.058,0.10,991.54,99144.36,nan,0.00,0.67,0.36,9.29,0.00,0.00,0.00
2026-06-23 20:04:30.059,0.10,991.54,99144.36,nan,0.00,0.67,0.36,9.29,0.00,0.00,0.00
2026-06-23 20:04:30.061,0.10,991.54,99144.36,nan,0.00,0.67,0.36,9.29,0.00,0.00,0.00
2026-06-23 20:04:30.062,0.10,991.54,99144.36,nan,0.00,0.67,0.36,9.29,0.00,0.00,0.00
2026-06-23 20:04:30.066,0.10,991.54,99144.36,nan,0.00,0.67,0.36,9.29,0.00,0.00,0.00
2026-06-23 20:04:30.258,0.10,991.56,99146.37,nan,0.00,0.67,0.39,9.32,0.00,0.00,0.00
2026-06-23 20:04:30.259,0.10,991.56,99146.37,nan,0.00,0.67,0.38,9.31,0.00,0.00,0.00
2026-06-23 20:04:30.261,0.10,991.56,99146.37,nan,0.00,0.67,0.38,9.31,0.00,0.00,0.00
2026-06-23 20:04:30.262,0.10,991.56,99146.37,nan,0.00,0.67,0.38,9.31,0.00,0.00,0.00
2026-06-23 20:04:30.266,0.10,991.56,99146.37,nan,0.00,0.67,0.38,9.31,0.00,0.00,0.00
2026-06-23 20:04:30.268,0.10,991.56,99146.37,nan,0.00,0.65,0.36,9.29,0.00,-0.00,0.00
2026-06-23 20:04:30.270,0.10,991.56,99146.37,nan,0.00,0.65,0.36,9.29,0.00,-0.00,0.00
2026-06-23 20:04:30.271,0.10,991.56,99146.37,nan,0.00,0.65,0.36,9.29,0.00,-0.00,0.00
2026-06-23 20:04:30.272,0.10,991.56,99146.37,nan,0.00,0.65,0.36,9.29,0.00,-0.00,0.00
2026-06-23 20:04:30.278,0.10,991.56,99146.37,nan,0.00,0.65,0.36,9.29,0.00,-0.00,0.00
2026-06-23 20:04:30.279,0.10,991.56,99146.37,nan,0.00,0.66,0.38,9.31,0.00,-0.00,-0.00
2026-06-23 20:04:30.281,0.10,991.56,99146.37,nan,0.00,0.66,0.38,9.31,0.00,-0.00,-0.00
2026-06-23 20:04:30.283,0.10,991.56,99146.37,nan,0.00,0.66,0.38,9.31,0.00,-0.00,-0.00
2026-06-23 20:04:30.284,0.10,991.56,99146.37,nan,0.00,0.66,0.38,9.31,0.00,-0.00,-0.00
2026-06-23 20:04:30.285,0.10,991.56,99146.37,nan,0.00,0.66,0.38,9.31,0.00,-0.00,-0.00
2026-06-23 20:04:30.288,0.10,991.56,99146.37,nan,0.00,0.66,0.38,9.31,0.00,-0.00,-0.00
2026-06-23 20:04:30.289,0.10,991.56,99146.37,nan,0.00,0.66,0.38,9.31,0.00,0.00,0.00
2026-06-23 20:04:30.290,0.10,991.56,99146.37,nan,0.00,0.66,0.38,9.31,0.00,0.00,0.00
2026-06-23 20:04:30.291,0.10,991.56,99146.37,nan,0.00,0.66,0.38,9.31,0.00,0.00,0.00
2026-06-23 20:04:30.292,0.10,991.56,99146.37,nan,0.00,0.66,0.38,9.31,0.00,0.00,0.00
2026-06-23 20:04:30.298,0.10,991.56,99146.37,nan,0.00,0.66,0.38,9.31,0.00,0.00,0.00
2026-06-23 20:04:30.300,0.10,991.56,99146.37,nan,0.00,0.66,0.39,9.31,0.00,-0.00,0.00
2026-06-23 20:04:30.302,0.10,991.56,99146.37,nan,0.00,0.66,0.39,9.31,0.00,-0.00,0.00
2026-06-23 20:04:30.306,0.10,991.56,99146.37,nan,0.00,0.66,0.39,9.31,0.00,-0.00,0.00
2026-06-23 20:04:30.308,0.10,991.56,99146.37,nan,0.00,0.66,0.39,9.31,-0.00,-0.00,0.00
2026-06-23 20:04:30.310,0.10,991.56,99146.37,nan,0.00,0.66,0.38,9.29,-0.00,-0.00,0.00
2026-06-23 20:04:30.311,0.10,991.56,99146.37,nan,0.00,0.66,0.38,9.29,-0.00,-0.00,0.00
2026-06-23 20:04:30.313,0.10,991.56,99146.37,nan,0.00,0.66,0.38,9.29,-0.00,-0.00,0.00
2026-06-23 20:04:30.318,0.10,991.56,99146.37,nan,0.00,0.66,0.38,9.29,-0.00,-0.00,0.00
2026-06-23 20:04:30.319,0.10,991.56,99146.37,nan,0.00,0.65,0.40,9.32,0.00,-0.00,0.00
2026-06-23 20:04:30.320,0.10,991.56,99146.37,nan,0.00,0.65,0.40,9.32,0.00,-0.00,0.00
2026-06-23 20:04:30.322,0.10,991.56,99146.37,nan,0.00,0.65,0.40,9.32,0.00,-0.00,0.00
2026-06-23 20:04:30.323,0.10,991.56,99146.37,nan,0.00,0.65,0.40,9.32,0.00,-0.00,0.00
2026-06-23 20:04:30.328,0.10,991.56,99146.37,nan,0.00,0.65,0.40,9.32,0.00,-0.00,0.00
2026-06-23 20:04:30.330,0.10,991.56,99146.37,nan,0.00,0.65,0.38,9.29,0.00,-0.00,0.00
2026-06-23 20:04:30.331,0.10,991.56,99146.37,nan,0.00,0.65,0.38,9.29,0.00,-0.00,0.00
2026-06-23 20:04:30.333,0.10,991.56,99146.37,nan,0.00,0.65,0.38,9.29,0.00,-0.00,0.00
2026-06-23 20:04:30.334,0.10,991.56,99146.37,nan,0.00,0.65,0.38,9.29,0.00,-0.00,0.00
2026-06-23 20:04:30.335,0.10,991.56,99146.37,nan,0.00,0.65,0.38,9.29,0.00,-0.00,0.00
2026-06-23 20:04:30.338,0.10,991.56,99146.37,nan,0.00,0.65,0.38,9.29,0.00,-0.00,0.00
2026-06-23 20:04:30.339,0.10,991.56,99146.37,nan,0.00,0.66,0.38,9.30,0.00,-0.00,-0.00
2026-06-23 20:04:30.340,0.10,991.56,99146.37,nan,0.00,0.66,0.38,9.30,0.00,-0.00,-0.00
2026-06-23 20:04:30.341,0.10,991.56,99146.37,nan,0.00,0.66,0.38,9.30,0.00,-0.00,-0.00
2026-06-23 20:04:30.342,0.10,991.56,99146.37,nan,0.00,0.66,0.38,9.30,0.00,-0.00,-0.00
2026-06-23 20:04:30.348,0.10,991.56,99146.37,nan,0.00,0.66,0.38,9.30,0.00,-0.00,-0.00
2026-06-23 20:04:30.349,0.10,991.56,99146.37,nan,0.00,0.65,0.40,9.29,0.00,-0.00,0.00
2026-06-23 20:04:30.351,0.10,991.56,99146.37,nan,0.00,0.65,0.40,9.29,0.00,-0.00,0.00
2026-06-23 20:04:30.352,0.10,991.56,99146.37,nan,0.00,0.65,0.40,9.29,0.00,-0.00,0.00
2026-06-23 20:04:30.356,0.10,991.56,99146.37,nan,0.00,0.65,0.40,9.29,0.00,-0.00,0.00
2026-06-23 20:04:30.549,0.10,991.55,99144.73,nan,0.00,0.65,0.37,9.30,-0.00,-0.00,0.00
2026-06-23 20:04:30.550,0.10,991.55,99144.73,nan,0.00,0.67,0.40,9.28,-0.00,-0.00,0.00
2026-06-23 20:04:30.551,0.10,991.55,99144.73,nan,0.00,0.67,0.40,9.28,-0.00,-0.00,0.00
2026-06-23 20:04:30.553,0.10,991.55,99144.73,nan,0.00,0.67,0.40,9.28,-0.00,-0.00,0.00
2026-06-23 20:04:30.558,0.10,991.55,99144.73,nan,0.00,0.67,0.40,9.28,-0.00,-0.00,0.00
2026-06-23 20:04:30.560,0.10,991.55,99144.73,nan,0.00,0.67,0.37,9.27,0.00,-0.00,0.00
2026-06-23 20:04:30.561,0.10,991.55,99144.73,nan,0.00,0.67,0.37,9.27,0.00,-0.00,0.00
2026-06-23 20:04:30.563,0.10,991.55,99144.73,nan,0.00,0.67,0.37,9.27,0.00,-0.00,0.00
2026-06-23 20:04:30.566,0.10,991.55,99144.73,nan,0.00,0.67,0.37,9.27,0.00,-0.00,0.00
2026-06-23 20:04:30.569,0.10,991.55,99144.73,nan,0.00,0.67,0.37,9.27,-0.00,-0.00,-0.00
2026-06-23 20:04:30.570,0.10,991.55,99144.73,nan,0.00,0.67,0.39,9.28,-0.00,-0.00,-0.00
2026-06-23 20:04:30.571,0.10,991.55,99144.73,nan,0.00,0.67,0.39,9.28,-0.00,-0.00,-0.00
2026-06-23 20:04:30.573,0.10,991.55,99144.73,nan,0.00,0.67,0.39,9.28,-0.00,-0.00,-0.00
2026-06-23 20:04:30.576,0.10,991.55,99144.73,nan,0.00,0.67,0.39,9.28,-0.00,-0.00,-0.00
2026-06-23 20:04:30.579,0.10,991.55,99144.73,nan,0.00,0.67,0.39,9.28,0.00,0.00,0.00
2026-06-23 20:04:30.581,0.10,991.55,99144.73,nan,0.00,0.66,0.40,9.30,0.00,0.00,0.00
2026-06-23 20:04:30.582,0.10,991.55,99144.73,nan,0.00,0.66,0.40,9.30,0.00,0.00,0.00
2026-06-23 20:04:30.584,0.10,991.55,99144.73,nan,0.00,0.66,0.40,9.30,0.00,0.00,0.00
2026-06-23 20:04:30.585,0.10,991.55,99144.73,nan,0.00,0.66,0.40,9.30,0.00,0.00,0.00
2026-06-23 20:04:30.586,0.10,991.55,99144.73,nan,0.00,0.66,0.40,9.30,0.00,0.00,0.00
2026-06-23 20:04:30.589,0.10,991.55,99144.73,nan,0.00,0.66,0.40,9.30,0.00,-0.00,-0.00
2026-06-23 20:04:30.590,0.10,991.55,99144.73,nan,0.00,0.65,0.39,9.32,0.00,-0.00,-0.00
2026-06-23 20:04:30.591,0.10,991.55,99144.73,nan,0.00,0.65,0.39,9.32,0.00,-0.00,-0.00
2026-06-23 20:04:30.593,0.10,991.55,99144.73,nan,0.00,0.65,0.39,9.32,0.00,-0.00,-0.00
2026-06-23 20:04:30.598,0.10,991.55,99144.73,nan,0.00,0.65,0.39,9.32,0.00,-0.00,-0.00
2026-06-23 20:04:30.600,0.10,991.55,99144.73,nan,0.00,0.66,0.39,9.28,-0.00,0.00,0.00
2026-06-23 20:04:30.601,0.10,991.55,99144.73,nan,0.00,0.66,0.39,9.28,-0.00,0.00,0.00
2026-06-23 20:04:30.602,0.10,991.55,99144.73,nan,0.00,0.66,0.39,9.28,-0.00,0.00,0.00
2026-06-23 20:04:30.605,0.10,991.55,99144.73,nan,0.00,0.66,0.39,9.28,-0.00,0.00,0.00
2026-06-23 20:04:30.609,0.10,991.55,99144.73,nan,0.00,0.66,0.39,9.28,0.00,0.00,-0.00
2026-06-23 20:04:30.610,0.10,991.55,99144.73,nan,0.00,0.66,0.39,9.28,0.00,0.00,-0.00
2026-06-23 20:04:30.612,0.10,991.55,99144.73,nan,0.00,0.66,0.39,9.28,0.00,0.00,-0.00
2026-06-23 20:04:30.613,0.10,991.55,99144.73,nan,0.00,0.66,0.39,9.28,0.00,0.00,-0.00
2026-06-23 20:04:30.618,0.10,991.55,99144.73,nan,0.00,0.66,0.39,9.28,0.00,0.00,-0.00
2026-06-23 20:04:30.620,0.10,991.55,99144.73,nan,0.00,0.65,0.38,9.28,0.00,0.00,-0.00
2026-06-23 20:04:30.621,0.10,991.55,99144.73,nan,0.00,0.65,0.38,9.28,0.00,0.00,-0.00
2026-06-23 20:04:30.622,0.10,991.55,99144.73,nan,0.00,0.65,0.38,9.28,0.00,0.00,-0.00
2026-06-23 20:04:30.623,0.10,991.55,99144.73,nan,0.00,0.65,0.38,9.28,0.00,0.00,-0.00
2026-06-23 20:04:30.629,0.10,991.55,99144.73,nan,0.00,0.65,0.38,9.28,0.00,0.00,-0.00
2026-06-23 20:04:30.630,0.10,991.55,99144.73,nan,0.00,0.65,0.38,9.33,0.00,-0.01,0.00
2026-06-23 20:04:30.632,0.10,991.55,99144.73,nan,0.00,0.65,0.38,9.33,0.00,-0.01,0.00
2026-06-23 20:04:30.633,0.10,991.55,99144.73,nan,0.00,0.65,0.38,9.33,0.00,-0.01,0.00
2026-06-23 20:04:30.634,0.10,991.55,99144.73,nan,0.00,0.65,0.38,9.33,0.00,-0.01,0.00
2026-06-23 20:04:30.636,0.10,991.55,99144.73,nan,0.00,0.65,0.38,9.33,0.00,-0.01,0.00
2026-06-23 20:04:30.638,0.10,991.55,99144.73,nan,0.00,0.65,0.38,9.33,0.00,-0.01,0.00
2026-06-23 20:04:30.639,0.10,991.55,99144.73,nan,0.00,0.66,0.36,9.31,0.00,-0.00,-0.00
2026-06-23 20:04:30.641,0.10,991.55,99144.73,nan,0.00,0.66,0.36,9.31,0.00,-0.00,-0.00
2026-06-23 20:04:30.642,0.10,991.55,99144.73,nan,0.00,0.66,0.36,9.31,0.00,-0.00,-0.00
2026-06-23 20:04:30.643,0.10,991.55,99144.73,nan,0.00,0.66,0.36,9.31,0.00,-0.00,-0.00
2026-06-23 20:04:30.648,0.10,991.55,99144.73,nan,0.00,0.66,0.36,9.31,0.00,-0.00,-0.00
2026-06-23 20:04:30.840,0.10,991.56,99145.65,nan,0.00,0.66,0.38,9.31,0.00,0.00,-0.00
2026-06-23 20:04:30.841,0.10,991.56,99145.65,nan,0.00,0.67,0.38,9.28,0.00,0.00,-0.00
2026-06-23 20:04:30.842,0.10,991.56,99145.65,nan,0.00,0.67,0.38,9.28,0.00,0.00,-0.00
2026-06-23 20:04:30.843,0.10,991.56,99145.65,nan,0.00,0.67,0.38,9.28,0.00,0.00,-0.00
2026-06-23 20:04:30.849,0.10,991.56,99145.65,nan,0.00,0.67,0.38,9.28,0.00,0.00,-0.00
2026-06-23 20:04:30.851,0.10,991.56,99145.65,nan,0.00,0.67,0.38,9.29,-0.00,0.00,0.00
2026-06-23 20:04:30.852,0.10,991.56,99145.65,nan,0.00,0.67,0.38,9.29,-0.00,0.00,0.00
2026-06-23 20:04:30.853,0.10,991.56,99145.65,nan,0.00,0.67,0.38,9.29,-0.00,0.00,0.00
2026-06-23 20:04:30.857,0.10,991.56,99145.65,nan,0.00,0.67,0.38,9.29,-0.00,0.00,0.00
2026-06-23 20:04:30.860,0.10,991.56,99145.65,nan,0.00,0.67,0.38,9.29,-0.00,0.00,0.00
2026-06-23 20:04:30.861,0.10,991.56,99145.65,nan,0.00,0.65,0.37,9.26,-0.00,0.00,0.00
2026-06-23 20:04:30.863,0.10,991.56,99145.65,nan,0.00,0.65,0.37,9.26,-0.00,0.00,0.00
2026-06-23 20:04:30.866,0.10,991.56,99145.65,nan,0.00,0.65,0.37,9.26,-0.00,0.00,0.00
2026-06-23 20:04:30.870,0.10,991.56,99145.65,nan,0.00,0.65,0.37,9.26,0.00,-0.00,-0.00
2026-06-23 20:04:30.871,0.10,991.56,99145.65,nan,0.00,0.65,0.37,9.29,0.00,-0.00,-0.00
2026-06-23 20:04:30.873,0.10,991.56,99145.65,nan,0.00,0.65,0.37,9.29,0.00,-0.00,-0.00
2026-06-23 20:04:30.876,0.10,991.56,99145.65,nan,0.00,0.65,0.37,9.29,0.00,-0.00,-0.00
2026-06-23 20:04:30.880,0.10,991.56,99145.65,nan,0.00,0.65,0.37,9.29,-0.00,-0.00,-0.00
2026-06-23 20:04:30.882,0.10,991.56,99145.65,nan,0.00,0.66,0.39,9.31,-0.00,-0.00,-0.00
2026-06-23 20:04:30.884,0.10,991.56,99145.65,nan,0.00,0.66,0.39,9.31,-0.00,-0.00,-0.00
2026-06-23 20:04:30.886,0.10,991.56,99145.65,nan,0.00,0.66,0.39,9.31,-0.00,-0.00,-0.00
2026-06-23 20:04:30.889,0.10,991.56,99145.65,nan,0.00,0.66,0.39,9.31,-0.00,-0.00,-0.00
2026-06-23 20:04:30.891,0.10,991.56,99145.65,nan,0.00,0.66,0.39,9.31,-0.00,0.00,0.00
2026-06-23 20:04:30.892,0.10,991.56,99145.65,nan,0.00,0.66,0.39,9.31,-0.00,0.00,0.00
2026-06-23 20:04:30.896,0.10,991.56,99145.65,nan,0.00,0.66,0.39,9.31,-0.00,0.00,0.00
2026-06-23 20:04:30.900,0.10,991.56,99145.65,nan,0.00,0.66,0.39,9.31,0.00,0.00,0.00
2026-06-23 20:04:30.902,0.10,991.56,99145.65,nan,0.00,0.66,0.38,9.31,0.00,0.00,0.00
2026-06-23 20:04:30.904,0.10,991.56,99145.65,nan,0.00,0.66,0.38,9.31,0.00,0.00,0.00
2026-06-23 20:04:30.909,0.10,991.56,99145.65,nan,0.00,0.66,0.38,9.31,0.00,0.00,0.00
2026-06-23 20:04:30.911,0.10,991.56,99145.65,nan,0.00,0.67,0.38,9.27,-0.00,0.00,0.00
2026-06-23 20:04:30.913,0.10,991.56,99145.65,nan,0.00,0.67,0.38,9.27,-0.00,0.00,0.00
2026-06-23 20:04:30.919,0.10,991.56,99145.65,nan,0.00,0.67,0.38,9.27,-0.00,0.00,0.00
2026-06-23 20:04:30.921,0.10,991.56,99145.65,nan,0.00,0.66,0.38,9.31,-0.00,0.00,-0.00
2026-06-23 20:04:30.922,0.10,991.56,99145.65,nan,0.00,0.66,0.38,9.31,-0.00,0.00,-0.00
2026-06-23 20:04:30.927,0.10,991.56,99145.65,nan,0.00,0.66,0.38,9.31,-0.00,0.00,-0.00
2026-06-23 20:04:30.930,0.10,991.56,99145.65,nan,0.00,0.66,0.38,9.31,0.00,0.01,0.00
2026-06-23 20:04:30.932,0.10,991.56,99145.65,nan,0.00,0.66,0.39,9.31,0.00,0.01,0.00
2026-06-23 20:04:30.936,0.10,991.56,99145.65,nan,0.00,0.66,0.39,9.31,0.00,0.01,0.00
2026-06-23 20:04:30.940,0.10,991.56,99145.65,nan,0.00,0.66,0.39,9.31,-0.00,0.00,-0.00
2026-06-23 20:04:31.133,0.10,991.56,99146.05,nan,0.00,0.66,0.37,9.30,-0.00,0.01,-0.00
2026-06-23 20:04:31.134,0.10,991.56,99146.05,nan,0.00,0.66,0.37,9.30,-0.00,0.01,-0.00
2026-06-23 20:04:31.136,0.10,991.56,99146.05,nan,0.00,0.66,0.37,9.30,-0.00,0.01,-0.00
2026-06-23 20:04:31.140,0.10,991.56,99146.05,nan,0.00,0.66,0.37,9.30,-0.00,0.01,-0.00
2026-06-23 20:04:31.141,0.10,991.56,99146.05,nan,0.00,0.66,0.38,9.32,-0.00,-0.00,0.00
2026-06-23 20:04:31.143,0.10,991.56,99146.05,nan,0.00,0.66,0.38,9.32,-0.00,-0.00,0.00
2026-06-23 20:04:31.146,0.10,991.56,99146.05,nan,0.00,0.66,0.38,9.32,-0.00,-0.00,0.00
2026-06-23 20:04:31.151,0.10,991.56,99146.05,nan,0.00,0.66,0.38,9.32,-0.00,0.00,-0.00
2026-06-23 20:04:31.152,0.10,991.56,99146.05,nan,0.00,0.67,0.38,9.30,-0.00,0.00,-0.00
2026-06-23 20:04:31.154,0.10,991.56,99146.05,nan,0.00,0.67,0.38,9.30,-0.00,0.00,-0.00
2026-06-23 20:04:31.160,0.10,991.56,99146.05,nan,0.00,0.67,0.38,9.30,-0.00,0.00,-0.00
2026-06-23 20:04:31.161,0.10,991.56,99146.05,nan,0.00,0.66,0.38,9.27,-0.00,0.00,0.00
2026-06-23 20:04:31.163,0.10,991.56,99146.05,nan,0.00,0.66,0.38,9.27,-0.00,0.00,0.00
2026-06-23 20:04:31.165,0.10,991.56,99146.05,nan,0.00,0.66,0.38,9.27,-0.00,0.00,0.00
2026-06-23 20:04:31.170,0.10,991.56,99146.05,nan,0.00,0.66,0.38,9.27,-0.00,0.00,0.00
2026-06-23 20:04:31.171,0.10,991.56,99146.05,nan,0.00,0.67,0.39,9.28,-0.00,-0.00,-0.00
2026-06-23 20:04:31.173,0.10,991.56,99146.05,nan,0.00,0.67,0.39,9.28,-0.00,-0.00,-0.00
2026-06-23 20:04:31.174,0.10,991.56,99146.05,nan,0.00,0.67,0.39,9.28,-0.00,-0.00,-0.00
2026-06-23 20:04:31.180,0.10,991.56,99146.05,nan,0.00,0.67,0.39,9.28,-0.00,-0.00,-0.00
2026-06-23 20:04:31.182,0.10,991.56,99146.05,nan,0.00,0.67,0.39,9.30,-0.00,0.00,-0.00
2026-06-23 20:04:31.183,0.10,991.56,99146.05,nan,0.00,0.67,0.39,9.30,-0.00,0.00,-0.00
2026-06-23 20:04:31.185,0.10,991.56,99146.05,nan,0.00,0.67,0.39,9.30,-0.00,0.00,-0.00
2026-06-23 20:04:31.186,0.10,991.56,99146.05,nan,0.00,0.67,0.39,9.30,-0.00,0.00,-0.00
2026-06-23 20:04:31.188,0.10,991.56,99146.05,nan,0.00,0.67,0.39,9.30,-0.00,0.00,-0.00
2026-06-23 20:04:31.190,0.10,991.56,99146.05,nan,0.00,0.67,0.39,9.30,-0.00,0.00,-0.00
2026-06-23 20:04:31.191,0.10,991.56,99146.05,nan,0.00,0.65,0.40,9.32,-0.00,0.00,-0.00
2026-06-23 20:04:31.193,0.10,991.56,99146.05,nan,0.00,0.65,0.40,9.32,-0.00,0.00,-0.00
2026-06-23 20:04:31.194,0.10,991.56,99146.05,nan,0.00,0.65,0.40,9.32,-0.00,0.00,-0.00
2026-06-23 20:04:31.200,0.10,991.56,99146.05,nan,0.00,0.65,0.40,9.32,-0.00,0.00,-0.00
2026-06-23 20:04:31.201,0.10,991.56,99146.05,nan,0.00,0.67,0.40,9.30,0.00,-0.00,0.00
2026-06-23 20:04:31.203,0.10,991.56,99146.05,nan,0.00,0.67,0.40,9.30,0.00,-0.00,0.00
2026-06-23 20:04:31.204,0.10,991.56,99146.05,nan,0.00,0.67,0.40,9.30,0.00,-0.00,0.00
2026-06-23 20:04:31.210,0.10,991.56,99146.05,nan,0.00,0.67,0.40,9.30,0.00,-0.00,0.00
2026-06-23 20:04:31.211,0.10,991.56,99146.05,nan,0.00,0.66,0.36,9.30,0.00,0.00,-0.00
2026-06-23 20:04:31.213,0.10,991.56,99146.05,nan,0.00,0.66,0.36,9.30,0.00,0.00,-0.00
2026-06-23 20:04:31.216,0.10,991.56,99146.05,nan,0.00,0.66,0.36,9.30,0.00,0.00,-0.00
2026-06-23 20:04:31.220,0.10,991.56,99146.05,nan,0.00,0.66,0.36,9.30,0.00,0.00,-0.00
2026-06-23 20:04:31.222,0.10,991.56,99146.05,nan,0.00,0.66,0.38,9.30,0.00,0.00,-0.00
2026-06-23 20:04:31.223,0.10,991.56,99146.05,nan,0.00,0.66,0.38,9.30,0.00,0.00,-0.00
2026-06-23 20:04:31.224,0.10,991.56,99146.05,nan,0.00,0.66,0.38,9.30,0.00,0.00,-0.00
2026-06-23 20:04:31.230,0.10,991.56,99146.05,nan,0.00,0.66,0.38,9.30,0.00,0.00,-0.00
2026-06-23 20:04:31.232,0.10,991.56,99146.05,nan,0.00,0.65,0.37,9.29,0.00,-0.00,0.00
2026-06-23 20:04:31.424,0.10,991.57,99146.96,nan,0.00,0.66,0.39,9.29,0.00,0.00,0.00
2026-06-23 20:04:31.428,0.10,991.57,99146.96,nan,0.00,0.66,0.39,9.29,0.00,0.00,0.00
2026-06-23 20:04:31.431,0.10,991.57,99146.96,nan,0.00,0.66,0.39,9.29,0.00,-0.00,-0.00
2026-06-23 20:04:31.433,0.10,991.57,99146.96,nan,0.00,0.66,0.38,9.30,0.00,-0.00,-0.00
2026-06-23 20:04:31.435,0.10,991.57,99146.96,nan,0.00,0.66,0.38,9.30,0.00,-0.00,-0.00
2026-06-23 20:04:31.437,0.10,991.57,99146.96,nan,0.00,0.66,0.38,9.30,0.00,-0.00,-0.00
2026-06-23 20:04:31.438,0.10,991.57,99146.96,nan,0.00,0.66,0.38,9.30,0.00,-0.00,-0.00
2026-06-23 20:04:31.441,0.10,991.57,99146.96,nan,0.00,0.66,0.38,9.30,0.00,0.00,-0.00
2026-06-23 20:04:31.443,0.10,991.57,99146.96,nan,0.00,0.65,0.37,9.30,0.00,0.00,-0.00
2026-06-23 20:04:31.444,0.10,991.57,99146.96,nan,0.00,0.65,0.37,9.30,0.00,0.00,-0.00
2026-06-23 20:04:31.450,0.10,991.57,99146.96,nan,0.00,0.65,0.37,9.30,0.00,0.00,-0.00
2026-06-23 20:04:31.452,0.10,991.57,99146.96,nan,0.00,0.66,0.38,9.28,0.00,-0.00,0.00
2026-06-23 20:04:31.453,0.10,991.57,99146.96,nan,0.00,0.66,0.38,9.28,0.00,-0.00,0.00
2026-06-23 20:04:31.455,0.10,991.57,99146.96,nan,0.00,0.66,0.38,9.28,0.00,-0.00,0.00
2026-06-23 20:04:31.461,0.10,991.57,99146.96,nan,0.00,0.66,0.38,9.28,0.00,-0.00,0.00
2026-06-23 20:04:31.462,0.10,991.57,99146.96,nan,0.00,0.66,0.38,9.28,0.00,-0.00,0.00
2026-06-23 20:04:31.464,0.10,991.57,99146.96,nan,0.00,0.66,0.38,9.28,0.00,-0.00,0.00
2026-06-23 20:04:31.466,0.10,991.57,99146.96,nan,0.00,0.66,0.38,9.28,0.00,-0.00,0.00
2026-06-23 20:04:31.471,0.10,991.57,99146.96,nan,0.00,0.66,0.38,9.28,0.00,-0.00,0.00
2026-06-23 20:04:31.472,0.10,991.57,99146.96,nan,0.00,0.65,0.38,9.30,0.00,0.00,0.00
2026-06-23 20:04:31.474,0.10,991.57,99146.96,nan,0.00,0.65,0.38,9.30,0.00,0.00,0.00
2026-06-23 20:04:31.477,0.10,991.57,99146.96,nan,0.00,0.65,0.38,9.30,0.00,0.00,0.00
2026-06-23 20:04:31.481,0.10,991.57,99146.96,nan,0.00,0.65,0.38,9.30,-0.00,0.00,0.00
2026-06-23 20:04:31.483,0.10,991.57,99146.96,nan,0.00,0.67,0.38,9.30,-0.00,0.00,0.00
2026-06-23 20:04:31.485,0.10,991.57,99146.96,nan,0.00,0.67,0.38,9.30,-0.00,0.00,0.00
2026-06-23 20:04:31.486,0.10,991.57,99146.96,nan,0.00,0.67,0.38,9.30,-0.00,0.00,0.00
2026-06-23 20:04:31.487,0.10,991.57,99146.96,nan,0.00,0.67,0.38,9.30,-0.00,0.00,0.00
2026-06-23 20:04:31.490,0.10,991.57,99146.96,nan,0.00,0.67,0.38,9.30,-0.00,0.00,0.00
2026-06-23 20:04:31.492,0.10,991.57,99146.96,nan,0.00,0.66,0.38,9.32,0.00,-0.00,0.00
2026-06-23 20:04:31.493,0.10,991.57,99146.96,nan,0.00,0.66,0.38,9.32,0.00,-0.00,0.00
2026-06-23 20:04:31.495,0.10,991.57,99146.96,nan,0.00,0.66,0.38,9.32,0.00,-0.00,0.00
2026-06-23 20:04:31.500,0.10,991.57,99146.96,nan,0.00,0.66,0.38,9.32,0.00,-0.00,0.00
2026-06-23 20:04:31.502,0.10,991.57,99146.96,nan,0.00,0.67,0.38,9.27,-0.00,0.00,0.00
2026-06-23 20:04:31.503,0.10,991.57,99146.96,nan,0.00,0.67,0.38,9.27,-0.00,0.00,0.00
2026-06-23 20:04:31.505,0.10,991.57,99146.96,nan,0.00,0.67,0.38,9.27,-0.00,0.00,0.00
2026-06-23 20:04:31.511,0.10,991.57,99146.96,nan,0.00,0.67,0.38,9.27,-0.00,0.00,0.00
2026-06-23 20:04:31.512,0.10,991.57,99146.96,nan,0.00,0.66,0.40,9.28,-0.00,0.00,0.00
2026-06-23 20:04:31.514,0.10,991.57,99146.96,nan,0.00,0.66,0.40,9.28,-0.00,0.00,0.00
2026-06-23 20:04:31.517,0.10,991.57,99146.96,nan,0.00,0.66,0.40,9.28,-0.00,0.00,0.00
2026-06-23 20:04:31.521,0.10,991.57,99146.96,nan,0.00,0.66,0.40,9.28,-0.00,0.00,0.00
2026-06-23 20:04:31.523,0.10,991.57,99146.96,nan,0.00,0.66,0.38,9.28,-0.00,0.00,0.00
2026-06-23 20:04:31.715,0.10,991.59,99148.94,nan,0.00,0.65,0.39,9.28,0.00,0.00,0.00
2026-06-23 20:04:31.721,0.10,991.59,99148.94,nan,0.00,0.65,0.39,9.28,0.00,0.00,0.00
2026-06-23 20:04:31.722,0.10,991.59,99148.94,nan,0.00,0.65,0.38,9.31,-0.00,-0.00,0.00
2026-06-23 20:04:31.724,0.10,991.59,99148.94,nan,0.00,0.65,0.38,9.31,-0.00,-0.00,0.00
2026-06-23 20:04:31.725,0.10,991.59,99148.94,nan,0.00,0.65,0.38,9.31,-0.00,-0.00,0.00
2026-06-23 20:04:31.731,0.10,991.59,99148.94,nan,0.00,0.65,0.38,9.31,-0.00,-0.00,0.00
2026-06-23 20:04:31.733,0.10,991.59,99148.94,nan,0.00,0.66,0.36,9.33,0.00,0.00,0.00
2026-06-23 20:04:31.735,0.10,991.59,99148.94,nan,0.00,0.66,0.36,9.33,0.00,0.00,0.00
2026-06-23 20:04:31.736,0.10,991.59,99148.94,nan,0.00,0.66,0.36,9.33,0.00,0.00,0.00
2026-06-23 20:04:31.738,0.10,991.59,99148.94,nan,0.00,0.66,0.36,9.33,0.00,0.00,0.00
2026-06-23 20:04:31.739,0.10,991.59,99148.94,nan,0.00,0.66,0.36,9.33,0.00,0.00,0.00
2026-06-23 20:04:31.742,0.10,991.59,99148.94,nan,0.00,0.66,0.36,9.33,-0.00,0.00,-0.00
2026-06-23 20:04:31.743,0.10,991.59,99148.94,nan,0.00,0.65,0.38,9.30,-0.00,0.00,-0.00
2026-06-23 20:04:31.745,0.10,991.59,99148.94,nan,0.00,0.65,0.38,9.30,-0.00,0.00,-0.00
2026-06-23 20:04:31.749,0.10,991.59,99148.94,nan,0.00,0.65,0.38,9.30,-0.00,0.00,-0.00
2026-06-23 20:04:31.752,0.10,991.59,99148.94,nan,0.00,0.65,0.38,9.30,-0.00,0.00,0.00
2026-06-23 20:04:31.753,0.10,991.59,99148.94,nan,0.00,0.66,0.37,9.30,-0.00,0.00,0.00
2026-06-23 20:04:31.755,0.10,991.59,99148.94,nan,0.00,0.66,0.37,9.30,-0.00,0.00,0.00
2026-06-23 20:04:31.759,0.10,991.59,99148.94,nan,0.00,0.66,0.37,9.30,-0.00,0.00,0.00
2026-06-23 20:04:31.762,0.10,991.59,99148.94,nan,0.00,0.66,0.37,9.30,0.00,0.00,-0.00
2026-06-23 20:04:31.763,0.10,991.59,99148.94,nan,0.00,0.66,0.37,9.31,0.00,0.00,-0.00
2026-06-23 20:04:31.765,0.10,991.59,99148.94,nan,0.00,0.66,0.37,9.31,0.00,0.00,-0.00
2026-06-23 20:04:31.768,0.10,991.59,99148.94,nan,0.00,0.66,0.37,9.31,0.00,0.00,-0.00
2026-06-23 20:04:31.772,0.10,991.59,99148.94,nan,0.00,0.66,0.37,9.31,0.00,-0.00,0.00
2026-06-23 20:04:31.773,0.10,991.59,99148.94,nan,0.00,0.66,0.37,9.28,0.00,-0.00,0.00
2026-06-23 20:04:31.775,0.10,991.59,99148.94,nan,0.00,0.66,0.37,9.28,0.00,-0.00,0.00
2026-06-23 20:04:31.777,0.10,991.59,99148.94,nan,0.00,0.66,0.37,9.28,0.00,-0.00,0.00
2026-06-23 20:04:31.782,0.10,991.59,99148.94,nan,0.00,0.66,0.37,9.28,-0.00,-0.00,0.00
2026-06-23 20:04:31.784,0.10,991.59,99148.94,nan,0.00,0.65,0.38,9.29,-0.00,-0.00,0.00
2026-06-23 20:04:31.785,0.10,991.59,99148.94,nan,0.00,0.65,0.38,9.29,-0.00,-0.00,0.00
2026-06-23 20:04:31.787,0.10,991.59,99148.94,nan,0.00,0.65,0.38,9.29,-0.00,-0.00,0.00
2026-06-23 20:04:31.792,0.10,991.59,99148.94,nan,0.00,0.65,0.38,9.29,-0.00,0.00,-0.00
2026-06-23 20:04:31.793,0.10,991.59,99148.94,nan,0.00,0.67,0.40,9.32,-0.00,0.00,-0.00
2026-06-23 20:04:31.795,0.10,991.59,99148.94,nan,0.00,0.67,0.40,9.32,-0.00,0.00,-0.00
2026-06-23 20:04:31.799,0.10,991.59,99148.94,nan,0.00,0.67,0.40,9.32,-0.00,0.00,-0.00
2026-06-23 20:04:31.802,0.10,991.59,99148.94,nan,0.00,0.66,0.38,9.33,-0.00,-0.00,0.00
2026-06-23 20:04:31.804,0.10,991.59,99148.94,nan,0.00,0.66,0.38,9.33,-0.00,-0.00,0.00
2026-06-23 20:04:31.805,0.10,991.59,99148.94,nan,0.00,0.66,0.38,9.33,-0.00,-0.00,0.00
2026-06-23 20:04:31.809,0.10,991.59,99148.94,nan,0.00,0.66,0.38,9.33,-0.00,-0.00,0.00
2026-06-23 20:04:31.812,0.10,991.59,99148.94,nan,0.00,0.66,0.38,9.33,0.00,0.00,0.00
2026-06-23 20:04:31.814,0.10,991.59,99148.94,nan,0.00,0.65,0.39,9.27,0.00,0.00,0.00
2026-06-23 20:04:32.007,0.10,991.54,99144.35,nan,0.00,0.65,0.39,9.33,0.00,0.00,0.00
2026-06-23 20:04:32.012,0.10,991.54,99144.35,nan,0.00,0.65,0.39,9.33,0.00,0.00,0.00
2026-06-23 20:04:32.014,0.10,991.54,99144.35,nan,0.00,0.66,0.39,9.31,0.00,0.00,0.00
2026-06-23 20:04:32.016,0.10,991.54,99144.35,nan,0.00,0.66,0.39,9.31,0.00,0.00,0.00
2026-06-23 20:04:32.022,0.10,991.54,99144.35,nan,0.00,0.66,0.39,9.31,0.00,0.00,0.00
2026-06-23 20:04:32.023,0.10,991.54,99144.35,nan,0.00,0.65,0.39,9.28,0.00,0.00,0.00
2026-06-23 20:04:32.025,0.10,991.54,99144.35,nan,0.00,0.65,0.39,9.28,0.00,0.00,0.00
2026-06-23 20:04:32.027,0.10,991.54,99144.35,nan,0.00,0.65,0.39,9.28,0.00,0.00,0.00
2026-06-23 20:04:32.032,0.10,991.54,99144.35,nan,0.00,0.65,0.39,9.28,0.00,-0.00,-0.00
2026-06-23 20:04:32.034,0.10,991.54,99144.35,nan,0.00,0.66,0.38,9.31,0.00,-0.00,-0.00
2026-06-23 20:04:32.036,0.10,991.54,99144.35,nan,0.00,0.66,0.38,9.31,0.00,-0.00,-0.00
2026-06-23 20:04:32.037,0.10,991.54,99144.35,nan,0.00,0.66,0.38,9.31,0.00,-0.00,-0.00
2026-06-23 20:04:32.039,0.10,991.54,99144.35,nan,0.00,0.66,0.38,9.31,0.00,-0.00,-0.00
2026-06-23 20:04:32.042,0.10,991.54,99144.35,nan,0.00,0.66,0.38,9.31,0.00,-0.00,0.00
2026-06-23 20:04:32.044,0.10,991.54,99144.35,nan,0.00,0.67,0.37,9.30,0.00,-0.00,0.00
2026-06-23 20:04:32.045,0.10,991.54,99144.35,nan,0.00,0.67,0.37,9.30,0.00,-0.00,0.00
2026-06-23 20:04:32.049,0.10,991.54,99144.35,nan,0.00,0.67,0.37,9.30,0.00,-0.00,0.00
2026-06-23 20:04:32.053,0.10,991.54,99144.35,nan,0.00,0.67,0.37,9.30,0.00,-0.00,0.00
2026-06-23 20:04:32.054,0.10,991.54,99144.35,nan,0.00,0.66,0.36,9.28,0.00,-0.00,0.00
2026-06-23 20:04:32.056,0.10,991.54,99144.35,nan,0.00,0.66,0.36,9.28,0.00,-0.00,0.00
2026-06-23 20:04:32.062,0.10,991.54,99144.35,nan,0.00,0.66,0.36,9.28,0.00,-0.00,0.00
2026-06-23 20:04:32.065,0.10,991.54,99144.35,nan,0.00,0.66,0.39,9.28,0.00,0.00,-0.00
2026-06-23 20:04:32.067,0.10,991.54,99144.35,nan,0.00,0.66,0.39,9.28,0.00,0.00,-0.00
2026-06-23 20:04:32.072,0.10,991.54,99144.35,nan,0.00,0.66,0.39,9.28,0.00,0.00,-0.00
2026-06-23 20:04:32.073,0.10,991.54,99144.35,nan,0.00,0.66,0.39,9.29,0.00,0.00,0.00
2026-06-23 20:04:32.075,0.10,991.54,99144.35,nan,0.00,0.66,0.39,9.29,0.00,0.00,0.00
2026-06-23 20:04:32.076,0.10,991.54,99144.35,nan,0.00,0.66,0.39,9.29,0.00,0.00,0.00
2026-06-23 20:04:32.079,0.10,991.54,99144.35,nan,0.00,0.66,0.39,9.29,0.00,0.00,0.00
2026-06-23 20:04:32.083,0.10,991.54,99144.35,nan,0.00,0.66,0.39,9.29,0.00,-0.00,0.00
2026-06-23 20:04:32.085,0.10,991.54,99144.35,nan,0.00,0.65,0.39,9.30,0.00,-0.00,0.00
2026-06-23 20:04:32.087,0.10,991.54,99144.35,nan,0.00,0.65,0.39,9.30,0.00,-0.00,0.00
2026-06-23 20:04:32.088,0.10,991.54,99144.35,nan,0.00,0.65,0.39,9.30,0.00,-0.00,0.00
2026-06-23 20:04:32.090,0.10,991.54,99144.35,nan,0.00,0.65,0.39,9.30,0.00,-0.00,0.00
2026-06-23 20:04:32.093,0.10,991.54,99144.35,nan,0.00,0.65,0.39,9.30,0.00,-0.00,0.00
2026-06-23 20:04:32.094,0.10,991.54,99144.35,nan,0.00,0.66,0.38,9.32,0.00,-0.00,0.00
2026-06-23 20:04:32.095,0.10,991.54,99144.35,nan,0.00,0.66,0.38,9.32,0.00,-0.00,0.00
2026-06-23 20:04:32.099,0.10,991.54,99144.35,nan,0.00,0.66,0.38,9.32,0.00,-0.00,0.00
2026-06-23 20:04:32.102,0.10,991.54,99144.35,nan,0.00,0.66,0.38,9.32,-0.00,-0.00,0.00
2026-06-23 20:04:32.104,0.10,991.54,99144.35,nan,0.00,0.66,0.37,9.29,-0.00,-0.00,0.00
2026-06-23 20:04:32.105,0.10,991.54,99144.35,nan,0.00,0.66,0.37,9.29,-0.00,-0.00,0.00
2026-06-23 20:04:32.293,0.10,991.55,99145.38,nan,0.00,0.66,0.39,9.29,0.00,0.00,-0.00
2026-06-23 20:04:32.295,0.10,991.55,99145.38,nan,0.00,0.66,0.39,9.29,0.00,0.00,-0.00
2026-06-23 20:04:32.297,0.10,991.55,99145.38,nan,0.00,0.66,0.39,9.29,0.00,0.00,-0.00
2026-06-23 20:04:32.302,0.10,991.55,99145.38,nan,0.00,0.66,0.39,9.29,0.00,0.00,-0.00
2026-06-23 20:04:32.304,0.10,991.55,99145.38,nan,0.00,0.66,0.38,9.31,-0.00,-0.00,0.00
2026-06-23 20:04:32.305,0.10,991.55,99145.38,nan,0.00,0.66,0.38,9.31,-0.00,-0.00,0.00
2026-06-23 20:04:32.312,0.10,991.55,99145.38,nan,0.00,0.66,0.38,9.31,-0.00,-0.00,0.00
2026-06-23 20:04:32.316,0.10,991.55,99145.38,nan,0.00,0.65,0.40,9.29,-0.00,0.00,-0.00
2026-06-23 20:04:32.322,0.10,991.55,99145.38,nan,0.00,0.65,0.40,9.29,-0.00,0.00,-0.00
2026-06-23 20:04:32.324,0.10,991.55,99145.38,nan,0.00,0.66,0.38,9.30,0.00,0.00,-0.00
2026-06-23 20:04:32.325,0.10,991.55,99145.38,nan,0.00,0.66,0.38,9.30,0.00,0.00,-0.00
2026-06-23 20:04:32.326,0.10,991.55,99145.38,nan,0.00,0.66,0.38,9.30,0.00,0.00,-0.00
2026-06-23 20:04:32.329,0.10,991.55,99145.38,nan,0.00,0.66,0.38,9.30,0.00,0.00,-0.00
2026-06-23 20:04:32.334,0.10,991.55,99145.38,nan,0.00,0.66,0.38,9.30,0.00,0.00,-0.00
2026-06-23 20:04:32.335,0.10,991.55,99145.38,nan,0.00,0.66,0.37,9.30,0.00,0.00,-0.00
2026-06-23 20:04:32.337,0.10,991.55,99145.38,nan,0.00,0.66,0.37,9.30,0.00,0.00,-0.00
2026-06-23 20:04:32.338,0.10,991.55,99145.38,nan,0.00,0.66,0.37,9.30,0.00,0.00,-0.00
2026-06-23 20:04:32.343,0.10,991.55,99145.38,nan,0.00,0.66,0.37,9.30,-0.00,-0.00,0.00
2026-06-23 20:04:32.345,0.10,991.55,99145.38,nan,0.00,0.66,0.38,9.30,-0.00,-0.00,0.00
2026-06-23 20:04:32.346,0.10,991.55,99145.38,nan,0.00,0.66,0.38,9.30,-0.00,-0.00,0.00
2026-06-23 20:04:32.352,0.10,991.55,99145.38,nan,0.00,0.66,0.38,9.30,-0.00,-0.00,0.00
2026-06-23 20:04:32.353,0.10,991.55,99145.38,nan,0.00,0.66,0.38,9.30,-0.00,0.00,0.00
2026-06-23 20:04:32.355,0.10,991.55,99145.38,nan,0.00,0.66,0.38,9.30,-0.00,0.00,0.00
2026-06-23 20:04:32.356,0.10,991.55,99145.38,nan,0.00,0.66,0.38,9.30,-0.00,0.00,0.00
2026-06-23 20:04:32.357,0.10,991.55,99145.38,nan,0.00,0.66,0.38,9.30,-0.00,0.00,0.00
2026-06-23 20:04:32.362,0.10,991.55,99145.38,nan,0.00,0.66,0.38,9.30,-0.00,0.00,0.00
2026-06-23 20:04:32.364,0.10,991.55,99145.38,nan,0.00,0.66,0.37,9.28,-0.00,0.00,0.00
2026-06-23 20:04:32.367,0.10,991.55,99145.38,nan,0.00,0.66,0.37,9.28,-0.00,0.00,0.00
2026-06-23 20:04:32.373,0.10,991.55,99145.38,nan,0.00,0.66,0.37,9.28,-0.00,0.00,0.00
2026-06-23 20:04:32.375,0.10,991.55,99145.38,nan,0.00,0.66,0.36,9.28,0.00,0.00,0.00
2026-06-23 20:04:32.376,0.10,991.55,99145.38,nan,0.00,0.66,0.36,9.28,0.00,0.00,0.00
2026-06-23 20:04:32.382,0.10,991.55,99145.38,nan,0.00,0.66,0.36,9.28,0.00,0.00,0.00
2026-06-23 20:04:32.384,0.10,991.55,99145.38,nan,0.00,0.67,0.40,9.29,0.00,0.00,0.00
2026-06-23 20:04:32.385,0.10,991.55,99145.38,nan,0.00,0.67,0.40,9.29,0.00,0.00,0.00
2026-06-23 20:04:32.386,0.10,991.55,99145.38,nan,0.00,0.67,0.40,9.29,0.00,0.00,0.00
2026-06-23 20:04:32.387,0.10,991.55,99145.38,nan,0.00,0.67,0.40,9.29,0.00,0.00,0.00
2026-06-23 20:04:32.389,0.10,991.55,99145.38,nan,0.00,0.67,0.40,9.29,0.00,0.00,0.00
2026-06-23 20:04:32.390,0.10,991.55,99145.38,nan,0.00,0.67,0.40,9.29,0.00,0.00,0.00
2026-06-23 20:04:32.391,0.10,991.55,99145.38,nan,0.00,0.67,0.40,9.29,0.00,0.00,0.00
2026-06-23 20:04:32.393,0.10,991.55,99145.38,nan,0.00,0.67,0.40,9.29,-0.00,0.01,0.00
2026-06-23 20:04:32.584,0.10,991.56,99145.69,nan,0.00,0.66,0.38,9.30,-0.00,-0.00,0.00
2026-06-23 20:04:32.585,0.10,991.56,99145.69,nan,0.00,0.66,0.38,9.30,-0.00,-0.00,0.00
2026-06-23 20:04:32.587,0.10,991.56,99145.69,nan,0.00,0.66,0.38,9.30,-0.00,-0.00,0.00
2026-06-23 20:04:32.588,0.10,991.56,99145.69,nan,0.00,0.66,0.38,9.30,-0.00,-0.00,0.00
2026-06-23 20:04:32.589,0.10,991.56,99145.69,nan,0.00,0.66,0.38,9.30,-0.00,-0.00,0.00
2026-06-23 20:04:32.590,0.10,991.56,99145.69,nan,0.00,0.66,0.38,9.30,-0.00,-0.00,0.00
2026-06-23 20:04:32.591,0.10,991.56,99145.69,nan,0.00,0.66,0.38,9.30,-0.00,-0.00,0.00
2026-06-23 20:04:32.594,0.10,991.56,99145.69,nan,0.00,0.66,0.38,9.30,0.00,0.00,0.00
2026-06-23 20:04:32.595,0.10,991.56,99145.69,nan,0.00,0.66,0.40,9.31,0.00,0.00,0.00
2026-06-23 20:04:32.597,0.10,991.56,99145.69,nan,0.00,0.66,0.40,9.31,0.00,0.00,0.00
2026-06-23 20:04:32.601,0.10,991.56,99145.69,nan,0.00,0.66,0.40,9.31,0.00,0.00,0.00
2026-06-23 20:04:32.604,0.10,991.56,99145.69,nan,0.00,0.66,0.40,9.31,0.00,0.00,0.00
2026-06-23 20:04:32.605,0.10,991.56,99145.69,nan,0.00,0.65,0.40,9.29,0.00,0.00,0.00
2026-06-23 20:04:32.606,0.10,991.56,99145.69,nan,0.00,0.65,0.40,9.29,0.00,0.00,0.00
2026-06-23 20:04:32.607,0.10,991.56,99145.69,nan,0.00,0.65,0.40,9.29,0.00,0.00,0.00
2026-06-23 20:04:32.612,0.10,991.56,99145.69,nan,0.00,0.65,0.40,9.29,0.00,0.00,0.00
2026-06-23 20:04:32.614,0.10,991.56,99145.69,nan,0.00,0.65,0.39,9.28,0.00,-0.00,-0.00
2026-06-23 20:04:32.616,0.10,991.56,99145.69,nan,0.00,0.65,0.39,9.28,0.00,-0.00,-0.00
2026-06-23 20:04:32.617,0.10,991.56,99145.69,nan,0.00,0.65,0.39,9.28,0.00,-0.00,-0.00
2026-06-23 20:04:32.622,0.10,991.56,99145.69,nan,0.00,0.65,0.39,9.28,0.00,-0.00,-0.00
2026-06-23 20:04:32.624,0.10,991.56,99145.69,nan,0.00,0.66,0.37,9.29,0.00,0.00,-0.00
2026-06-23 20:04:32.625,0.10,991.56,99145.69,nan,0.00,0.66,0.37,9.29,0.00,0.00,-0.00
2026-06-23 20:04:32.626,0.10,991.56,99145.69,nan,0.00,0.66,0.37,9.29,0.00,0.00,-0.00
2026-06-23 20:04:32.628,0.10,991.56,99145.69,nan,0.00,0.66,0.37,9.29,0.00,0.00,-0.00
2026-06-23 20:04:32.634,0.10,991.56,99145.69,nan,0.00,0.66,0.37,9.29,0.00,0.00,-0.00
2026-06-23 20:04:32.636,0.10,991.56,99145.69,nan,0.00,0.66,0.39,9.28,0.00,-0.00,0.00
2026-06-23 20:04:32.637,0.10,991.56,99145.69,nan,0.00,0.66,0.39,9.28,0.00,-0.00,0.00
2026-06-23 20:04:32.638,0.10,991.56,99145.69,nan,0.00,0.66,0.39,9.28,0.00,-0.00,0.00
2026-06-23 20:04:32.639,0.10,991.56,99145.69,nan,0.00,0.66,0.39,9.28,0.00,-0.00,0.00
2026-06-23 20:04:32.641,0.10,991.56,99145.69,nan,0.00,0.66,0.39,9.28,0.00,-0.00,0.00
2026-06-23 20:04:32.644,0.10,991.56,99145.69,nan,0.00,0.66,0.39,9.28,0.00,-0.00,-0.00
2026-06-23 20:04:32.645,0.10,991.56,99145.69,nan,0.00,0.66,0.37,9.31,0.00,-0.00,-0.00
2026-06-23 20:04:32.647,0.10,991.56,99145.69,nan,0.00,0.66,0.37,9.31,0.00,-0.00,-0.00
2026-06-23 20:04:32.650,0.10,991.56,99145.69,nan,0.00,0.66,0.37,9.31,0.00,-0.00,-0.00
2026-06-23 20:04:32.654,0.10,991.56,99145.69,nan,0.00,0.66,0.37,9.31,0.00,0.00,-0.00
2026-06-23 20:04:32.655,0.10,991.56,99145.69,nan,0.00,0.67,0.36,9.29,0.00,0.00,-0.00
2026-06-23 20:04:32.656,0.10,991.56,99145.69,nan,0.00,0.67,0.36,9.29,0.00,0.00,-0.00
2026-06-23 20:04:32.657,0.10,991.56,99145.69,nan,0.00,0.67,0.36,9.29,0.00,0.00,-0.00
2026-06-23 20:04:32.660,0.10,991.56,99145.69,nan,0.00,0.67,0.36,9.29,0.00,0.00,-0.00
2026-06-23 20:04:32.664,0.10,991.56,99145.69,nan,0.00,0.67,0.36,9.29,0.00,0.00,0.00
2026-06-23 20:04:32.665,0.10,991.56,99145.69,nan,0.00,0.65,0.36,9.30,0.00,0.00,0.00
2026-06-23 20:04:32.667,0.10,991.56,99145.69,nan,0.00,0.65,0.36,9.30,0.00,0.00,0.00
2026-06-23 20:04:32.668,0.10,991.56,99145.69,nan,0.00,0.65,0.36,9.30,0.00,0.00,0.00
2026-06-23 20:04:32.671,0.10,991.56,99145.69,nan,0.00,0.65,0.36,9.30,0.00,0.00,0.00
2026-06-23 20:04:32.674,0.10,991.56,99145.69,nan,0.00,0.65,0.36,9.30,0.00,0.00,-0.00
2026-06-23 20:04:32.675,0.10,991.56,99145.69,nan,0.00,0.66,0.38,9.30,0.00,0.00,-0.00
2026-06-23 20:04:32.676,0.10,991.56,99145.69,nan,0.00,0.66,0.38,9.30,0.00,0.00,-0.00
2026-06-23 20:04:32.678,0.10,991.56,99145.69,nan,0.00,0.66,0.38,9.30,0.00,0.00,-0.00
2026-06-23 20:04:32.684,0.10,991.56,99145.69,nan,0.00,0.66,0.38,9.30,0.00,0.00,-0.00
2026-06-23 20:04:32.874,0.10,991.54,99144.16,nan,0.00,0.66,0.34,9.28,-0.00,-0.00,0.00
2026-06-23 20:04:32.876,0.10,991.54,99144.16,nan,0.00,0.66,0.34,9.28,-0.00,-0.00,0.00
2026-06-23 20:04:32.877,0.10,991.54,99144.16,nan,0.00,0.66,0.34,9.28,-0.00,-0.00,0.00
2026-06-23 20:04:32.880,0.10,991.54,99144.16,nan,0.00,0.66,0.34,9.28,-0.00,-0.00,0.00
2026-06-23 20:04:32.884,0.10,991.54,99144.16,nan,0.00,0.66,0.34,9.28,0.00,-0.00,0.00
2026-06-23 20:04:32.885,0.10,991.54,99144.16,nan,0.00,0.66,0.38,9.31,0.00,-0.00,0.00
2026-06-23 20:04:32.887,0.10,991.54,99144.16,nan,0.00,0.66,0.38,9.31,0.00,-0.00,0.00
2026-06-23 20:04:32.888,0.10,991.54,99144.16,nan,0.00,0.66,0.38,9.31,0.00,-0.00,0.00
2026-06-23 20:04:32.889,0.10,991.54,99144.16,nan,0.00,0.66,0.38,9.31,0.00,-0.00,0.00
2026-06-23 20:04:32.890,0.10,991.54,99144.16,nan,0.00,0.66,0.38,9.31,0.00,-0.00,0.00
2026-06-23 20:04:32.891,0.10,991.54,99144.16,nan,0.00,0.66,0.38,9.31,0.00,-0.00,0.00
2026-06-23 20:04:32.894,0.10,991.54,99144.16,nan,0.00,0.66,0.38,9.31,0.00,-0.00,0.00
2026-06-23 20:04:32.895,0.10,991.54,99144.16,nan,0.00,0.65,0.40,9.31,0.00,-0.00,0.00
2026-06-23 20:04:32.897,0.10,991.54,99144.16,nan,0.00,0.65,0.40,9.31,0.00,-0.00,0.00
2026-06-23 20:04:32.898,0.10,991.54,99144.16,nan,0.00,0.65,0.40,9.31,0.00,-0.00,0.00
2026-06-23 20:04:32.904,0.10,991.54,99144.16,nan,0.00,0.65,0.40,9.31,0.00,-0.00,0.00
2026-06-23 20:04:32.905,0.10,991.54,99144.16,nan,0.00,0.66,0.37,9.30,0.00,0.00,-0.00
2026-06-23 20:04:32.906,0.10,991.54,99144.16,nan,0.00,0.66,0.37,9.30,0.00,0.00,-0.00
2026-06-23 20:04:32.907,0.10,991.54,99144.16,nan,0.00,0.66,0.37,9.30,0.00,0.00,-0.00
2026-06-23 20:04:32.909,0.10,991.54,99144.16,nan,0.00,0.66,0.37,9.30,0.00,0.00,-0.00
2026-06-23 20:04:32.914,0.10,991.54,99144.16,nan,0.00,0.66,0.37,9.30,0.00,0.00,-0.00
2026-06-23 20:04:32.915,0.10,991.54,99144.16,nan,0.00,0.65,0.39,9.29,0.00,0.00,-0.00
2026-06-23 20:04:32.917,0.10,991.54,99144.16,nan,0.00,0.65,0.39,9.29,0.00,0.00,-0.00
2026-06-23 20:04:32.918,0.10,991.54,99144.16,nan,0.00,0.65,0.39,9.29,0.00,0.00,-0.00
2026-06-23 20:04:32.923,0.10,991.54,99144.16,nan,0.00,0.65,0.39,9.29,0.00,0.00,-0.00
2026-06-23 20:04:32.925,0.10,991.54,99144.16,nan,0.00,0.66,0.38,9.31,0.00,-0.00,0.00
2026-06-23 20:04:32.926,0.10,991.54,99144.16,nan,0.00,0.66,0.38,9.31,0.00,-0.00,0.00
2026-06-23 20:04:32.927,0.10,991.54,99144.16,nan,0.00,0.66,0.38,9.31,0.00,-0.00,0.00
2026-06-23 20:04:32.929,0.10,991.54,99144.16,nan,0.00,0.66,0.38,9.31,0.00,-0.00,0.00
2026-06-23 20:04:32.934,0.10,991.54,99144.16,nan,0.00,0.66,0.38,9.31,0.00,-0.00,0.00
2026-06-23 20:04:32.935,0.10,991.54,99144.16,nan,0.00,0.65,0.38,9.30,0.00,-0.00,-0.00
2026-06-23 20:04:32.937,0.10,991.54,99144.16,nan,0.00,0.65,0.38,9.30,0.00,-0.00,-0.00
2026-06-23 20:04:32.938,0.10,991.54,99144.16,nan,0.00,0.65,0.38,9.30,0.00,-0.00,-0.00
2026-06-23 20:04:32.939,0.10,991.54,99144.16,nan,0.00,0.65,0.38,9.30,0.00,-0.00,-0.00
2026-06-23 20:04:32.940,0.10,991.54,99144.16,nan,0.00,0.65,0.38,9.30,0.00,-0.00,-0.00
2026-06-23 20:04:32.941,0.10,991.54,99144.16,nan,0.00,0.65,0.38,9.30,0.00,-0.00,-0.00
2026-06-23 20:04:32.943,0.10,991.54,99144.16,nan,0.00,0.65,0.38,9.30,0.00,-0.00,-0.00
2026-06-23 20:04:32.945,0.10,991.54,99144.16,nan,0.00,0.66,0.38,9.33,0.00,-0.00,0.00
2026-06-23 20:04:32.946,0.10,991.54,99144.16,nan,0.00,0.66,0.38,9.33,0.00,-0.00,0.00
2026-06-23 20:04:32.948,0.10,991.54,99144.16,nan,0.00,0.66,0.38,9.33,0.00,-0.00,0.00
2026-06-23 20:04:32.953,0.10,991.54,99144.16,nan,0.00,0.66,0.38,9.33,0.00,-0.00,0.00
2026-06-23 20:04:32.955,0.10,991.54,99144.16,nan,0.00,0.66,0.38,9.31,-0.00,0.00,-0.00
2026-06-23 20:04:32.956,0.10,991.54,99144.16,nan,0.00,0.66,0.38,9.31,-0.00,0.00,-0.00
2026-06-23 20:04:32.957,0.10,991.54,99144.16,nan,0.00,0.66,0.38,9.31,-0.00,0.00,-0.00
2026-06-23 20:04:32.958,0.10,991.54,99144.16,nan,0.00,0.66,0.38,9.31,-0.00,0.00,-0.00
2026-06-23 20:04:32.963,0.10,991.54,99144.16,nan,0.00,0.66,0.38,9.31,-0.00,0.00,-0.00
2026-06-23 20:04:32.965,0.10,991.54,99144.16,nan,0.00,0.65,0.38,9.27,0.00,0.00,-0.00
2026-06-23 20:04:32.967,0.10,991.54,99144.16,nan,0.00,0.65,0.38,9.27,0.00,0.00,-0.00
2026-06-23 20:04:32.968,0.10,991.54,99144.16,nan,0.00,0.65,0.38,9.27,0.00,0.00,-0.00
2026-06-23 20:04:32.969,0.10,991.54,99144.16,nan,0.00,0.65,0.38,9.27,0.00,0.00,-0.00
2026-06-23 20:04:32.974,0.10,991.54,99144.16,nan,0.00,0.65,0.38,9.27,0.00,0.00,-0.00
2026-06-23 20:04:33.166,0.10,991.57,99146.96,nan,0.00,0.67,0.37,9.29,0.00,0.00,0.00
2026-06-23 20:04:33.167,0.10,991.57,99146.96,nan,0.00,0.67,0.37,9.29,0.00,0.00,0.00
2026-06-23 20:04:33.168,0.10,991.57,99146.96,nan,0.00,0.67,0.37,9.29,0.00,0.00,0.00
2026-06-23 20:04:33.170,0.10,991.57,99146.96,nan,0.00,0.67,0.37,9.29,0.00,0.00,0.00
2026-06-23 20:04:33.174,0.10,991.57,99146.96,nan,0.00,0.67,0.37,9.29,0.00,0.00,0.00
2026-06-23 20:04:33.176,0.10,991.57,99146.96,nan,0.00,0.67,0.39,9.32,0.00,-0.00,-0.00
2026-06-23 20:04:33.177,0.10,991.57,99146.96,nan,0.00,0.67,0.39,9.32,0.00,-0.00,-0.00
2026-06-23 20:04:33.178,0.10,991.57,99146.96,nan,0.00,0.67,0.39,9.32,0.00,-0.00,-0.00
2026-06-23 20:04:33.182,0.10,991.57,99146.96,nan,0.00,0.67,0.39,9.32,0.00,-0.00,-0.00
2026-06-23 20:04:33.185,0.10,991.57,99146.96,nan,0.00,0.67,0.39,9.32,0.00,-0.00,0.00
2026-06-23 20:04:33.186,0.10,991.57,99146.96,nan,0.00,0.66,0.39,9.30,0.00,-0.00,0.00
2026-06-23 20:04:33.188,0.10,991.57,99146.96,nan,0.00,0.66,0.39,9.30,0.00,-0.00,0.00
2026-06-23 20:04:33.189,0.10,991.57,99146.96,nan,0.00,0.66,0.39,9.30,0.00,-0.00,0.00
2026-06-23 20:04:33.190,0.10,991.57,99146.96,nan,0.00,0.66,0.39,9.30,0.00,-0.00,0.00
2026-06-23 20:04:33.191,0.10,991.57,99146.96,nan,0.00,0.66,0.39,9.30,0.00,-0.00,0.00
2026-06-23 20:04:33.192,0.10,991.57,99146.96,nan,0.00,0.66,0.39,9.30,0.00,-0.00,0.00
2026-06-23 20:04:33.194,0.10,991.57,99146.96,nan,0.00,0.66,0.39,9.30,0.00,-0.00,0.00
2026-06-23 20:04:33.195,0.10,991.57,99146.96,nan,0.00,0.66,0.38,9.30,0.00,0.00,-0.00
2026-06-23 20:04:33.197,0.10,991.57,99146.96,nan,0.00,0.66,0.38,9.30,0.00,0.00,-0.00
2026-06-23 20:04:33.198,0.10,991.57,99146.96,nan,0.00,0.66,0.38,9.30,0.00,0.00,-0.00
2026-06-23 20:04:33.204,0.10,991.57,99146.96,nan,0.00,0.66,0.38,9.30,0.00,0.00,-0.00
2026-06-23 20:04:33.205,0.10,991.57,99146.96,nan,0.00,0.66,0.39,9.30,-0.00,0.00,-0.00
2026-06-23 20:04:33.206,0.10,991.57,99146.96,nan,0.00,0.66,0.39,9.30,-0.00,0.00,-0.00
2026-06-23 20:04:33.208,0.10,991.57,99146.96,nan,0.00,0.66,0.39,9.30,-0.00,0.00,-0.00
2026-06-23 20:04:33.209,0.10,991.57,99146.96,nan,0.00,0.66,0.39,9.30,-0.00,0.00,-0.00
2026-06-23 20:04:33.213,0.10,991.57,99146.96,nan,0.00,0.66,0.39,9.30,-0.00,0.00,-0.00
2026-06-23 20:04:33.216,0.10,991.57,99146.96,nan,0.00,0.66,0.39,9.28,0.00,-0.00,0.00
2026-06-23 20:04:33.217,0.10,991.57,99146.96,nan,0.00,0.66,0.39,9.28,0.00,-0.00,0.00
2026-06-23 20:04:33.218,0.10,991.57,99146.96,nan,0.00,0.66,0.39,9.28,0.00,-0.00,0.00
2026-06-23 20:04:33.220,0.10,991.57,99146.96,nan,0.00,0.66,0.39,9.28,0.00,-0.00,0.00
2026-06-23 20:04:33.225,0.10,991.57,99146.96,nan,0.00,0.66,0.39,9.28,0.00,-0.00,0.00
2026-06-23 20:04:33.226,0.10,991.57,99146.96,nan,0.00,0.67,0.39,9.31,-0.00,0.00,0.00
2026-06-23 20:04:33.227,0.10,991.57,99146.96,nan,0.00,0.67,0.39,9.31,-0.00,0.00,0.00
2026-06-23 20:04:33.228,0.10,991.57,99146.96,nan,0.00,0.67,0.39,9.31,-0.00,0.00,0.00
2026-06-23 20:04:33.233,0.10,991.57,99146.96,nan,0.00,0.67,0.39,9.31,-0.00,0.00,0.00
2026-06-23 20:04:33.235,0.10,991.57,99146.96,nan,0.00,0.67,0.41,9.32,-0.00,0.00,-0.00
2026-06-23 20:04:33.237,0.10,991.57,99146.96,nan,0.00,0.67,0.41,9.32,-0.00,0.00,-0.00
2026-06-23 20:04:33.238,0.10,991.57,99146.96,nan,0.00,0.67,0.41,9.32,-0.00,0.00,-0.00
2026-06-23 20:04:33.239,0.10,991.57,99146.96,nan,0.00,0.67,0.41,9.32,-0.00,0.00,-0.00
2026-06-23 20:04:33.240,0.10,991.57,99146.96,nan,0.00,0.67,0.41,9.32,-0.00,0.00,-0.00
2026-06-23 20:04:33.242,0.10,991.57,99146.96,nan,0.00,0.67,0.41,9.32,-0.00,0.00,-0.00
2026-06-23 20:04:33.245,0.10,991.57,99146.96,nan,0.00,0.67,0.41,9.32,0.00,0.00,-0.00
2026-06-23 20:04:33.247,0.10,991.57,99146.96,nan,0.00,0.67,0.38,9.31,0.00,0.00,-0.00
2026-06-23 20:04:33.248,0.10,991.57,99146.96,nan,0.00,0.67,0.38,9.31,0.00,0.00,-0.00
2026-06-23 20:04:33.254,0.10,991.57,99146.96,nan,0.00,0.67,0.38,9.31,0.00,0.00,-0.00
2026-06-23 20:04:33.256,0.10,991.57,99146.96,nan,0.00,0.66,0.36,9.31,-0.00,0.00,0.00
2026-06-23 20:04:33.257,0.10,991.57,99146.96,nan,0.00,0.66,0.36,9.31,-0.00,0.00,0.00
2026-06-23 20:04:33.258,0.10,991.57,99146.96,nan,0.00,0.66,0.36,9.31,-0.00,0.00,0.00
2026-06-23 20:04:33.259,0.10,991.57,99146.96,nan,0.00,0.66,0.36,9.31,-0.00,0.00,0.00
2026-06-23 20:04:33.265,0.10,991.57,99146.96,nan,0.00,0.66,0.36,9.31,-0.00,0.00,0.00
2026-06-23 20:04:33.455,0.10,991.58,99148.13,nan,0.00,0.67,0.38,9.29,0.00,-0.00,0.00
2026-06-23 20:04:33.457,0.10,991.58,99148.13,nan,0.00,0.66,0.40,9.29,0.00,-0.00,0.00
2026-06-23 20:04:33.458,0.10,991.58,99148.13,nan,0.00,0.66,0.40,9.29,0.00,-0.00,0.00
2026-06-23 20:04:33.459,0.10,991.58,99148.13,nan,0.00,0.66,0.40,9.29,0.00,-0.00,0.00
2026-06-23 20:04:33.463,0.10,991.58,99148.13,nan,0.00,0.66,0.40,9.29,0.00,-0.00,0.00
2026-06-23 20:04:33.466,0.10,991.58,99148.13,nan,0.00,0.66,0.40,9.29,0.00,-0.00,0.00
2026-06-23 20:04:33.467,0.10,991.58,99148.13,nan,0.00,0.66,0.40,9.27,0.00,-0.00,0.00
2026-06-23 20:04:33.469,0.10,991.58,99148.13,nan,0.00,0.66,0.40,9.27,0.00,-0.00,0.00
2026-06-23 20:04:33.470,0.10,991.58,99148.13,nan,0.00,0.66,0.40,9.27,0.00,-0.00,0.00
2026-06-23 20:04:33.473,0.10,991.58,99148.13,nan,0.00,0.66,0.40,9.27,0.00,-0.00,0.00
2026-06-23 20:04:33.476,0.10,991.58,99148.13,nan,0.00,0.66,0.40,9.27,-0.00,-0.00,0.00
2026-06-23 20:04:33.477,0.10,991.58,99148.13,nan,0.00,0.67,0.37,9.30,-0.00,-0.00,0.00
2026-06-23 20:04:33.478,0.10,991.58,99148.13,nan,0.00,0.67,0.37,9.30,-0.00,-0.00,0.00
2026-06-23 20:04:33.480,0.10,991.58,99148.13,nan,0.00,0.67,0.37,9.30,-0.00,-0.00,0.00
2026-06-23 20:04:33.485,0.10,991.58,99148.13,nan,0.00,0.67,0.37,9.30,-0.00,-0.00,0.00
2026-06-23 20:04:33.487,0.10,991.58,99148.13,nan,0.00,0.67,0.37,9.32,-0.00,0.00,0.00
2026-06-23 20:04:33.488,0.10,991.58,99148.13,nan,0.00,0.67,0.37,9.32,-0.00,0.00,0.00
2026-06-23 20:04:33.489,0.10,991.58,99148.13,nan,0.00,0.67,0.37,9.32,-0.00,0.00,0.00
2026-06-23 20:04:33.490,0.10,991.58,99148.13,nan,0.00,0.67,0.37,9.32,-0.00,0.00,0.00
2026-06-23 20:04:33.491,0.10,991.58,99148.13,nan,0.00,0.67,0.37,9.32,-0.00,0.00,0.00
2026-06-23 20:04:33.493,0.10,991.58,99148.13,nan,0.00,0.67,0.37,9.32,-0.00,0.00,0.00
2026-06-23 20:04:33.496,0.10,991.58,99148.13,nan,0.00,0.67,0.37,9.32,-0.00,0.00,-0.00
2026-06-23 20:04:33.497,0.10,991.58,99148.13,nan,0.00,0.66,0.38,9.29,-0.00,0.00,-0.00
2026-06-23 20:04:33.499,0.10,991.58,99148.13,nan,0.00,0.66,0.38,9.29,-0.00,0.00,-0.00
2026-06-23 20:04:33.504,0.10,991.58,99148.13,nan,0.00,0.66,0.38,9.29,-0.00,0.00,-0.00
2026-06-23 20:04:33.506,0.10,991.58,99148.13,nan,0.00,0.67,0.40,9.29,0.00,0.00,0.00
2026-06-23 20:04:33.507,0.10,991.58,99148.13,nan,0.00,0.67,0.40,9.29,0.00,0.00,0.00
2026-06-23 20:04:33.508,0.10,991.58,99148.13,nan,0.00,0.67,0.40,9.29,0.00,0.00,0.00
2026-06-23 20:04:33.510,0.10,991.58,99148.13,nan,0.00,0.67,0.40,9.29,0.00,0.00,0.00
2026-06-23 20:04:33.515,0.10,991.58,99148.13,nan,0.00,0.67,0.40,9.29,0.00,0.00,0.00
2026-06-23 20:04:33.517,0.10,991.58,99148.13,nan,0.00,0.66,0.36,9.29,-0.00,0.00,0.00
2026-06-23 20:04:33.518,0.10,991.58,99148.13,nan,0.00,0.66,0.36,9.29,-0.00,0.00,0.00
2026-06-23 20:04:33.519,0.10,991.58,99148.13,nan,0.00,0.66,0.36,9.29,-0.00,0.00,0.00
2026-06-23 20:04:33.525,0.10,991.58,99148.13,nan,0.00,0.66,0.36,9.29,-0.00,0.00,0.00
2026-06-23 20:04:33.526,0.10,991.58,99148.13,nan,0.00,0.67,0.40,9.32,-0.00,-0.00,0.00
2026-06-23 20:04:33.528,0.10,991.58,99148.13,nan,0.00,0.67,0.40,9.32,-0.00,-0.00,0.00
2026-06-23 20:04:33.529,0.10,991.58,99148.13,nan,0.00,0.67,0.40,9.32,-0.00,-0.00,0.00
2026-06-23 20:04:33.535,0.10,991.58,99148.13,nan,0.00,0.67,0.40,9.32,-0.00,-0.00,0.00
2026-06-23 20:04:33.537,0.10,991.58,99148.13,nan,0.00,0.66,0.39,9.30,0.00,-0.00,0.00
2026-06-23 20:04:33.538,0.10,991.58,99148.13,nan,0.00,0.66,0.39,9.30,0.00,-0.00,0.00
2026-06-23 20:04:33.539,0.10,991.58,99148.13,nan,0.00,0.66,0.39,9.30,0.00,-0.00,0.00
2026-06-23 20:04:33.540,0.10,991.58,99148.13,nan,0.00,0.66,0.39,9.30,0.00,-0.00,0.00
2026-06-23 20:04:33.542,0.10,991.58,99148.13,nan,0.00,0.66,0.39,9.30,0.00,-0.00,0.00
2026-06-23 20:04:33.543,0.10,991.58,99148.13,nan,0.00,0.66,0.39,9.30,0.00,-0.00,0.00
2026-06-23 20:04:33.547,0.10,991.58,99148.13,nan,0.00,0.66,0.39,9.30,-0.00,-0.00,0.00
2026-06-23 20:04:33.549,0.10,991.58,99148.13,nan,0.00,0.66,0.39,9.31,-0.00,-0.00,0.00
2026-06-23 20:04:33.555,0.10,991.58,99148.13,nan,0.00,0.66,0.39,9.31,-0.00,-0.00,0.00
2026-06-23 20:04:33.746,0.10,991.57,99147.15,nan,0.00,0.66,0.37,9.30,-0.00,-0.00,0.00
2026-06-23 20:04:33.748,0.10,991.57,99147.15,nan,0.00,0.66,0.38,9.29,-0.00,-0.00,0.00
2026-06-23 20:04:33.750,0.10,991.57,99147.15,nan,0.00,0.66,0.38,9.29,-0.00,-0.00,0.00
2026-06-23 20:04:33.755,0.10,991.57,99147.15,nan,0.00,0.66,0.38,9.29,-0.00,-0.00,0.00
2026-06-23 20:04:33.756,0.10,991.57,99147.15,nan,0.00,0.65,0.37,9.28,0.00,0.00,0.00
2026-06-23 20:04:33.758,0.10,991.57,99147.15,nan,0.00,0.65,0.37,9.28,0.00,0.00,0.00
2026-06-23 20:04:33.759,0.10,991.57,99147.15,nan,0.00,0.65,0.37,9.28,0.00,0.00,0.00
2026-06-23 20:04:33.760,0.10,991.57,99147.15,nan,0.00,0.65,0.37,9.28,0.00,0.00,0.00
2026-06-23 20:04:33.766,0.10,991.57,99147.15,nan,0.00,0.65,0.37,9.28,0.00,0.00,0.00
2026-06-23 20:04:33.767,0.10,991.57,99147.15,nan,0.00,0.66,0.39,9.30,0.00,-0.00,-0.00
2026-06-23 20:04:33.768,0.10,991.57,99147.15,nan,0.00,0.66,0.39,9.30,0.00,-0.00,-0.00
2026-06-23 20:04:33.770,0.10,991.57,99147.15,nan,0.00,0.66,0.39,9.30,0.00,-0.00,-0.00
2026-06-23 20:04:33.771,0.10,991.57,99147.15,nan,0.00,0.66,0.39,9.30,0.00,-0.00,-0.00
2026-06-23 20:04:33.776,0.10,991.57,99147.15,nan,0.00,0.66,0.39,9.30,0.00,-0.00,-0.00
2026-06-23 20:04:33.777,0.10,991.57,99147.15,nan,0.00,0.67,0.40,9.29,0.00,-0.00,0.00
2026-06-23 20:04:33.779,0.10,991.57,99147.15,nan,0.00,0.67,0.40,9.29,0.00,-0.00,0.00
2026-06-23 20:04:33.780,0.10,991.57,99147.15,nan,0.00,0.67,0.40,9.29,0.00,-0.00,0.00
2026-06-23 20:04:33.786,0.10,991.57,99147.15,nan,0.00,0.67,0.40,9.29,0.00,-0.00,0.00
2026-06-23 20:04:33.787,0.10,991.57,99147.15,nan,0.00,0.66,0.38,9.28,0.00,0.00,0.00
2026-06-23 20:04:33.788,0.10,991.57,99147.15,nan,0.00,0.66,0.38,9.28,0.00,0.00,0.00
2026-06-23 20:04:33.790,0.10,991.57,99147.15,nan,0.00,0.66,0.38,9.28,0.00,0.00,0.00
2026-06-23 20:04:33.791,0.10,991.57,99147.15,nan,0.00,0.66,0.38,9.28,0.00,0.00,0.00
2026-06-23 20:04:33.792,0.10,991.57,99147.15,nan,0.00,0.66,0.38,9.28,0.00,0.00,0.00
2026-06-23 20:04:33.793,0.10,991.57,99147.15,nan,0.00,0.66,0.38,9.28,0.00,0.00,0.00
2026-06-23 20:04:33.796,0.10,991.57,99147.15,nan,0.00,0.66,0.38,9.28,0.00,0.00,0.00
2026-06-23 20:04:33.797,0.10,991.57,99147.15,nan,0.00,0.66,0.38,9.28,0.00,-0.00,-0.00
2026-06-23 20:04:33.799,0.10,991.57,99147.15,nan,0.00,0.66,0.38,9.28,0.00,-0.00,-0.00
2026-06-23 20:04:33.800,0.10,991.57,99147.15,nan,0.00,0.66,0.38,9.28,0.00,-0.00,-0.00
2026-06-23 20:04:33.806,0.10,991.57,99147.15,nan,0.00,0.66,0.38,9.28,0.00,-0.00,-0.00
2026-06-23 20:04:33.807,0.10,991.57,99147.15,nan,0.00,0.67,0.38,9.30,0.00,-0.00,0.00
2026-06-23 20:04:33.808,0.10,991.57,99147.15,nan,0.00,0.67,0.38,9.30,0.00,-0.00,0.00
2026-06-23 20:04:33.810,0.10,991.57,99147.15,nan,0.00,0.67,0.38,9.30,0.00,-0.00,0.00
2026-06-23 20:04:33.815,0.10,991.57,99147.15,nan,0.00,0.67,0.38,9.30,0.00,-0.00,0.00
2026-06-23 20:04:33.817,0.10,991.57,99147.15,nan,0.00,0.67,0.38,9.29,0.00,0.00,0.00
2026-06-23 20:04:33.818,0.10,991.57,99147.15,nan,0.00,0.67,0.38,9.29,0.00,0.00,0.00
2026-06-23 20:04:33.819,0.10,991.57,99147.15,nan,0.00,0.67,0.38,9.29,0.00,0.00,0.00
2026-06-23 20:04:33.820,0.10,991.57,99147.15,nan,0.00,0.67,0.38,9.29,0.00,0.00,0.00
2026-06-23 20:04:33.826,0.10,991.57,99147.15,nan,0.00,0.67,0.38,9.29,0.00,0.00,0.00
2026-06-23 20:04:33.827,0.10,991.57,99147.15,nan,0.00,0.66,0.38,9.29,0.00,-0.00,0.00
2026-06-23 20:04:33.828,0.10,991.57,99147.15,nan,0.00,0.66,0.38,9.29,0.00,-0.00,0.00
2026-06-23 20:04:33.830,0.10,991.57,99147.15,nan,0.00,0.66,0.38,9.29,0.00,-0.00,0.00
2026-06-23 20:04:33.836,0.10,991.57,99147.15,nan,0.00,0.66,0.38,9.29,0.00,-0.00,0.00
2026-06-23 20:04:33.837,0.10,991.57,99147.15,nan,0.00,0.66,0.38,9.29,0.00,-0.00,-0.00
2026-06-23 20:04:33.839,0.10,991.57,99147.15,nan,0.00,0.66,0.38,9.29,0.00,-0.00,-0.00
2026-06-23 20:04:33.840,0.10,991.57,99147.15,nan,0.00,0.66,0.38,9.29,0.00,-0.00,-0.00
2026-06-23 20:04:33.841,0.10,991.57,99147.15,nan,0.00,0.66,0.38,9.29,0.00,-0.00,-0.00
2026-06-23 20:04:33.842,0.10,991.57,99147.15,nan,0.00,0.66,0.38,9.29,0.00,-0.00,-0.00
2026-06-23 20:04:33.844,0.10,991.57,99147.15,nan,0.00,0.66,0.38,9.29,0.00,-0.00,-0.00
2026-06-23 20:04:34.037,0.10,991.58,99148.35,nan,0.00,0.67,0.38,9.30,0.00,0.00,0.00
2026-06-23 20:04:34.038,0.10,991.58,99148.35,nan,0.00,0.66,0.37,9.31,0.00,-0.00,0.00
2026-06-23 20:04:34.039,0.10,991.58,99148.35,nan,0.00,0.66,0.37,9.31,0.00,-0.00,0.00
2026-06-23 20:04:34.040,0.10,991.58,99148.35,nan,0.00,0.66,0.37,9.31,0.00,-0.00,0.00
2026-06-23 20:04:34.042,0.10,991.58,99148.35,nan,0.00,0.66,0.37,9.31,0.00,-0.00,0.00
2026-06-23 20:04:34.043,0.10,991.58,99148.35,nan,0.00,0.66,0.37,9.31,0.00,-0.00,0.00
2026-06-23 20:04:34.046,0.10,991.58,99148.35,nan,0.00,0.66,0.37,9.31,0.00,-0.00,0.00
2026-06-23 20:04:34.048,0.10,991.58,99148.35,nan,0.00,0.66,0.40,9.30,0.00,0.00,0.00
2026-06-23 20:04:34.050,0.10,991.58,99148.35,nan,0.00,0.66,0.40,9.30,0.00,0.00,0.00
2026-06-23 20:04:34.051,0.10,991.58,99148.35,nan,0.00,0.66,0.40,9.30,0.00,0.00,0.00
2026-06-23 20:04:34.056,0.10,991.58,99148.35,nan,0.00,0.66,0.40,9.30,0.00,0.00,0.00
2026-06-23 20:04:34.058,0.10,991.58,99148.35,nan,0.00,0.65,0.38,9.31,0.00,0.00,0.00
2026-06-23 20:04:34.059,0.10,991.58,99148.35,nan,0.00,0.65,0.38,9.31,0.00,0.00,0.00
2026-06-23 20:04:34.060,0.10,991.58,99148.35,nan,0.00,0.65,0.38,9.31,0.00,0.00,0.00
2026-06-23 20:04:34.065,0.10,991.58,99148.35,nan,0.00,0.65,0.38,9.31,0.00,0.00,0.00
2026-06-23 20:04:34.067,0.10,991.58,99148.35,nan,0.00,0.65,0.39,9.27,-0.00,0.00,0.00
2026-06-23 20:04:34.068,0.10,991.58,99148.35,nan,0.00,0.65,0.39,9.27,-0.00,0.00,0.00
2026-06-23 20:04:34.070,0.10,991.58,99148.35,nan,0.00,0.65,0.39,9.27,-0.00,0.00,0.00
2026-06-23 20:04:34.071,0.10,991.58,99148.35,nan,0.00,0.65,0.39,9.27,-0.00,0.00,0.00
2026-06-23 20:04:34.072,0.10,991.58,99148.35,nan,0.00,0.65,0.39,9.27,-0.00,0.00,0.00
2026-06-23 20:04:34.077,0.10,991.58,99148.35,nan,0.00,0.65,0.39,9.27,0.00,0.00,0.00
2026-06-23 20:04:34.078,0.10,991.58,99148.35,nan,0.00,0.67,0.39,9.31,0.00,0.00,0.00
2026-06-23 20:04:34.079,0.10,991.58,99148.35,nan,0.00,0.67,0.39,9.31,0.00,0.00,0.00
2026-06-23 20:04:34.082,0.10,991.58,99148.35,nan,0.00,0.67,0.39,9.31,0.00,0.00,0.00
2026-06-23 20:04:34.087,0.10,991.58,99148.35,nan,0.00,0.67,0.39,9.31,0.00,0.00,-0.00
2026-06-23 20:04:34.088,0.10,991.58,99148.35,nan,0.00,0.66,0.37,9.29,0.00,0.00,-0.00
2026-06-23 20:04:34.089,0.10,991.58,99148.35,nan,0.00,0.66,0.37,9.29,0.00,0.00,-0.00
2026-06-23 20:04:34.091,0.10,991.58,99148.35,nan,0.00,0.66,0.37,9.29,0.00,0.00,-0.00
2026-06-23 20:04:34.092,0.10,991.58,99148.35,nan,0.00,0.66,0.37,9.29,0.00,0.00,-0.00
2026-06-23 20:04:34.093,0.10,991.58,99148.35,nan,0.00,0.66,0.37,9.29,0.00,0.00,-0.00
2026-06-23 20:04:34.094,0.10,991.58,99148.35,nan,0.00,0.66,0.37,9.29,0.00,0.00,-0.00
2026-06-23 20:04:34.097,0.10,991.58,99148.35,nan,0.00,0.66,0.37,9.29,-0.00,0.00,0.00
2026-06-23 20:04:34.099,0.10,991.58,99148.35,nan,0.00,0.67,0.36,9.30,-0.00,0.00,0.00
2026-06-23 20:04:34.100,0.10,991.58,99148.35,nan,0.00,0.67,0.36,9.30,-0.00,0.00,0.00
2026-06-23 20:04:34.103,0.10,991.58,99148.35,nan,0.00,0.67,0.36,9.30,-0.00,0.00,0.00
2026-06-23 20:04:34.107,0.10,991.58,99148.35,nan,0.00,0.67,0.36,9.30,0.00,0.00,-0.00
2026-06-23 20:04:34.108,0.10,991.58,99148.35,nan,0.00,0.67,0.38,9.30,0.00,0.00,-0.00
2026-06-23 20:04:34.109,0.10,991.58,99148.35,nan,0.00,0.67,0.38,9.30,0.00,0.00,-0.00
2026-06-23 20:04:34.110,0.10,991.58,99148.35,nan,0.00,0.67,0.38,9.30,0.00,0.00,-0.00
2026-06-23 20:04:34.116,0.10,991.58,99148.35,nan,0.00,0.67,0.38,9.30,0.00,0.00,-0.00
2026-06-23 20:04:34.118,0.10,991.58,99148.35,nan,0.00,0.66,0.39,9.29,0.00,0.00,0.00
2026-06-23 20:04:34.119,0.10,991.58,99148.35,nan,0.00,0.66,0.39,9.29,0.00,0.00,0.00
2026-06-23 20:04:34.120,0.10,991.58,99148.35,nan,0.00,0.66,0.39,9.29,0.00,0.00,0.00
2026-06-23 20:04:34.121,0.10,991.58,99148.35,nan,0.00,0.66,0.39,9.29,0.00,0.00,0.00
2026-06-23 20:04:34.126,0.10,991.58,99148.35,nan,0.00,0.66,0.39,9.29,0.00,0.00,0.00
2026-06-23 20:04:34.128,0.10,991.58,99148.35,nan,0.00,0.65,0.37,9.28,0.00,-0.00,0.00
2026-06-23 20:04:34.129,0.10,991.58,99148.35,nan,0.00,0.65,0.37,9.28,0.00,-0.00,0.00
2026-06-23 20:04:34.131,0.10,991.58,99148.35,nan,0.00,0.65,0.37,9.28,0.00,-0.00,0.00
2026-06-23 20:04:34.137,0.10,991.58,99148.35,nan,0.00,0.65,0.37,9.28,0.00,-0.00,0.00
2026-06-23 20:04:34.328,0.10,991.56,99146.46,nan,0.00,0.67,0.39,9.28,0.00,0.00,0.00
2026-06-23 20:04:34.329,0.10,991.56,99146.46,nan,0.00,0.66,0.38,9.27,0.00,0.00,0.00
2026-06-23 20:04:34.331,0.10,991.56,99146.46,nan,0.00,0.66,0.38,9.27,0.00,0.00,0.00
2026-06-23 20:04:34.336,0.10,991.56,99146.46,nan,0.00,0.66,0.38,9.27,0.00,0.00,0.00
2026-06-23 20:04:34.338,0.10,991.56,99146.46,nan,0.00,0.66,0.38,9.32,0.00,0.00,0.00
2026-06-23 20:04:34.339,0.10,991.56,99146.46,nan,0.00,0.66,0.38,9.32,0.00,0.00,0.00
2026-06-23 20:04:34.341,0.10,991.56,99146.46,nan,0.00,0.66,0.38,9.32,0.00,0.00,0.00
2026-06-23 20:04:34.342,0.10,991.56,99146.46,nan,0.00,0.66,0.38,9.32,0.00,0.00,0.00
2026-06-23 20:04:34.343,0.10,991.56,99146.46,nan,0.00,0.66,0.38,9.32,0.00,0.00,0.00
2026-06-23 20:04:34.345,0.10,991.56,99146.46,nan,0.00,0.66,0.38,9.32,0.00,0.00,0.00
2026-06-23 20:04:34.348,0.10,991.56,99146.46,nan,0.00,0.66,0.38,9.32,0.00,-0.00,0.00
2026-06-23 20:04:34.349,0.10,991.56,99146.46,nan,0.00,0.66,0.36,9.32,0.00,-0.00,0.00
2026-06-23 20:04:34.351,0.10,991.56,99146.46,nan,0.00,0.66,0.36,9.32,0.00,-0.00,0.00
2026-06-23 20:04:34.353,0.10,991.56,99146.46,nan,0.00,0.66,0.36,9.32,0.00,-0.00,0.00
2026-06-23 20:04:34.357,0.10,991.56,99146.46,nan,0.00,0.66,0.36,9.32,0.00,-0.00,0.00
2026-06-23 20:04:34.359,0.10,991.56,99146.46,nan,0.00,0.67,0.38,9.29,0.00,-0.00,0.00
2026-06-23 20:04:34.360,0.10,991.56,99146.46,nan,0.00,0.67,0.38,9.29,0.00,-0.00,0.00
2026-06-23 20:04:34.361,0.10,991.56,99146.46,nan,0.00,0.67,0.38,9.29,0.00,-0.00,0.00
2026-06-23 20:04:34.367,0.10,991.56,99146.46,nan,0.00,0.67,0.38,9.29,0.00,-0.00,0.00
2026-06-23 20:04:34.368,0.10,991.56,99146.46,nan,0.00,0.65,0.39,9.27,0.00,-0.00,0.00
2026-06-23 20:04:34.370,0.10,991.56,99146.46,nan,0.00,0.65,0.39,9.27,0.00,-0.00,0.00
2026-06-23 20:04:34.371,0.10,991.56,99146.46,nan,0.00,0.65,0.39,9.27,0.00,-0.00,0.00
2026-06-23 20:04:34.372,0.10,991.56,99146.46,nan,0.00,0.65,0.39,9.27,0.00,-0.00,0.00
2026-06-23 20:04:34.377,0.10,991.56,99146.46,nan,0.00,0.65,0.39,9.27,0.00,-0.00,0.00
2026-06-23 20:04:34.379,0.10,991.56,99146.46,nan,0.00,0.66,0.40,9.28,0.00,-0.00,0.00
2026-06-23 20:04:34.380,0.10,991.56,99146.46,nan,0.00,0.66,0.40,9.28,0.00,-0.00,0.00
2026-06-23 20:04:34.382,0.10,991.56,99146.46,nan,0.00,0.66,0.40,9.28,0.00,-0.00,0.00
2026-06-23 20:04:34.387,0.10,991.56,99146.46,nan,0.00,0.66,0.40,9.28,0.00,-0.00,0.00
2026-06-23 20:04:34.389,0.10,991.56,99146.46,nan,0.00,0.66,0.38,9.28,0.00,0.00,-0.00
2026-06-23 20:04:34.390,0.10,991.56,99146.46,nan,0.00,0.66,0.38,9.28,0.00,0.00,-0.00
2026-06-23 20:04:34.391,0.10,991.56,99146.46,nan,0.00,0.66,0.38,9.28,0.00,0.00,-0.00
2026-06-23 20:04:34.392,0.10,991.56,99146.46,nan,0.00,0.66,0.38,9.28,0.00,0.00,-0.00
2026-06-23 20:04:34.393,0.10,991.56,99146.46,nan,0.00,0.66,0.38,9.28,0.00,0.00,-0.00
2026-06-23 20:04:34.395,0.10,991.56,99146.46,nan,0.00,0.66,0.38,9.28,0.00,0.00,-0.00
2026-06-23 20:04:34.398,0.10,991.56,99146.46,nan,0.00,0.66,0.38,9.28,0.00,0.00,0.00
2026-06-23 20:04:34.399,0.10,991.56,99146.46,nan,0.00,0.66,0.40,9.33,0.00,0.00,0.00
2026-06-23 20:04:34.401,0.10,991.56,99146.46,nan,0.00,0.66,0.40,9.33,0.00,0.00,0.00
2026-06-23 20:04:34.405,0.10,991.56,99146.46,nan,0.00,0.66,0.40,9.33,0.00,0.00,0.00
2026-06-23 20:04:34.408,0.10,991.56,99146.46,nan,0.00,0.66,0.40,9.33,-0.00,-0.00,0.00
2026-06-23 20:04:34.409,0.10,991.56,99146.46,nan,0.00,0.66,0.37,9.32,-0.00,-0.00,0.00
2026-06-23 20:04:34.410,0.10,991.56,99146.46,nan,0.00,0.66,0.37,9.32,-0.00,-0.00,0.00
2026-06-23 20:04:34.411,0.10,991.56,99146.46,nan,0.00,0.66,0.37,9.32,-0.00,-0.00,0.00
2026-06-23 20:04:34.417,0.10,991.56,99146.46,nan,0.00,0.66,0.37,9.32,-0.00,-0.00,0.00
2026-06-23 20:04:34.419,0.10,991.56,99146.46,nan,0.00,0.67,0.38,9.27,0.00,-0.00,-0.00
2026-06-23 20:04:34.420,0.10,991.56,99146.46,nan,0.00,0.67,0.38,9.27,0.00,-0.00,-0.00
2026-06-23 20:04:34.421,0.10,991.56,99146.46,nan,0.00,0.67,0.38,9.27,0.00,-0.00,-0.00
2026-06-23 20:04:34.424,0.10,991.56,99146.46,nan,0.00,0.67,0.38,9.27,0.00,-0.00,-0.00
2026-06-23 20:04:34.428,0.10,991.56,99146.46,nan,0.00,0.67,0.38,9.27,0.00,-0.00,0.00
2026-06-23 20:04:34.618,0.10,991.57,99146.79,nan,0.00,0.66,0.38,9.30,-0.00,-0.00,0.00
2026-06-23 20:04:34.620,0.10,991.57,99146.79,nan,0.00,0.66,0.38,9.30,-0.00,-0.00,0.00
2026-06-23 20:04:34.621,0.10,991.57,99146.79,nan,0.00,0.66,0.38,9.30,-0.00,-0.00,0.00
2026-06-23 20:04:34.622,0.10,991.57,99146.79,nan,0.00,0.66,0.38,9.30,-0.00,-0.00,0.00
2026-06-23 20:04:34.628,0.10,991.57,99146.79,nan,0.00,0.66,0.38,9.30,-0.00,-0.00,0.00
2026-06-23 20:04:34.629,0.10,991.57,99146.79,nan,0.00,0.67,0.38,9.31,0.00,-0.00,-0.00
2026-06-23 20:04:34.631,0.10,991.57,99146.79,nan,0.00,0.67,0.38,9.31,0.00,-0.00,-0.00
2026-06-23 20:04:34.635,0.10,991.57,99146.79,nan,0.00,0.67,0.38,9.31,0.00,-0.00,-0.00
2026-06-23 20:04:34.638,0.10,991.57,99146.79,nan,0.00,0.67,0.38,9.31,0.00,0.00,0.00
2026-06-23 20:04:34.639,0.10,991.57,99146.79,nan,0.00,0.65,0.38,9.32,0.00,0.00,0.00
2026-06-23 20:04:34.641,0.10,991.57,99146.79,nan,0.00,0.65,0.38,9.32,0.00,0.00,0.00
2026-06-23 20:04:34.642,0.10,991.57,99146.79,nan,0.00,0.65,0.38,9.32,0.00,0.00,0.00
2026-06-23 20:04:34.643,0.10,991.57,99146.79,nan,0.00,0.65,0.38,9.32,0.00,0.00,0.00
2026-06-23 20:04:34.645,0.10,991.57,99146.79,nan,0.00,0.65,0.38,9.32,0.00,0.00,0.00
2026-06-23 20:04:34.646,0.10,991.57,99146.79,nan,0.00,0.65,0.38,9.32,0.00,0.00,0.00
2026-06-23 20:04:34.649,0.10,991.57,99146.79,nan,0.00,0.65,0.38,9.32,-0.00,0.00,0.00
2026-06-23 20:04:34.650,0.10,991.57,99146.79,nan,0.00,0.66,0.39,9.33,-0.00,0.00,0.00
2026-06-23 20:04:34.651,0.10,991.57,99146.79,nan,0.00,0.66,0.39,9.33,-0.00,0.00,0.00
2026-06-23 20:04:34.653,0.10,991.57,99146.79,nan,0.00,0.66,0.39,9.33,-0.00,0.00,0.00
2026-06-23 20:04:34.658,0.10,991.57,99146.79,nan,0.00,0.66,0.39,9.33,-0.00,0.00,0.00
2026-06-23 20:04:34.659,0.10,991.57,99146.79,nan,0.00,0.67,0.39,9.28,-0.00,0.00,0.00
2026-06-23 20:04:34.660,0.10,991.57,99146.79,nan,0.00,0.67,0.39,9.28,-0.00,0.00,0.00
2026-06-23 20:04:34.662,0.10,991.57,99146.79,nan,0.00,0.67,0.39,9.28,-0.00,0.00,0.00
2026-06-23 20:04:34.666,0.10,991.57,99146.79,nan,0.00,0.67,0.39,9.28,-0.00,0.00,0.00
2026-06-23 20:04:34.668,0.10,991.57,99146.79,nan,0.00,0.66,0.37,9.28,0.00,0.00,0.00
2026-06-23 20:04:34.670,0.10,991.57,99146.79,nan,0.00,0.66,0.37,9.28,0.00,0.00,0.00
2026-06-23 20:04:34.671,0.10,991.57,99146.79,nan,0.00,0.66,0.37,9.28,0.00,0.00,0.00
2026-06-23 20:04:34.672,0.10,991.57,99146.79,nan,0.00,0.66,0.37,9.28,0.00,0.00,0.00
2026-06-23 20:04:34.673,0.10,991.57,99146.79,nan,0.00,0.66,0.37,9.28,0.00,0.00,0.00
2026-06-23 20:04:34.678,0.10,991.57,99146.79,nan,0.00,0.66,0.37,9.28,0.00,-0.00,0.00
2026-06-23 20:04:34.680,0.10,991.57,99146.79,nan,0.00,0.66,0.40,9.28,0.00,-0.00,0.00
2026-06-23 20:04:34.681,0.10,991.57,99146.79,nan,0.00,0.66,0.40,9.28,0.00,-0.00,0.00
2026-06-23 20:04:34.685,0.10,991.57,99146.79,nan,0.00,0.66,0.40,9.28,0.00,-0.00,0.00
2026-06-23 20:04:34.688,0.10,991.57,99146.79,nan,0.00,0.66,0.40,9.28,0.00,0.00,-0.00
2026-06-23 20:04:34.690,0.10,991.57,99146.79,nan,0.00,0.66,0.37,9.30,0.00,0.00,-0.00
2026-06-23 20:04:34.691,0.10,991.57,99146.79,nan,0.00,0.66,0.37,9.30,0.00,0.00,-0.00
2026-06-23 20:04:34.692,0.10,991.57,99146.79,nan,0.00,0.66,0.37,9.30,0.00,0.00,-0.00
2026-06-23 20:04:34.693,0.10,991.57,99146.79,nan,0.00,0.66,0.37,9.30,0.00,0.00,-0.00
2026-06-23 20:04:34.695,0.10,991.57,99146.79,nan,0.00,0.66,0.37,9.30,0.00,0.00,-0.00
2026-06-23 20:04:34.696,0.10,991.57,99146.79,nan,0.00,0.66,0.37,9.30,0.00,0.00,-0.00
2026-06-23 20:04:34.699,0.10,991.57,99146.79,nan,0.00,0.66,0.37,9.30,0.00,0.00,0.00
2026-06-23 20:04:34.700,0.10,991.57,99146.79,nan,0.00,0.66,0.39,9.32,0.00,0.00,0.00
2026-06-23 20:04:34.701,0.10,991.57,99146.79,nan,0.00,0.66,0.39,9.32,0.00,0.00,0.00
2026-06-23 20:04:34.702,0.10,991.57,99146.79,nan,0.00,0.66,0.39,9.32,0.00,0.00,0.00
2026-06-23 20:04:34.708,0.10,991.57,99146.79,nan,0.00,0.66,0.39,9.32,0.00,0.00,0.00
2026-06-23 20:04:34.709,0.10,991.57,99146.79,nan,0.00,0.67,0.38,9.29,-0.00,-0.00,0.00
2026-06-23 20:04:34.710,0.10,991.57,99146.79,nan,0.00,0.67,0.38,9.29,-0.00,-0.00,0.00
2026-06-23 20:04:34.712,0.10,991.57,99146.79,nan,0.00,0.67,0.38,9.29,-0.00,-0.00,0.00
2026-06-23 20:04:34.716,0.10,991.57,99146.79,nan,0.00,0.67,0.38,9.29,-0.00,-0.00,0.00
2026-06-23 20:04:34.719,0.10,991.57,99146.79,nan,0.00,0.67,0.38,9.29,0.00,0.00,-0.00
2026-06-23 20:04:34.909,0.10,991.59,99148.89,nan,0.00,0.66,0.38,9.29,0.00,0.00,-0.00
2026-06-23 20:04:34.910,0.10,991.59,99148.89,nan,0.00,0.65,0.37,9.27,0.00,0.00,-0.00
2026-06-23 20:04:34.912,0.10,991.59,99148.89,nan,0.00,0.65,0.37,9.27,0.00,0.00,-0.00
2026-06-23 20:04:34.915,0.10,991.59,99148.89,nan,0.00,0.65,0.37,9.27,0.00,0.00,-0.00
2026-06-23 20:04:34.921,0.10,991.59,99148.89,nan,0.00,0.65,0.37,9.27,-0.00,0.01,0.00
2026-06-23 20:04:34.926,0.10,991.59,99148.89,nan,0.00,0.66,0.38,9.30,-0.00,0.01,0.00
2026-06-23 20:04:34.929,0.10,991.59,99148.89,nan,0.00,0.66,0.38,9.30,0.00,0.00,0.00
2026-06-23 20:04:34.939,0.10,991.59,99148.89,nan,0.00,0.66,0.40,9.30,0.00,-0.00,0.00
2026-06-23 20:04:34.941,0.10,991.59,99148.89,nan,0.00,0.67,0.39,9.30,0.00,-0.00,0.00
2026-06-23 20:04:34.943,0.10,991.59,99148.89,nan,0.00,0.67,0.39,9.30,0.00,-0.00,0.00
2026-06-23 20:04:34.946,0.10,991.59,99148.89,nan,0.00,0.67,0.39,9.30,0.00,-0.00,0.00
2026-06-23 20:04:34.949,0.10,991.59,99148.89,nan,0.00,0.67,0.39,9.30,0.00,0.00,0.00
2026-06-23 20:04:34.957,0.10,991.59,99148.89,nan,0.00,0.67,0.39,9.30,0.00,0.00,0.00
2026-06-23 20:04:34.960,0.10,991.59,99148.89,nan,0.00,0.66,0.39,9.30,0.00,0.00,0.00
2026-06-23 20:04:34.969,0.10,991.59,99148.89,nan,0.00,0.66,0.39,9.30,0.00,0.00,0.00
2026-06-23 20:04:34.971,0.10,991.59,99148.89,nan,0.00,0.66,0.39,9.28,-0.00,0.00,0.00
2026-06-23 20:04:34.973,0.10,991.59,99148.89,nan,0.00,0.66,0.39,9.28,-0.00,0.00,0.00
2026-06-23 20:04:34.979,0.10,991.59,99148.89,nan,0.00,0.66,0.39,9.28,0.00,0.00,0.00
2026-06-23 20:04:34.981,0.10,991.59,99148.89,nan,0.00,0.67,0.36,9.29,0.00,0.00,0.00
2026-06-23 20:04:34.989,0.10,991.59,99148.89,nan,0.00,0.67,0.36,9.29,0.00,0.00,0.00
2026-06-23 20:04:34.991,0.10,991.59,99148.89,nan,0.00,0.66,0.36,9.31,0.00,-0.00,0.00
2026-06-23 20:04:34.998,0.10,991.59,99148.89,nan,0.00,0.66,0.36,9.31,0.00,-0.00,0.00
2026-06-23 20:04:34.000,0.10,991.59,99148.89,nan,0.00,0.66,0.38,9.30,0.00,0.00,0.00
2026-06-23 20:04:34.002,0.10,991.59,99148.89,nan,0.00,0.66,0.38,9.30,0.00,0.00,0.00
2026-06-23 20:04:35.009,0.10,991.59,99148.89,nan,0.00,0.66,0.38,9.30,0.00,0.00,0.00
2026-06-23 20:04:35.200,0.10,991.60,99149.91,nan,0.00,0.66,0.40,9.29,0.00,-0.00,0.00
2026-06-23 20:04:35.201,0.10,991.60,99149.91,nan,0.00,0.66,0.40,9.29,0.00,-0.00,0.00
2026-06-23 20:04:35.202,0.10,991.60,99149.91,nan,0.00,0.66,0.40,9.29,0.00,-0.00,0.00
2026-06-23 20:04:35.203,0.10,991.60,99149.91,nan,0.00,0.66,0.40,9.29,0.00,-0.00,0.00
2026-06-23 20:04:35.209,0.10,991.60,99149.91,nan,0.00,0.66,0.40,9.29,0.00,-0.00,0.00
2026-06-23 20:04:35.210,0.10,991.60,99149.91,nan,0.00,0.66,0.38,9.29,0.00,0.00,0.00
2026-06-23 20:04:35.212,0.10,991.60,99149.91,nan,0.00,0.66,0.38,9.29,0.00,0.00,0.00
2026-06-23 20:04:35.213,0.10,991.60,99149.91,nan,0.00,0.66,0.38,9.29,0.00,0.00,0.00
2026-06-23 20:04:35.219,0.10,991.60,99149.91,nan,0.00,0.66,0.38,9.29,0.00,0.00,0.00
2026-06-23 20:04:35.220,0.10,991.60,99149.91,nan,0.00,0.65,0.39,9.26,-0.00,0.00,0.00
2026-06-23 20:04:35.221,0.10,991.60,99149.91,nan,0.00,0.65,0.39,9.26,-0.00,0.00,0.00
2026-06-23 20:04:35.223,0.10,991.60,99149.91,nan,0.00,0.65,0.39,9.26,-0.00,0.00,0.00
2026-06-23 20:04:35.224,0.10,991.60,99149.91,nan,0.00,0.65,0.39,9.26,-0.00,0.00,0.00
2026-06-23 20:04:35.229,0.10,991.60,99149.91,nan,0.00,0.65,0.39,9.26,-0.00,0.00,0.00
2026-06-23 20:04:35.231,0.10,991.60,99149.91,nan,0.00,0.65,0.37,9.28,0.00,0.00,0.00
2026-06-23 20:04:35.232,0.10,991.60,99149.91,nan,0.00,0.65,0.37,9.28,0.00,0.00,0.00
2026-06-23 20:04:35.235,0.10,991.60,99149.91,nan,0.00,0.65,0.37,9.28,0.00,0.00,0.00
2026-06-23 20:04:35.239,0.10,991.60,99149.91,nan,0.00,0.65,0.37,9.28,0.00,0.00,-0.00
2026-06-23 20:04:35.241,0.10,991.60,99149.91,nan,0.00,0.67,0.38,9.31,0.00,0.00,-0.00
2026-06-23 20:04:35.242,0.10,991.60,99149.91,nan,0.00,0.67,0.38,9.31,0.00,0.00,-0.00
2026-06-23 20:04:35.243,0.10,991.60,99149.91,nan,0.00,0.67,0.38,9.31,0.00,0.00,-0.00
2026-06-23 20:04:35.244,0.10,991.60,99149.91,nan,0.00,0.67,0.38,9.31,0.00,0.00,-0.00
2026-06-23 20:04:35.246,0.10,991.60,99149.91,nan,0.00,0.67,0.38,9.31,0.00,0.00,-0.00
2026-06-23 20:04:35.248,0.10,991.60,99149.91,nan,0.00,0.67,0.38,9.31,0.00,0.00,-0.00
2026-06-23 20:04:35.250,0.10,991.60,99149.91,nan,0.00,0.67,0.38,9.32,0.00,0.00,0.00
2026-06-23 20:04:35.251,0.10,991.60,99149.91,nan,0.00,0.67,0.38,9.32,0.00,0.00,0.00
2026-06-23 20:04:35.252,0.10,991.60,99149.91,nan,0.00,0.67,0.38,9.32,0.00,0.00,0.00
2026-06-23 20:04:35.254,0.10,991.60,99149.91,nan,0.00,0.67,0.38,9.32,0.00,0.00,0.00
2026-06-23 20:04:35.259,0.10,991.60,99149.91,nan,0.00,0.67,0.38,9.32,0.00,0.00,0.00
2026-06-23 20:04:35.260,0.10,991.60,99149.91,nan,0.00,0.64,0.35,9.29,0.00,-0.00,0.00
2026-06-23 20:04:35.261,0.10,991.60,99149.91,nan,0.00,0.64,0.35,9.29,0.00,-0.00,0.00
2026-06-23 20:04:35.263,0.10,991.60,99149.91,nan,0.00,0.64,0.35,9.29,0.00,-0.00,0.00
2026-06-23 20:04:35.268,0.10,991.60,99149.91,nan,0.00,0.64,0.35,9.29,0.00,-0.00,0.00
2026-06-23 20:04:35.270,0.10,991.60,99149.91,nan,0.00,0.67,0.37,9.30,0.00,0.00,0.00
2026-06-23 20:04:35.271,0.10,991.60,99149.91,nan,0.00,0.67,0.37,9.30,0.00,0.00,0.00
2026-06-23 20:04:35.272,0.10,991.60,99149.91,nan,0.00,0.67,0.37,9.30,0.00,0.00,0.00
2026-06-23 20:04:35.273,0.10,991.60,99149.91,nan,0.00,0.67,0.37,9.30,0.00,0.00,0.00
2026-06-23 20:04:35.274,0.10,991.60,99149.91,nan,0.00,0.67,0.37,9.30,0.00,0.00,0.00
2026-06-23 20:04:35.279,0.10,991.60,99149.91,nan,0.00,0.67,0.37,9.30,0.00,0.00,0.00
2026-06-23 20:04:35.281,0.10,991.60,99149.91,nan,0.00,0.65,0.38,9.31,0.00,-0.00,0.00
2026-06-23 20:04:35.282,0.10,991.60,99149.91,nan,0.00,0.65,0.38,9.31,0.00,-0.00,0.00
2026-06-23 20:04:35.284,0.10,991.60,99149.91,nan,0.00,0.65,0.38,9.31,0.00,-0.00,0.00
2026-06-23 20:04:35.289,0.10,991.60,99149.91,nan,0.00,0.65,0.38,9.31,0.00,-0.00,0.00
2026-06-23 20:04:35.290,0.10,991.60,99149.91,nan,0.00,0.66,0.39,9.31,0.00,-0.00,0.00
2026-06-23 20:04:35.292,0.10,991.60,99149.91,nan,0.00,0.66,0.39,9.31,0.00,-0.00,0.00
2026-06-23 20:04:35.293,0.10,991.60,99149.91,nan,0.00,0.66,0.39,9.31,0.00,-0.00,0.00
2026-06-23 20:04:35.294,0.10,991.60,99149.91,nan,0.00,0.66,0.39,9.31,0.00,-0.00,0.00
2026-06-23 20:04:35.296,0.10,991.60,99149.91,nan,0.00,0.66,0.39,9.31,0.00,-0.00,0.00
2026-06-23 20:04:35.297,0.10,991.60,99149.91,nan,0.00,0.66,0.39,9.31,0.00,-0.00,0.00
2026-06-23 20:04:35.300,0.10,991.60,99149.91,nan,0.00,0.66,0.39,9.31,0.00,-0.00,0.00
2026-06-23 20:04:35.490,0.10,991.62,99151.59,nan,0.00,0.67,0.40,9.31,0.00,0.00,0.00
2026-06-23 20:04:35.492,0.10,991.62,99151.59,nan,0.00,0.66,0.37,9.32,0.00,0.00,0.00
2026-06-23 20:04:35.493,0.10,991.62,99151.59,nan,0.00,0.66,0.37,9.32,0.00,0.00,0.00
2026-06-23 20:04:35.494,0.10,991.62,99151.59,nan,0.00,0.66,0.37,9.32,0.00,0.00,0.00
2026-06-23 20:04:35.496,0.10,991.62,99151.59,nan,0.00,0.66,0.37,9.32,0.00,0.00,0.00
2026-06-23 20:04:35.497,0.10,991.62,99151.59,nan,0.00,0.66,0.37,9.32,0.00,0.00,0.00
2026-06-23 20:04:35.500,0.10,991.62,99151.59,nan,0.00,0.66,0.37,9.32,0.00,0.00,0.00
2026-06-23 20:04:35.502,0.10,991.62,99151.59,nan,0.00,0.66,0.39,9.29,0.00,0.00,0.00
2026-06-23 20:04:35.503,0.10,991.62,99151.59,nan,0.00,0.66,0.39,9.29,0.00,0.00,0.00
2026-06-23 20:04:35.506,0.10,991.62,99151.59,nan,0.00,0.66,0.39,9.29,0.00,0.00,0.00
2026-06-23 20:04:35.510,0.10,991.62,99151.59,nan,0.00,0.66,0.39,9.29,0.00,0.00,0.00
2026-06-23 20:04:35.512,0.10,991.62,99151.59,nan,0.00,0.67,0.36,9.30,0.00,0.00,0.00
2026-06-23 20:04:35.513,0.10,991.62,99151.59,nan,0.00,0.67,0.36,9.30,0.00,0.00,0.00
2026-06-23 20:04:35.519,0.10,991.62,99151.59,nan,0.00,0.67,0.36,9.30,0.00,0.00,0.00
2026-06-23 20:04:35.521,0.10,991.62,99151.59,nan,0.00,0.66,0.39,9.29,-0.00,-0.00,0.00
2026-06-23 20:04:35.522,0.10,991.62,99151.59,nan,0.00,0.66,0.39,9.29,-0.00,-0.00,0.00
2026-06-23 20:04:35.523,0.10,991.62,99151.59,nan,0.00,0.66,0.39,9.29,-0.00,-0.00,0.00
2026-06-23 20:04:35.526,0.10,991.62,99151.59,nan,0.00,0.66,0.39,9.29,-0.00,-0.00,0.00
2026-06-23 20:04:35.530,0.10,991.62,99151.59,nan,0.00,0.66,0.39,9.29,0.00,0.00,0.00
2026-06-23 20:04:35.532,0.10,991.62,99151.59,nan,0.00,0.66,0.39,9.29,0.00,0.00,0.00
2026-06-23 20:04:35.536,0.10,991.62,99151.59,nan,0.00,0.66,0.39,9.29,0.00,0.00,0.00
2026-06-23 20:04:35.540,0.10,991.62,99151.59,nan,0.00,0.66,0.39,9.29,0.00,0.00,-0.00
2026-06-23 20:04:35.542,0.10,991.62,99151.59,nan,0.00,0.67,0.38,9.31,0.00,0.00,-0.00
2026-06-23 20:04:35.544,0.10,991.62,99151.59,nan,0.00,0.67,0.38,9.31,0.00,0.00,-0.00
2026-06-23 20:04:35.546,0.10,991.62,99151.59,nan,0.00,0.67,0.38,9.31,0.00,0.00,-0.00
2026-06-23 20:04:35.550,0.10,991.62,99151.59,nan,0.00,0.67,0.38,9.31,0.00,0.00,-0.00
2026-06-23 20:04:35.552,0.10,991.62,99151.59,nan,0.00,0.67,0.38,9.28,-0.00,0.00,-0.00
2026-06-23 20:04:35.553,0.10,991.62,99151.59,nan,0.00,0.67,0.38,9.28,-0.00,0.00,-0.00
2026-06-23 20:04:35.560,0.10,991.62,99151.59,nan,0.00,0.67,0.38,9.28,-0.00,0.00,-0.00
2026-06-23 20:04:35.562,0.10,991.62,99151.59,nan,0.00,0.66,0.39,9.30,0.00,0.00,0.00
2026-06-23 20:04:35.569,0.10,991.62,99151.59,nan,0.00,0.66,0.39,9.30,0.00,0.00,0.00
2026-06-23 20:04:35.571,0.10,991.62,99151.59,nan,0.00,0.66,0.39,9.30,0.00,0.00,0.00
2026-06-23 20:04:35.572,0.10,991.62,99151.59,nan,0.00,0.66,0.39,9.30,0.00,0.00,0.00
2026-06-23 20:04:35.574,0.10,991.62,99151.59,nan,0.00,0.66,0.39,9.30,0.00,0.00,0.00
2026-06-23 20:04:35.575,0.10,991.62,99151.59,nan,0.00,0.66,0.39,9.30,0.00,0.00,0.00
2026-06-23 20:04:35.580,0.10,991.62,99151.59,nan,0.00,0.66,0.39,9.30,0.00,0.00,0.00
2026-06-23 20:04:35.581,0.10,991.62,99151.59,nan,0.00,0.67,0.37,9.30,-0.00,-0.01,-0.00
2026-06-23 20:04:35.583,0.10,991.62,99151.59,nan,0.00,0.67,0.37,9.30,-0.00,-0.01,-0.00
2026-06-23 20:04:35.584,0.10,991.62,99151.59,nan,0.00,0.67,0.37,9.30,-0.00,-0.01,-0.00
2026-06-23 20:04:35.589,0.10,991.62,99151.59,nan,0.00,0.67,0.37,9.30,-0.00,-0.01,-0.00
2026-06-23 20:04:35.781,0.10,991.60,99149.91,nan,0.00,0.66,0.39,9.28,0.00,-0.00,0.00
2026-06-23 20:04:35.782,0.10,991.60,99149.91,nan,0.00,0.66,0.39,9.29,0.00,-0.00,0.00
2026-06-23 20:04:35.783,0.10,991.60,99149.91,nan,0.00,0.66,0.39,9.29,0.00,-0.00,0.00
2026-06-23 20:04:35.785,0.10,991.60,99149.91,nan,0.00,0.66,0.39,9.29,0.00,-0.00,0.00
2026-06-23 20:04:35.790,0.10,991.60,99149.91,nan,0.00,0.66,0.39,9.29,0.00,-0.00,0.00
2026-06-23 20:04:35.792,0.10,991.60,99149.91,nan,0.00,0.67,0.40,9.31,0.00,0.00,0.00
2026-06-23 20:04:35.793,0.10,991.60,99149.91,nan,0.00,0.67,0.40,9.31,0.00,0.00,0.00
2026-06-23 20:04:35.794,0.10,991.60,99149.91,nan,0.00,0.67,0.40,9.31,0.00,0.00,0.00
2026-06-23 20:04:35.796,0.10,991.60,99149.91,nan,0.00,0.67,0.40,9.31,0.00,0.00,0.00
2026-06-23 20:04:35.797,0.10,991.60,99149.91,nan,0.00,0.67,0.40,9.31,0.00,0.00,0.00
2026-06-23 20:04:35.800,0.10,991.60,99149.91,nan,0.00,0.67,0.40,9.31,0.00,0.00,0.00
2026-06-23 20:04:35.802,0.10,991.60,99149.91,nan,0.00,0.65,0.39,9.30,-0.00,0.00,0.00
2026-06-23 20:04:35.803,0.10,991.60,99149.91,nan,0.00,0.65,0.39,9.30,-0.00,0.00,0.00
2026-06-23 20:04:35.804,0.10,991.60,99149.91,nan,0.00,0.65,0.39,9.30,-0.00,0.00,0.00
2026-06-23 20:04:35.806,0.10,991.60,99149.91,nan,0.00,0.65,0.39,9.30,-0.00,0.00,0.00
2026-06-23 20:04:35.811,0.10,991.60,99149.91,nan,0.00,0.65,0.39,9.30,0.00,-0.00,0.00
2026-06-23 20:04:35.812,0.10,991.60,99149.91,nan,0.00,0.66,0.39,9.29,0.00,-0.00,0.00
2026-06-23 20:04:35.814,0.10,991.60,99149.91,nan,0.00,0.66,0.39,9.29,0.00,-0.00,0.00
2026-06-23 20:04:35.817,0.10,991.60,99149.91,nan,0.00,0.66,0.39,9.29,0.00,-0.00,0.00
2026-06-23 20:04:35.821,0.10,991.60,99149.91,nan,0.00,0.66,0.39,9.29,0.00,-0.00,0.00
2026-06-23 20:04:35.822,0.10,991.60,99149.91,nan,0.00,0.65,0.39,9.29,0.00,-0.00,0.00
2026-06-23 20:04:35.823,0.10,991.60,99149.91,nan,0.00,0.65,0.39,9.29,0.00,-0.00,0.00
2026-06-23 20:04:35.825,0.10,991.60,99149.91,nan,0.00,0.65,0.39,9.29,0.00,-0.00,0.00
2026-06-23 20:04:35.829,0.10,991.60,99149.91,nan,0.00,0.65,0.39,9.29,0.00,-0.00,0.00
2026-06-23 20:04:35.831,0.10,991.60,99149.91,nan,0.00,0.66,0.39,9.30,-0.00,0.00,-0.00
2026-06-23 20:04:35.833,0.10,991.60,99149.91,nan,0.00,0.66,0.39,9.30,-0.00,0.00,-0.00
2026-06-23 20:04:35.834,0.10,991.60,99149.91,nan,0.00,0.66,0.39,9.30,-0.00,0.00,-0.00
2026-06-23 20:04:35.837,0.10,991.60,99149.91,nan,0.00,0.66,0.39,9.30,-0.00,0.00,-0.00
2026-06-23 20:04:35.841,0.10,991.60,99149.91,nan,0.00,0.66,0.39,9.30,-0.00,0.00,-0.00
2026-06-23 20:04:35.842,0.10,991.60,99149.91,nan,0.00,0.66,0.38,9.29,-0.00,0.00,-0.00
2026-06-23 20:04:35.843,0.10,991.60,99149.91,nan,0.00,0.66,0.38,9.29,-0.00,0.00,-0.00
2026-06-23 20:04:35.845,0.10,991.60,99149.91,nan,0.00,0.66,0.38,9.29,-0.00,0.00,-0.00
2026-06-23 20:04:35.846,0.10,991.60,99149.91,nan,0.00,0.66,0.38,9.29,-0.00,0.00,-0.00
2026-06-23 20:04:35.848,0.10,991.60,99149.91,nan,0.00,0.66,0.38,9.29,-0.00,0.00,-0.00
2026-06-23 20:04:35.851,0.10,991.60,99149.91,nan,0.00,0.66,0.38,9.29,0.00,-0.00,0.00
2026-06-23 20:04:35.852,0.10,991.60,99149.91,nan,0.00,0.66,0.39,9.32,0.00,-0.00,0.00
2026-06-23 20:04:35.853,0.10,991.60,99149.91,nan,0.00,0.66,0.39,9.32,0.00,-0.00,0.00
2026-06-23 20:04:35.855,0.10,991.60,99149.91,nan,0.00,0.66,0.39,9.32,0.00,-0.00,0.00
2026-06-23 20:04:35.859,0.10,991.60,99149.91,nan,0.00,0.66,0.39,9.32,0.00,-0.00,0.00
2026-06-23 20:04:35.861,0.10,991.60,99149.91,nan,0.00,0.66,0.39,9.32,0.00,-0.00,0.00
2026-06-23 20:04:35.863,0.10,991.60,99149.91,nan,0.00,0.66,0.39,9.30,0.00,-0.00,0.00
2026-06-23 20:04:35.864,0.10,991.60,99149.91,nan,0.00,0.66,0.39,9.30,0.00,-0.00,0.00
2026-06-23 20:04:35.868,0.10,991.60,99149.91,nan,0.00,0.66,0.39,9.30,0.00,-0.00,0.00
2026-06-23 20:04:35.871,0.10,991.60,99149.91,nan,0.00,0.66,0.39,9.30,0.00,0.00,0.00
2026-06-23 20:04:35.872,0.10,991.60,99149.91,nan,0.00,0.67,0.37,9.29,0.00,0.00,0.00
2026-06-23 20:04:35.873,0.10,991.60,99149.91,nan,0.00,0.67,0.37,9.29,0.00,0.00,0.00
2026-06-23 20:04:35.875,0.10,991.60,99149.91,nan,0.00,0.67,0.37,9.29,0.00,0.00,0.00
2026-06-23 20:04:35.876,0.10,991.60,99149.91,nan,0.00,0.67,0.37,9.29,0.00,0.00,0.00
2026-06-23 20:04:36.068,0.10,991.61,99150.81,nan,0.00,0.67,0.38,9.30,0.00,0.00,0.00
2026-06-23 20:04:36.071,0.10,991.61,99150.81,nan,0.00,0.67,0.38,9.30,0.00,0.00,0.00
2026-06-23 20:04:36.072,0.10,991.61,99150.81,nan,0.00,0.67,0.38,9.29,0.00,0.00,0.00
2026-06-23 20:04:36.074,0.10,991.61,99150.81,nan,0.00,0.67,0.38,9.29,0.00,0.00,0.00
2026-06-23 20:04:36.075,0.10,991.61,99150.81,nan,0.00,0.67,0.38,9.29,0.00,0.00,0.00
2026-06-23 20:04:36.076,0.10,991.61,99150.81,nan,0.00,0.67,0.38,9.29,0.00,0.00,0.00
2026-06-23 20:04:36.081,0.10,991.61,99150.81,nan,0.00,0.67,0.38,9.29,0.00,0.00,0.00
2026-06-23 20:04:36.082,0.10,991.61,99150.81,nan,0.00,0.66,0.39,9.30,-0.00,0.00,0.00
2026-06-23 20:04:36.084,0.10,991.61,99150.81,nan,0.00,0.66,0.39,9.30,-0.00,0.00,0.00
2026-06-23 20:04:36.085,0.10,991.61,99150.81,nan,0.00,0.66,0.39,9.30,-0.00,0.00,0.00
2026-06-23 20:04:36.089,0.10,991.61,99150.81,nan,0.00,0.66,0.39,9.30,-0.00,0.00,0.00
2026-06-23 20:04:36.092,0.10,991.61,99150.81,nan,0.00,0.66,0.39,9.30,0.00,0.00,0.00
2026-06-23 20:04:36.093,0.10,991.61,99150.81,nan,0.00,0.65,0.38,9.29,0.00,0.00,0.00
2026-06-23 20:04:36.094,0.10,991.61,99150.81,nan,0.00,0.65,0.38,9.29,0.00,0.00,0.00
2026-06-23 20:04:36.096,0.10,991.61,99150.81,nan,0.00,0.65,0.38,9.29,0.00,0.00,0.00
2026-06-23 20:04:36.097,0.10,991.61,99150.81,nan,0.00,0.65,0.38,9.29,0.00,0.00,0.00
2026-06-23 20:04:36.099,0.10,991.61,99150.81,nan,0.00,0.65,0.38,9.29,0.00,0.00,0.00
2026-06-23 20:04:36.102,0.10,991.61,99150.81,nan,0.00,0.65,0.38,9.29,0.00,-0.00,-0.00
2026-06-23 20:04:36.103,0.10,991.61,99150.81,nan,0.00,0.66,0.38,9.29,0.00,-0.00,-0.00
2026-06-23 20:04:36.104,0.10,991.61,99150.81,nan,0.00,0.66,0.38,9.29,0.00,-0.00,-0.00
2026-06-23 20:04:36.105,0.10,991.61,99150.81,nan,0.00,0.66,0.38,9.29,0.00,-0.00,-0.00
2026-06-23 20:04:36.109,0.10,991.61,99150.81,nan,0.00,0.66,0.38,9.29,0.00,-0.00,-0.00
2026-06-23 20:04:36.112,0.10,991.61,99150.81,nan,0.00,0.66,0.38,9.29,0.00,-0.00,0.00
2026-06-23 20:04:36.113,0.10,991.61,99150.81,nan,0.00,0.67,0.39,9.31,0.00,-0.00,0.00
2026-06-23 20:04:36.115,0.10,991.61,99150.81,nan,0.00,0.67,0.39,9.31,0.00,-0.00,0.00
2026-06-23 20:04:36.119,0.10,991.61,99150.81,nan,0.00,0.67,0.39,9.31,0.00,-0.00,0.00
2026-06-23 20:04:36.122,0.10,991.61,99150.81,nan,0.00,0.67,0.39,9.31,0.00,-0.00,0.00
2026-06-23 20:04:36.123,0.10,991.61,99150.81,nan,0.00,0.66,0.37,9.27,0.00,-0.00,0.00
2026-06-23 20:04:36.124,0.10,991.61,99150.81,nan,0.00,0.66,0.37,9.27,0.00,-0.00,0.00
2026-06-23 20:04:36.125,0.10,991.61,99150.81,nan,0.00,0.66,0.37,9.27,0.00,-0.00,0.00
2026-06-23 20:04:36.129,0.10,991.61,99150.81,nan,0.00,0.66,0.37,9.27,0.00,-0.00,0.00
2026-06-23 20:04:36.132,0.10,991.61,99150.81,nan,0.00,0.66,0.37,9.27,0.00,-0.00,0.00
2026-06-23 20:04:36.133,0.10,991.61,99150.81,nan,0.00,0.66,0.39,9.28,0.00,-0.00,0.00
2026-06-23 20:04:36.134,0.10,991.61,99150.81,nan,0.00,0.66,0.39,9.28,0.00,-0.00,0.00
2026-06-23 20:04:36.136,0.10,991.61,99150.81,nan,0.00,0.66,0.39,9.28,0.00,-0.00,0.00
2026-06-23 20:04:36.141,0.10,991.61,99150.81,nan,0.00,0.66,0.39,9.28,0.00,-0.00,0.00
2026-06-23 20:04:36.142,0.10,991.61,99150.81,nan,0.00,0.67,0.37,9.31,0.00,0.00,-0.00
2026-06-23 20:04:36.144,0.10,991.61,99150.81,nan,0.00,0.67,0.37,9.31,0.00,0.00,-0.00
2026-06-23 20:04:36.145,0.10,991.61,99150.81,nan,0.00,0.67,0.37,9.31,0.00,0.00,-0.00
2026-06-23 20:04:36.147,0.10,991.61,99150.81,nan,0.00,0.67,0.37,9.31,0.00,0.00,-0.00
2026-06-23 20:04:36.148,0.10,991.61,99150.81,nan,0.00,0.67,0.37,9.31,0.00,0.00,-0.00
2026-06-23 20:04:36.151,0.10,991.61,99150.81,nan,0.00,0.67,0.37,9.31,0.00,0.00,0.00
2026-06-23 20:04:36.153,0.10,991.61,99150.81,nan,0.00,0.66,0.39,9.32,0.00,0.00,0.00
2026-06-23 20:04:36.154,0.10,991.61,99150.81,nan,0.00,0.66,0.39,9.32,0.00,0.00,0.00
2026-06-23 20:04:36.155,0.10,991.61,99150.81,nan,0.00,0.66,0.39,9.32,0.00,0.00,0.00
2026-06-23 20:04:36.157,0.10,991.61,99150.81,nan,0.00,0.66,0.39,9.32,0.00,0.00,0.00
2026-06-23 20:04:36.162,0.10,991.61,99150.81,nan,0.00,0.66,0.39,9.32,-0.00,0.00,-0.00
2026-06-23 20:04:36.163,0.10,991.61,99150.81,nan,0.00,0.66,0.39,9.33,-0.00,0.00,-0.00
2026-06-23 20:04:36.165,0.10,991.61,99150.81,nan,0.00,0.66,0.39,9.33,-0.00,0.00,-0.00
2026-06-23 20:04:36.355,0.10,991.56,99146.00,nan,0.00,0.65,0.40,9.29,0.00,-0.00,0.00
2026-06-23 20:04:36.358,0.10,991.56,99146.00,nan,0.00,0.65,0.40,9.29,0.00,-0.00,0.00
2026-06-23 20:04:36.362,0.10,991.56,99146.00,nan,0.00,0.65,0.40,9.29,0.00,0.00,0.00
2026-06-23 20:04:36.364,0.10,991.56,99146.00,nan,0.00,0.67,0.37,9.29,0.00,0.00,0.00
2026-06-23 20:04:36.365,0.10,991.56,99146.00,nan,0.00,0.67,0.37,9.29,0.00,0.00,0.00
2026-06-23 20:04:36.371,0.10,991.56,99146.00,nan,0.00,0.67,0.37,9.29,0.00,0.00,0.00
2026-06-23 20:04:36.372,0.10,991.56,99146.00,nan,0.00,0.66,0.38,9.30,0.00,0.00,0.00
2026-06-23 20:04:36.374,0.10,991.56,99146.00,nan,0.00,0.66,0.38,9.30,0.00,0.00,0.00
2026-06-23 20:04:36.375,0.10,991.56,99146.00,nan,0.00,0.66,0.38,9.30,0.00,0.00,0.00
2026-06-23 20:04:36.376,0.10,991.56,99146.00,nan,0.00,0.66,0.38,9.30,0.00,0.00,0.00
2026-06-23 20:04:36.380,0.10,991.56,99146.00,nan,0.00,0.66,0.38,9.30,0.00,0.00,0.00
2026-06-23 20:04:36.382,0.10,991.56,99146.00,nan,0.00,0.67,0.38,9.27,0.00,0.00,0.00
2026-06-23 20:04:36.384,0.10,991.56,99146.00,nan,0.00,0.67,0.38,9.27,0.00,0.00,0.00
2026-06-23 20:04:36.387,0.10,991.56,99146.00,nan,0.00,0.67,0.38,9.27,0.00,0.00,0.00
2026-06-23 20:04:36.392,0.10,991.56,99146.00,nan,0.00,0.67,0.38,9.27,0.00,0.00,0.00
2026-06-23 20:04:36.393,0.10,991.56,99146.00,nan,0.00,0.66,0.38,9.33,-0.00,0.00,0.00
2026-06-23 20:04:36.395,0.10,991.56,99146.00,nan,0.00,0.66,0.38,9.33,-0.00,0.00,0.00
2026-06-23 20:04:36.396,0.10,991.56,99146.00,nan,0.00,0.66,0.38,9.33,-0.00,0.00,0.00
2026-06-23 20:04:36.398,0.10,991.56,99146.00,nan,0.00,0.66,0.38,9.33,-0.00,0.00,0.00
2026-06-23 20:04:36.399,0.10,991.56,99146.00,nan,0.00,0.66,0.38,9.33,-0.00,0.00,0.00
2026-06-23 20:04:36.402,0.10,991.56,99146.00,nan,0.00,0.66,0.38,9.33,-0.00,0.00,0.00
2026-06-23 20:04:36.403,0.10,991.56,99146.00,nan,0.00,0.66,0.37,9.29,-0.00,0.00,0.00
2026-06-23 20:04:36.404,0.10,991.56,99146.00,nan,0.00,0.66,0.37,9.29,-0.00,0.00,0.00
2026-06-23 20:04:36.406,0.10,991.56,99146.00,nan,0.00,0.66,0.37,9.29,-0.00,0.00,0.00
2026-06-23 20:04:36.409,0.10,991.56,99146.00,nan,0.00,0.66,0.37,9.29,-0.00,0.00,0.00
2026-06-23 20:04:36.412,0.10,991.56,99146.00,nan,0.00,0.66,0.37,9.29,-0.00,0.00,0.00
2026-06-23 20:04:36.414,0.10,991.56,99146.00,nan,0.00,0.67,0.36,9.33,-0.00,0.00,0.00
2026-06-23 20:04:36.415,0.10,991.56,99146.00,nan,0.00,0.67,0.36,9.33,-0.00,0.00,0.00
2026-06-23 20:04:36.420,0.10,991.56,99146.00,nan,0.00,0.67,0.36,9.33,-0.00,0.00,0.00
2026-06-23 20:04:36.422,0.10,991.56,99146.00,nan,0.00,0.66,0.39,9.30,-0.00,0.00,0.00
2026-06-23 20:04:36.424,0.10,991.56,99146.00,nan,0.00,0.66,0.39,9.30,-0.00,0.00,0.00
2026-06-23 20:04:36.425,0.10,991.56,99146.00,nan,0.00,0.66,0.39,9.30,-0.00,0.00,0.00
2026-06-23 20:04:36.426,0.10,991.56,99146.00,nan,0.00,0.66,0.39,9.30,-0.00,0.00,0.00
2026-06-23 20:04:36.432,0.10,991.56,99146.00,nan,0.00,0.66,0.39,9.30,-0.00,0.00,0.00
2026-06-23 20:04:36.433,0.10,991.56,99146.00,nan,0.00,0.65,0.38,9.31,0.00,0.00,-0.00
2026-06-23 20:04:36.435,0.10,991.56,99146.00,nan,0.00,0.65,0.38,9.31,0.00,0.00,-0.00
2026-06-23 20:04:36.436,0.10,991.56,99146.00,nan,0.00,0.65,0.38,9.31,0.00,0.00,-0.00
2026-06-23 20:04:36.441,0.10,991.56,99146.00,nan,0.00,0.65,0.38,9.31,0.00,0.00,-0.00
2026-06-23 20:04:36.443,0.10,991.56,99146.00,nan,0.00,0.65,0.38,9.29,0.00,0.00,0.00
2026-06-23 20:04:36.444,0.10,991.56,99146.00,nan,0.00,0.65,0.38,9.29,0.00,0.00,0.00
2026-06-23 20:04:36.446,0.10,991.56,99146.00,nan,0.00,0.65,0.38,9.29,0.00,0.00,0.00
2026-06-23 20:04:36.447,0.10,991.56,99146.00,nan,0.00,0.65,0.38,9.29,0.00,0.00,0.00
2026-06-23 20:04:36.449,0.10,991.56,99146.00,nan,0.00,0.65,0.38,9.29,0.00,0.00,0.00
2026-06-23 20:04:36.452,0.10,991.56,99146.00,nan,0.00,0.65,0.38,9.29,0.00,0.00,0.00
2026-06-23 20:04:36.453,0.10,991.56,99146.00,nan,0.00,0.66,0.39,9.33,0.00,0.00,0.00
2026-06-23 20:04:36.454,0.10,991.56,99146.00,nan,0.00,0.66,0.39,9.33,0.00,0.00,0.00
2026-06-23 20:04:36.644,0.10,991.59,99148.52,nan,0.00,0.65,0.37,9.30,0.00,-0.00,-0.00
2026-06-23 20:04:36.646,0.10,991.59,99148.52,nan,0.00,0.65,0.37,9.30,0.00,-0.00,-0.00
2026-06-23 20:04:36.647,0.10,991.59,99148.52,nan,0.00,0.65,0.37,9.30,0.00,-0.00,-0.00
2026-06-23 20:04:36.649,0.10,991.59,99148.52,nan,0.00,0.65,0.37,9.30,0.00,-0.00,-0.00
2026-06-23 20:04:36.652,0.10,991.59,99148.52,nan,0.00,0.65,0.37,9.30,0.00,-0.00,-0.00
2026-06-23 20:04:36.653,0.10,991.59,99148.52,nan,0.00,0.66,0.38,9.30,0.00,0.00,-0.00
2026-06-23 20:04:36.654,0.10,991.59,99148.52,nan,0.00,0.66,0.38,9.30,0.00,0.00,-0.00
2026-06-23 20:04:36.656,0.10,991.59,99148.52,nan,0.00,0.66,0.38,9.30,0.00,0.00,-0.00
2026-06-23 20:04:36.657,0.10,991.59,99148.52,nan,0.00,0.66,0.38,9.30,0.00,0.00,-0.00
2026-06-23 20:04:36.662,0.10,991.59,99148.52,nan,0.00,0.66,0.38,9.30,0.00,0.00,-0.00
2026-06-23 20:04:36.664,0.10,991.59,99148.52,nan,0.00,0.66,0.39,9.32,0.00,0.00,-0.00
2026-06-23 20:04:36.665,0.10,991.59,99148.52,nan,0.00,0.66,0.39,9.32,0.00,0.00,-0.00
2026-06-23 20:04:36.668,0.10,991.59,99148.52,nan,0.00,0.66,0.39,9.32,0.00,0.00,-0.00
2026-06-23 20:04:36.672,0.10,991.59,99148.52,nan,0.00,0.66,0.39,9.32,0.00,0.00,-0.00
2026-06-23 20:04:36.674,0.10,991.59,99148.52,nan,0.00,0.66,0.39,9.29,0.00,0.00,-0.00
2026-06-23 20:04:36.675,0.10,991.59,99148.52,nan,0.00,0.66,0.39,9.29,0.00,0.00,-0.00
2026-06-23 20:04:36.676,0.10,991.59,99148.52,nan,0.00,0.66,0.39,9.29,0.00,0.00,-0.00
2026-06-23 20:04:36.677,0.10,991.59,99148.52,nan,0.00,0.66,0.39,9.29,0.00,0.00,-0.00
2026-06-23 20:04:36.682,0.10,991.59,99148.52,nan,0.00,0.66,0.39,9.29,0.00,0.00,-0.00
2026-06-23 20:04:36.684,0.10,991.59,99148.52,nan,0.00,0.66,0.37,9.30,0.00,-0.00,0.00
2026-06-23 20:04:36.685,0.10,991.59,99148.52,nan,0.00,0.66,0.37,9.30,0.00,-0.00,0.00
2026-06-23 20:04:36.686,0.10,991.59,99148.52,nan,0.00,0.66,0.37,9.30,0.00,-0.00,0.00
2026-06-23 20:04:36.689,0.10,991.59,99148.52,nan,0.00,0.66,0.37,9.30,0.00,-0.00,0.00
2026-06-23 20:04:36.693,0.10,991.59,99148.52,nan,0.00,0.66,0.37,9.30,0.00,0.00,0.00
2026-06-23 20:04:36.694,0.10,991.59,99148.52,nan,0.00,0.66,0.39,9.32,0.00,0.00,0.00
2026-06-23 20:04:36.696,0.10,991.59,99148.52,nan,0.00,0.66,0.39,9.32,0.00,0.00,0.00
2026-06-23 20:04:36.697,0.10,991.59,99148.52,nan,0.00,0.66,0.39,9.32,0.00,0.00,0.00
2026-06-23 20:04:36.699,0.10,991.59,99148.52,nan,0.00,0.66,0.39,9.32,0.00,0.00,0.00
2026-06-23 20:04:36.700,0.10,991.59,99148.52,nan,0.00,0.66,0.39,9.32,0.00,0.00,0.00
2026-06-23 20:04:36.702,0.10,991.59,99148.52,nan,0.00,0.66,0.39,9.32,0.00,0.00,0.00
2026-06-23 20:04:36.704,0.10,991.59,99148.52,nan,0.00,0.66,0.40,9.30,0.00,0.00,0.00
2026-06-23 20:04:36.705,0.10,991.59,99148.52,nan,0.00,0.66,0.40,9.30,0.00,0.00,0.00
2026-06-23 20:04:36.706,0.10,991.59,99148.52,nan,0.00,0.66,0.40,9.30,0.00,0.00,0.00
2026-06-23 20:04:36.708,0.10,991.59,99148.52,nan,0.00,0.66,0.40,9.30,0.00,0.00,0.00
2026-06-23 20:04:36.713,0.10,991.59,99148.52,nan,0.00,0.66,0.40,9.30,-0.00,0.00,0.00
2026-06-23 20:04:36.714,0.10,991.59,99148.52,nan,0.00,0.66,0.39,9.28,-0.00,0.00,0.00
2026-06-23 20:04:36.716,0.10,991.59,99148.52,nan,0.00,0.66,0.39,9.28,-0.00,0.00,0.00
2026-06-23 20:04:36.717,0.10,991.59,99148.52,nan,0.00,0.66,0.39,9.28,-0.00,0.00,0.00
2026-06-23 20:04:36.722,0.10,991.59,99148.52,nan,0.00,0.66,0.39,9.28,-0.00,0.00,0.00
2026-06-23 20:04:36.723,0.10,991.59,99148.52,nan,0.00,0.66,0.38,9.28,-0.00,0.00,0.00
2026-06-23 20:04:36.725,0.10,991.59,99148.52,nan,0.00,0.66,0.38,9.28,-0.00,0.00,0.00
2026-06-23 20:04:36.726,0.10,991.59,99148.52,nan,0.00,0.66,0.38,9.28,-0.00,0.00,0.00
2026-06-23 20:04:36.728,0.10,991.59,99148.52,nan,0.00,0.66,0.38,9.28,-0.00,0.00,0.00
2026-06-23 20:04:36.733,0.10,991.59,99148.52,nan,0.00,0.66,0.38,9.28,-0.00,0.00,0.00
2026-06-23 20:04:36.734,0.10,991.59,99148.52,nan,0.00,0.65,0.39,9.29,-0.00,0.00,0.00
2026-06-23 20:04:36.735,0.10,991.59,99148.52,nan,0.00,0.65,0.39,9.29,-0.00,0.00,0.00
2026-06-23 20:04:36.736,0.10,991.59,99148.52,nan,0.00,0.65,0.39,9.29,-0.00,0.00,0.00
2026-06-23 20:04:36.739,0.10,991.59,99148.52,nan,0.00,0.65,0.39,9.29,-0.00,0.00,0.00
2026-06-23 20:04:36.743,0.10,991.59,99148.52,nan,0.00,0.65,0.39,9.29,-0.00,0.00,0.00
2026-06-23 20:04:36.934,0.10,991.60,99150.15,nan,0.00,0.67,0.39,9.31,-0.00,-0.00,0.00
2026-06-23 20:04:36.935,0.10,991.60,99150.15,nan,0.00,0.67,0.39,9.31,-0.00,-0.00,0.00
2026-06-23 20:04:36.936,0.10,991.60,99150.15,nan,0.00,0.67,0.39,9.31,-0.00,-0.00,0.00
2026-06-23 20:04:36.937,0.10,991.60,99150.15,nan,0.00,0.67,0.39,9.31,-0.00,-0.00,0.00
2026-06-23 20:04:36.942,0.10,991.60,99150.15,nan,0.00,0.67,0.39,9.31,-0.00,-0.00,0.00
2026-06-23 20:04:36.944,0.10,991.60,99150.15,nan,0.00,0.65,0.40,9.32,0.00,0.00,0.00
2026-06-23 20:04:36.946,0.10,991.60,99150.15,nan,0.00,0.65,0.40,9.32,0.00,0.00,0.00
2026-06-23 20:04:36.947,0.10,991.60,99150.15,nan,0.00,0.65,0.40,9.32,0.00,0.00,0.00
2026-06-23 20:04:36.949,0.10,991.60,99150.15,nan,0.00,0.65,0.40,9.32,0.00,0.00,0.00
2026-06-23 20:04:36.950,0.10,991.60,99150.15,nan,0.00,0.65,0.40,9.32,0.00,0.00,0.00
2026-06-23 20:04:36.953,0.10,991.60,99150.15,nan,0.00,0.65,0.40,9.32,0.00,0.00,0.00
2026-06-23 20:04:36.955,0.10,991.60,99150.15,nan,0.00,0.66,0.38,9.29,-0.00,0.00,0.00
2026-06-23 20:04:36.956,0.10,991.60,99150.15,nan,0.00,0.66,0.38,9.29,-0.00,0.00,0.00
2026-06-23 20:04:36.959,0.10,991.60,99150.15,nan,0.00,0.66,0.38,9.29,-0.00,0.00,0.00
2026-06-23 20:04:36.963,0.10,991.60,99150.15,nan,0.00,0.66,0.38,9.29,-0.00,0.00,0.00
2026-06-23 20:04:36.965,0.10,991.60,99150.15,nan,0.00,0.66,0.38,9.28,-0.00,0.00,0.00
2026-06-23 20:04:36.966,0.10,991.60,99150.15,nan,0.00,0.66,0.38,9.28,-0.00,0.00,0.00
2026-06-23 20:04:36.968,0.10,991.60,99150.15,nan,0.00,0.66,0.38,9.28,-0.00,0.00,0.00
2026-06-23 20:04:36.973,0.10,991.60,99150.15,nan,0.00,0.66,0.38,9.28,-0.00,0.00,0.00
2026-06-23 20:04:36.974,0.10,991.60,99150.15,nan,0.00,0.67,0.37,9.29,-0.00,0.00,0.00
2026-06-23 20:04:36.975,0.10,991.60,99150.15,nan,0.00,0.67,0.37,9.29,-0.00,0.00,0.00
2026-06-23 20:04:36.977,0.10,991.60,99150.15,nan,0.00,0.67,0.37,9.29,-0.00,0.00,0.00
2026-06-23 20:04:36.978,0.10,991.60,99150.15,nan,0.00,0.67,0.37,9.29,-0.00,0.00,0.00
2026-06-23 20:04:36.983,0.10,991.60,99150.15,nan,0.00,0.67,0.37,9.29,0.00,0.00,0.00
2026-06-23 20:04:36.984,0.10,991.60,99150.15,nan,0.00,0.66,0.41,9.29,0.00,0.00,0.00
2026-06-23 20:04:36.986,0.10,991.60,99150.15,nan,0.00,0.66,0.41,9.29,0.00,0.00,0.00
2026-06-23 20:04:36.987,0.10,991.60,99150.15,nan,0.00,0.66,0.41,9.29,0.00,0.00,0.00
2026-06-23 20:04:36.990,0.10,991.60,99150.15,nan,0.00,0.66,0.41,9.29,0.00,0.00,0.00
2026-06-23 20:04:36.994,0.10,991.60,99150.15,nan,0.00,0.66,0.41,9.29,0.00,0.00,0.00
2026-06-23 20:04:36.995,0.10,991.60,99150.15,nan,0.00,0.65,0.38,9.30,0.00,0.00,0.00
2026-06-23 20:04:36.997,0.10,991.60,99150.15,nan,0.00,0.65,0.38,9.30,0.00,0.00,0.00
2026-06-23 20:04:36.998,0.10,991.60,99150.15,nan,0.00,0.65,0.38,9.30,0.00,0.00,0.00
2026-06-23 20:04:36.000,0.10,991.60,99150.15,nan,0.00,0.65,0.38,9.30,0.00,0.00,0.00
2026-06-23 20:04:36.001,0.10,991.60,99150.15,nan,0.00,0.65,0.38,9.30,0.00,0.00,0.00
2026-06-23 20:04:36.004,0.10,991.60,99150.15,nan,0.00,0.65,0.38,9.30,-0.00,0.00,0.00
2026-06-23 20:04:37.005,0.10,991.60,99150.15,nan,0.00,0.67,0.37,9.30,-0.00,0.00,0.00
2026-06-23 20:04:37.006,0.10,991.60,99150.15,nan,0.00,0.67,0.37,9.30,-0.00,0.00,0.00
2026-06-23 20:04:37.009,0.10,991.60,99150.15,nan,0.00,0.67,0.37,9.30,-0.00,0.00,0.00
2026-06-23 20:04:37.013,0.10,991.60,99150.15,nan,0.00,0.67,0.37,9.30,0.00,0.00,-0.00
2026-06-23 20:04:37.015,0.10,991.60,99150.15,nan,0.00,0.66,0.38,9.32,0.00,0.00,-0.00
2026-06-23 20:04:37.016,0.10,991.60,99150.15,nan,0.00,0.66,0.38,9.32,0.00,0.00,-0.00
2026-06-23 20:04:37.018,0.10,991.60,99150.15,nan,0.00,0.66,0.38,9.32,0.00,0.00,-0.00
2026-06-23 20:04:37.023,0.10,991.60,99150.15,nan,0.00,0.66,0.38,9.32,0.00,0.00,-0.00
2026-06-23 20:04:37.024,0.10,991.60,99150.15,nan,0.00,0.65,0.38,9.29,-0.00,0.00,0.00
2026-06-23 20:04:37.025,0.10,991.60,99150.15,nan,0.00,0.65,0.38,9.29,-0.00,0.00,0.00
2026-06-23 20:04:37.027,0.10,991.60,99150.15,nan,0.00,0.65,0.38,9.29,-0.00,0.00,0.00
2026-06-23 20:04:37.031,0.10,991.60,99150.15,nan,0.00,0.65,0.38,9.29,-0.00,0.00,0.00
2026-06-23 20:04:37.034,0.10,991.60,99150.15,nan,0.00,0.65,0.38,9.29,-0.00,0.00,-0.00
2026-06-23 20:04:37.233,0.10,991.61,99150.78,nan,0.00,0.66,0.39,9.29,-0.00,0.00,-0.00
2026-06-23 20:04:37.235,0.10,991.61,99150.78,nan,0.00,0.66,0.37,9.29,0.00,-0.00,0.00
2026-06-23 20:04:37.236,0.10,991.61,99150.78,nan,0.00,0.66,0.37,9.29,0.00,-0.00,0.00
2026-06-23 20:04:37.238,0.10,991.61,99150.78,nan,0.00,0.66,0.37,9.29,0.00,-0.00,0.00
2026-06-23 20:04:37.244,0.10,991.61,99150.78,nan,0.00,0.66,0.37,9.29,0.00,-0.00,0.00
2026-06-23 20:04:37.245,0.10,991.61,99150.78,nan,0.00,0.65,0.37,9.31,0.00,-0.00,0.00
2026-06-23 20:04:37.247,0.10,991.61,99150.78,nan,0.00,0.65,0.37,9.31,0.00,-0.00,0.00
2026-06-23 20:04:37.249,0.10,991.61,99150.78,nan,0.00,0.65,0.37,9.31,0.00,-0.00,0.00
2026-06-23 20:04:37.250,0.10,991.61,99150.78,nan,0.00,0.65,0.37,9.31,0.00,-0.00,0.00
2026-06-23 20:04:37.254,0.10,991.61,99150.78,nan,0.00,0.65,0.37,9.31,0.00,-0.00,0.00
2026-06-23 20:04:37.255,0.10,991.61,99150.78,nan,0.00,0.66,0.37,9.30,0.00,-0.00,0.00
2026-06-23 20:04:37.256,0.10,991.61,99150.78,nan,0.00,0.66,0.37,9.30,0.00,-0.00,0.00
2026-06-23 20:04:37.258,0.10,991.61,99150.78,nan,0.00,0.66,0.37,9.30,0.00,-0.00,0.00
2026-06-23 20:04:37.263,0.10,991.61,99150.78,nan,0.00,0.66,0.37,9.30,0.00,-0.00,0.00
2026-06-23 20:04:37.265,0.10,991.61,99150.78,nan,0.00,0.67,0.39,9.31,0.00,-0.00,-0.00
2026-06-23 20:04:37.266,0.10,991.61,99150.78,nan,0.00,0.67,0.39,9.31,0.00,-0.00,-0.00
2026-06-23 20:04:37.268,0.10,991.61,99150.78,nan,0.00,0.67,0.39,9.31,0.00,-0.00,-0.00
2026-06-23 20:04:37.273,0.10,991.61,99150.78,nan,0.00,0.67,0.39,9.31,0.00,-0.00,-0.00
2026-06-23 20:04:37.275,0.10,991.61,99150.78,nan,0.00,0.66,0.38,9.29,0.00,-0.00,-0.00
2026-06-23 20:04:37.277,0.10,991.61,99150.78,nan,0.00,0.66,0.38,9.29,0.00,-0.00,-0.00
2026-06-23 20:04:37.278,0.10,991.61,99150.78,nan,0.00,0.66,0.38,9.29,0.00,-0.00,-0.00
2026-06-23 20:04:37.284,0.10,991.61,99150.78,nan,0.00,0.66,0.38,9.29,0.00,-0.00,-0.00
2026-06-23 20:04:37.286,0.10,991.61,99150.78,nan,0.00,0.66,0.38,9.29,-0.00,0.00,0.00
2026-06-23 20:04:37.287,0.10,991.61,99150.78,nan,0.00,0.66,0.38,9.29,-0.00,0.00,0.00
2026-06-23 20:04:37.291,0.10,991.61,99150.78,nan,0.00,0.66,0.38,9.29,-0.00,0.00,0.00
2026-06-23 20:04:37.295,0.10,991.61,99150.78,nan,0.00,0.66,0.38,9.29,0.00,-0.00,0.00
2026-06-23 20:04:37.296,0.10,991.61,99150.78,nan,0.00,0.66,0.38,9.32,0.00,-0.00,0.00
2026-06-23 20:04:37.298,0.10,991.61,99150.78,nan,0.00,0.66,0.38,9.32,0.00,-0.00,0.00
2026-06-23 20:04:37.300,0.10,991.61,99150.78,nan,0.00,0.66,0.38,9.32,0.00,-0.00,0.00
2026-06-23 20:04:37.303,0.10,991.61,99150.78,nan,0.00,0.66,0.38,9.32,0.00,-0.00,0.00
2026-06-23 20:04:37.305,0.10,991.61,99150.78,nan,0.00,0.66,0.37,9.32,0.00,-0.00,-0.00
2026-06-23 20:04:37.307,0.10,991.61,99150.78,nan,0.00,0.66,0.37,9.32,0.00,-0.00,-0.00
2026-06-23 20:04:37.308,0.10,991.61,99150.78,nan,0.00,0.66,0.37,9.32,0.00,-0.00,-0.00
2026-06-23 20:04:37.314,0.10,991.61,99150.78,nan,0.00,0.66,0.37,9.32,0.00,-0.00,-0.00
2026-06-23 20:04:37.316,0.10,991.61,99150.78,nan,0.00,0.65,0.37,9.27,0.00,0.00,-0.00
2026-06-23 20:04:37.317,0.10,991.61,99150.78,nan,0.00,0.65,0.37,9.27,0.00,0.00,-0.00
2026-06-23 20:04:37.323,0.10,991.61,99150.78,nan,0.00,0.65,0.37,9.27,0.00,0.00,-0.00
2026-06-23 20:04:37.325,0.10,991.61,99150.78,nan,0.00,0.65,0.39,9.30,0.00,-0.00,-0.00
2026-06-23 20:04:37.516,0.10,991.60,99149.89,nan,0.00,0.65,0.39,9.32,0.00,0.00,0.00
2026-06-23 20:04:37.517,0.10,991.60,99149.89,nan,0.00,0.65,0.39,9.32,0.00,0.00,0.00
2026-06-23 20:04:37.518,0.10,991.60,99149.89,nan,0.00,0.65,0.39,9.32,0.00,0.00,0.00
2026-06-23 20:04:37.524,0.10,991.60,99149.89,nan,0.00,0.65,0.39,9.32,0.00,0.00,0.00
2026-06-23 20:04:37.525,0.10,991.60,99149.89,nan,0.00,0.66,0.37,9.25,0.00,-0.00,-0.00
2026-06-23 20:04:37.526,0.10,991.60,99149.89,nan,0.00,0.66,0.37,9.25,0.00,-0.00,-0.00
2026-06-23 20:04:37.528,0.10,991.60,99149.89,nan,0.00,0.66,0.37,9.25,0.00,-0.00,-0.00
2026-06-23 20:04:37.531,0.10,991.60,99149.89,nan,0.00,0.66,0.37,9.25,0.00,-0.00,-0.00
2026-06-23 20:04:37.535,0.10,991.60,99149.89,nan,0.00,0.66,0.37,9.25,0.00,-0.00,-0.00
2026-06-23 20:04:37.536,0.10,991.60,99149.89,nan,0.00,0.67,0.38,9.30,0.00,-0.00,-0.00
2026-06-23 20:04:37.537,0.10,991.60,99149.89,nan,0.00,0.67,0.38,9.30,0.00,-0.00,-0.00
2026-06-23 20:04:37.538,0.10,991.60,99149.89,nan,0.00,0.67,0.38,9.30,0.00,-0.00,-0.00
2026-06-23 20:04:37.544,0.10,991.60,99149.89,nan,0.00,0.67,0.38,9.30,0.00,-0.00,-0.00
2026-06-23 20:04:37.546,0.10,991.60,99149.89,nan,0.00,0.65,0.38,9.31,0.00,0.00,-0.00
2026-06-23 20:04:37.548,0.10,991.60,99149.89,nan,0.00,0.65,0.38,9.31,0.00,0.00,-0.00
2026-06-23 20:04:37.549,0.10,991.60,99149.89,nan,0.00,0.65,0.38,9.31,0.00,0.00,-0.00
2026-06-23 20:04:37.551,0.10,991.60,99149.89,nan,0.00,0.65,0.38,9.31,0.00,0.00,-0.00
2026-06-23 20:04:37.552,0.10,991.60,99149.89,nan,0.00,0.65,0.38,9.31,0.00,0.00,-0.00
2026-06-23 20:04:37.554,0.10,991.60,99149.89,nan,0.00,0.65,0.38,9.31,0.00,-0.00,0.00
2026-06-23 20:04:37.556,0.10,991.60,99149.89,nan,0.00,0.66,0.38,9.28,0.00,-0.00,0.00
2026-06-23 20:04:37.557,0.10,991.60,99149.89,nan,0.00,0.66,0.38,9.28,0.00,-0.00,0.00
2026-06-23 20:04:37.558,0.10,991.60,99149.89,nan,0.00,0.66,0.38,9.28,0.00,-0.00,0.00
2026-06-23 20:04:37.562,0.10,991.60,99149.89,nan,0.00,0.66,0.38,9.28,0.00,-0.00,0.00
2026-06-23 20:04:37.565,0.10,991.60,99149.89,nan,0.00,0.66,0.38,9.28,0.00,-0.00,0.00
2026-06-23 20:04:37.567,0.10,991.60,99149.89,nan,0.00,0.66,0.36,9.28,0.00,-0.00,0.00
2026-06-23 20:04:37.570,0.10,991.60,99149.89,nan,0.00,0.66,0.36,9.28,0.00,-0.00,0.00
2026-06-23 20:04:37.574,0.10,991.60,99149.89,nan,0.00,0.66,0.36,9.28,0.00,0.00,0.00
2026-06-23 20:04:37.576,0.10,991.60,99149.89,nan,0.00,0.66,0.39,9.31,0.00,0.00,0.00
2026-06-23 20:04:37.577,0.10,991.60,99149.89,nan,0.00,0.66,0.39,9.31,0.00,0.00,0.00
2026-06-23 20:04:37.578,0.10,991.60,99149.89,nan,0.00,0.66,0.39,9.31,0.00,0.00,0.00
2026-06-23 20:04:37.582,0.10,991.60,99149.89,nan,0.00,0.66,0.39,9.31,0.00,0.00,0.00
2026-06-23 20:04:37.585,0.10,991.60,99149.89,nan,0.00,0.66,0.39,9.31,0.00,-0.00,-0.00
2026-06-23 20:04:37.586,0.10,991.60,99149.89,nan,0.00,0.66,0.38,9.30,0.00,-0.00,-0.00
2026-06-23 20:04:37.587,0.10,991.60,99149.89,nan,0.00,0.66,0.38,9.30,0.00,-0.00,-0.00
2026-06-23 20:04:37.588,0.10,991.60,99149.89,nan,0.00,0.66,0.38,9.30,0.00,-0.00,-0.00
2026-06-23 20:04:37.592,0.10,991.60,99149.89,nan,0.00,0.66,0.38,9.30,0.00,-0.00,-0.00
2026-06-23 20:04:37.595,0.10,991.60,99149.89,nan,0.00,0.66,0.38,9.30,0.00,0.00,0.00
2026-06-23 20:04:37.597,0.10,991.60,99149.89,nan,0.00,0.66,0.39,9.30,0.00,0.00,0.00
2026-06-23 20:04:37.598,0.10,991.60,99149.89,nan,0.00,0.66,0.39,9.30,0.00,0.00,0.00
2026-06-23 20:04:37.600,0.10,991.60,99149.89,nan,0.00,0.66,0.39,9.30,0.00,0.00,0.00
2026-06-23 20:04:37.601,0.10,991.60,99149.89,nan,0.00,0.66,0.39,9.30,0.00,0.00,0.00
2026-06-23 20:04:37.603,0.10,991.60,99149.89,nan,0.00,0.66,0.39,9.30,0.00,0.00,0.00
2026-06-23 20:04:37.605,0.10,991.60,99149.89,nan,0.00,0.65,0.39,9.32,0.00,0.00,-0.00
2026-06-23 20:04:37.606,0.10,991.60,99149.89,nan,0.00,0.65,0.39,9.32,0.00,0.00,-0.00
2026-06-23 20:04:37.607,0.10,991.60,99149.89,nan,0.00,0.65,0.39,9.32,0.00,0.00,-0.00
2026-06-23 20:04:37.609,0.10,991.60,99149.89,nan,0.00,0.65,0.39,9.32,0.00,0.00,-0.00
2026-06-23 20:04:37.614,0.10,991.60,99149.89,nan,0.00,0.65,0.39,9.32,0.00,0.00,-0.00
2026-06-23 20:04:37.616,0.10,991.60,99149.89,nan,0.00,0.67,0.38,9.30,-0.00,0.00,0.00
2026-06-23 20:04:37.806,0.10,991.60,99149.79,nan,0.00,0.66,0.39,9.32,0.00,0.00,0.00
2026-06-23 20:04:37.807,0.10,991.60,99149.79,nan,0.00,0.66,0.39,9.32,0.00,0.00,0.00
2026-06-23 20:04:37.808,0.10,991.60,99149.79,nan,0.00,0.66,0.39,9.32,0.00,0.00,0.00
2026-06-23 20:04:37.809,0.10,991.60,99149.79,nan,0.00,0.66,0.39,9.32,0.00,0.00,0.00
2026-06-23 20:04:37.815,0.10,991.60,99149.79,nan,0.00,0.66,0.39,9.32,0.00,0.00,0.00
2026-06-23 20:04:37.816,0.10,991.60,99149.79,nan,0.00,0.66,0.40,9.30,-0.00,0.00,0.00
2026-06-23 20:04:37.818,0.10,991.60,99149.79,nan,0.00,0.66,0.40,9.30,-0.00,0.00,0.00
2026-06-23 20:04:37.819,0.10,991.60,99149.79,nan,0.00,0.66,0.40,9.30,-0.00,0.00,0.00
2026-06-23 20:04:37.822,0.10,991.60,99149.79,nan,0.00,0.66,0.40,9.30,-0.00,0.00,0.00
2026-06-23 20:04:37.825,0.10,991.60,99149.79,nan,0.00,0.66,0.40,9.30,-0.00,-0.00,-0.00
2026-06-23 20:04:37.827,0.10,991.60,99149.79,nan,0.00,0.66,0.38,9.32,-0.00,-0.00,-0.00
2026-06-23 20:04:37.828,0.10,991.60,99149.79,nan,0.00,0.66,0.38,9.32,-0.00,-0.00,-0.00
2026-06-23 20:04:37.830,0.10,991.60,99149.79,nan,0.00,0.66,0.38,9.32,-0.00,-0.00,-0.00
2026-06-23 20:04:37.835,0.10,991.60,99149.79,nan,0.00,0.66,0.38,9.32,-0.00,-0.00,-0.00
2026-06-23 20:04:37.836,0.10,991.60,99149.79,nan,0.00,0.65,0.40,9.27,0.00,-0.00,0.00
2026-06-23 20:04:37.837,0.10,991.60,99149.79,nan,0.00,0.65,0.40,9.27,0.00,-0.00,0.00
2026-06-23 20:04:37.839,0.10,991.60,99149.79,nan,0.00,0.65,0.40,9.27,0.00,-0.00,0.00
2026-06-23 20:04:37.841,0.10,991.60,99149.79,nan,0.00,0.65,0.40,9.27,0.00,-0.00,0.00
2026-06-23 20:04:37.845,0.10,991.60,99149.79,nan,0.00,0.65,0.40,9.27,0.00,-0.00,-0.00
2026-06-23 20:04:37.847,0.10,991.60,99149.79,nan,0.00,0.67,0.39,9.30,0.00,-0.00,-0.00
2026-06-23 20:04:37.848,0.10,991.60,99149.79,nan,0.00,0.67,0.39,9.30,0.00,-0.00,-0.00
2026-06-23 20:04:37.850,0.10,991.60,99149.79,nan,0.00,0.67,0.39,9.30,0.00,-0.00,-0.00
2026-06-23 20:04:37.851,0.10,991.60,99149.79,nan,0.00,0.67,0.39,9.30,0.00,-0.00,-0.00
2026-06-23 20:04:37.852,0.10,991.60,99149.79,nan,0.00,0.67,0.39,9.30,0.00,-0.00,-0.00
2026-06-23 20:04:37.855,0.10,991.60,99149.79,nan,0.00,0.67,0.39,9.30,0.00,-0.00,-0.00
2026-06-23 20:04:37.856,0.10,991.60,99149.79,nan,0.00,0.65,0.40,9.32,0.00,-0.00,0.00
2026-06-23 20:04:37.857,0.10,991.60,99149.79,nan,0.00,0.65,0.40,9.32,0.00,-0.00,0.00
2026-06-23 20:04:37.858,0.10,991.60,99149.79,nan,0.00,0.65,0.40,9.32,0.00,-0.00,0.00
2026-06-23 20:04:37.859,0.10,991.60,99149.79,nan,0.00,0.65,0.40,9.32,0.00,-0.00,0.00
2026-06-23 20:04:37.865,0.10,991.60,99149.79,nan,0.00,0.65,0.40,9.32,0.00,-0.00,0.00
2026-06-23 20:04:37.866,0.10,991.60,99149.79,nan,0.00,0.66,0.38,9.32,0.00,-0.00,0.00
2026-06-23 20:04:37.867,0.10,991.60,99149.79,nan,0.00,0.66,0.38,9.32,0.00,-0.00,0.00
2026-06-23 20:04:37.869,0.10,991.60,99149.79,nan,0.00,0.66,0.38,9.32,0.00,-0.00,0.00
2026-06-23 20:04:37.871,0.10,991.60,99149.79,nan,0.00,0.66,0.38,9.32,0.00,-0.00,0.00
2026-06-23 20:04:37.875,0.10,991.60,99149.79,nan,0.00,0.66,0.38,9.32,0.00,0.00,0.00
2026-06-23 20:04:37.876,0.10,991.60,99149.79,nan,0.00,0.67,0.38,9.27,0.00,0.00,0.00
2026-06-23 20:04:37.878,0.10,991.60,99149.79,nan,0.00,0.67,0.38,9.27,0.00,0.00,0.00
