timestamp,pressure_bag,pressure_bme,diff_pressure,v_wind_est,speed,accel_x,accel_y,accel_z,gyro_x,gyro_y,gyro_z,power
2026-06-26 19:45:30.123,994.32,994.29,-2.80,-2.21,0.00,1.06,0.23,9.27,0.00,0.00,0.00,0.00
2026-06-26 19:45:30.125,994.32,994.29,-2.80,-2.21,0.00,1.07,0.23,9.27,0.00,0.00,0.00,0.00
2026-06-26 19:45:30.131,994.32,994.29,-2.80,-2.21,0.00,1.07,0.23,9.27,0.00,0.00,0.00,0.00
2026-06-26 19:45:30.133,994.32,994.29,-2.80,-2.21,0.00,1.05,0.23,9.25,0.00,-0.00,0.00,0.00
2026-06-26 19:45:30.135,994.32,994.29,-2.80,-2.21,0.00,1.05,0.23,9.25,0.00,-0.00,0.00,0.00
2026-06-26 19:45:30.137,994.32,994.29,-2.80,-2.21,0.00,1.05,0.23,9.25,0.00,-0.00,0.00,0.00
2026-06-26 19:45:30.142,994.32,994.29,-2.80,-2.21,0.00,1.05,0.23,9.25,-0.00,-0.00,0.00,0.00
2026-06-26 19:45:30.144,994.32,994.29,-2.80,-2.21,0.00,1.08,0.24,9.27,-0.00,-0.00,0.00,0.00
2026-06-26 19:45:30.145,994.32,994.29,-2.80,-2.21,0.00,1.08,0.24,9.27,-0.00,-0.00,0.00,0.00
2026-06-26 19:45:30.147,994.32,994.29,-2.80,-2.21,0.00,1.08,0.24,9.27,-0.00,-0.00,0.00,0.00
2026-06-26 19:45:30.152,994.32,994.29,-2.80,-2.21,0.00,1.08,0.24,9.27,-0.00,-0.00,-0.00,0.00
2026-06-26 19:45:30.153,994.32,994.29,-2.80,-2.21,0.00,1.07,0.24,9.31,-0.00,-0.00,-0.00,0.00
2026-06-26 19:45:30.154,994.32,994.29,-2.80,-2.21,0.00,1.07,0.24,9.31,-0.00,-0.00,-0.00,0.00
2026-06-26 19:45:30.156,994.32,994.29,-2.80,-2.21,0.00,1.07,0.24,9.31,-0.00,-0.00,-0.00,0.00
2026-06-26 19:45:30.302,994.34,994.30,-4.42,-2.78,0.00,1.06,0.22,9.29,-0.00,-0.00,-0.00,0.00
2026-06-26 19:45:30.305,994.34,994.30,-4.42,-2.78,0.00,1.06,0.25,9.27,-0.00,-0.00,-0.00,0.00
2026-06-26 19:45:30.306,994.34,994.30,-4.42,-2.78,0.00,1.06,0.25,9.27,-0.00,-0.00,-0.00,0.00
2026-06-26 19:45:30.308,994.34,994.30,-4.42,-2.78,0.00,1.06,0.25,9.27,-0.00,-0.00,-0.00,0.00
2026-06-26 19:45:30.311,994.34,994.30,-4.42,-2.78,0.00,1.06,0.25,9.27,-0.00,-0.00,-0.00,0.00
2026-06-26 19:45:30.312,994.34,994.30,-4.42,-2.78,0.00,1.05,0.22,9.28,0.00,-0.00,0.00,0.00
2026-06-26 19:45:30.314,994.34,994.30,-4.42,-2.78,0.00,1.05,0.22,9.28,0.00,-0.00,0.00,0.00
2026-06-26 19:45:30.315,994.34,994.30,-4.42,-2.78,0.00,1.05,0.22,9.28,0.00,-0.00,0.00,0.00
2026-06-26 19:45:30.316,994.34,994.30,-4.42,-2.78,0.00,1.05,0.22,9.28,0.00,-0.00,0.00,0.00
2026-06-26 19:45:30.319,994.34,994.30,-4.42,-2.78,0.00,1.05,0.22,9.28,0.00,-0.00,0.00,0.00
2026-06-26 19:45:30.322,994.34,994.30,-4.42,-2.78,0.00,1.05,0.22,9.28,0.00,-0.00,-0.00,0.00
2026-06-26 19:45:30.323,994.34,994.30,-4.42,-2.78,0.00,1.07,0.23,9.28,0.00,-0.00,-0.00,0.00
2026-06-26 19:45:30.324,994.34,994.30,-4.42,-2.78,0.00,1.07,0.23,9.28,0.00,-0.00,-0.00,0.00
2026-06-26 19:45:30.326,994.34,994.30,-4.42,-2.78,0.00,1.07,0.23,9.28,0.00,-0.00,-0.00,0.00
2026-06-26 19:45:30.329,994.34,994.30,-4.42,-2.78,0.00,1.07,0.23,9.28,0.00,-0.00,-0.00,0.00
2026-06-26 19:45:30.333,994.34,994.30,-4.42,-2.78,0.00,1.07,0.23,9.28,0.00,-0.00,0.00,0.00
2026-06-26 19:45:30.466,994.34,994.31,-3.44,-2.45,0.00,1.08,0.25,9.26,0.00,0.00,-0.00,0.00
2026-06-26 19:45:30.472,994.34,994.31,-3.44,-2.45,0.00,1.08,0.25,9.26,0.00,0.00,-0.00,0.00
2026-06-26 19:45:30.473,994.34,994.31,-3.44,-2.45,0.00,1.06,0.25,9.30,0.00,0.00,0.00,0.00
2026-06-26 19:45:30.474,994.34,994.31,-3.44,-2.45,0.00,1.06,0.25,9.30,0.00,0.00,0.00,0.00
2026-06-26 19:45:30.477,994.34,994.31,-3.44,-2.45,0.00,1.06,0.25,9.30,0.00,0.00,0.00,0.00
2026-06-26 19:45:30.483,994.34,994.31,-3.44,-2.45,0.00,1.06,0.25,9.30,-0.00,0.00,0.00,0.00
2026-06-26 19:45:30.486,994.34,994.31,-3.44,-2.45,0.00,1.07,0.22,9.26,-0.00,0.00,0.00,0.00
2026-06-26 19:45:30.490,994.34,994.31,-3.44,-2.45,0.00,1.07,0.22,9.26,-0.00,0.00,0.00,0.00
2026-06-26 19:45:30.493,994.34,994.31,-3.44,-2.45,0.00,1.07,0.22,9.29,-0.00,0.00,-0.00,0.00
2026-06-26 19:45:30.495,994.34,994.31,-3.44,-2.45,0.00,1.07,0.22,9.29,-0.00,0.00,-0.00,0.00
2026-06-26 19:45:30.497,994.34,994.31,-3.44,-2.45,0.00,1.07,0.22,9.29,-0.00,0.00,-0.00,0.00
2026-06-26 19:45:30.502,994.34,994.31,-3.44,-2.45,0.00,1.07,0.22,9.29,-0.00,0.00,-0.00,0.00
2026-06-26 19:45:30.504,994.34,994.31,-3.44,-2.45,0.00,1.07,0.25,9.29,-0.00,0.00,0.00,0.00
2026-06-26 19:45:30.506,994.34,994.31,-3.44,-2.45,0.00,1.07,0.25,9.29,-0.00,0.00,0.00,0.00
2026-06-26 19:45:30.652,994.34,994.29,-5.02,-2.96,0.00,1.07,0.24,9.24,-0.00,0.00,-0.00,0.00
2026-06-26 19:45:30.654,994.34,994.29,-5.02,-2.96,0.00,1.06,0.25,9.30,0.00,0.00,-0.00,0.00
2026-06-26 19:45:30.655,994.34,994.29,-5.02,-2.96,0.00,1.06,0.25,9.30,0.00,0.00,-0.00,0.00
2026-06-26 19:45:30.656,994.34,994.29,-5.02,-2.96,0.00,1.06,0.25,9.30,0.00,0.00,-0.00,0.00
2026-06-26 19:45:30.658,994.34,994.29,-5.02,-2.96,0.00,1.06,0.25,9.30,0.00,0.00,-0.00,0.00
2026-06-26 19:45:30.660,994.34,994.29,-5.02,-2.96,0.00,1.06,0.25,9.30,0.00,0.00,-0.00,0.00
2026-06-26 19:45:30.662,994.34,994.29,-5.02,-2.96,0.00,1.06,0.25,9.30,-0.00,0.00,-0.00,0.00
2026-06-26 19:45:30.664,994.34,994.29,-5.02,-2.96,0.00,1.05,0.23,9.28,-0.00,0.00,-0.00,0.00
2026-06-26 19:45:30.665,994.34,994.29,-5.02,-2.96,0.00,1.05,0.23,9.28,-0.00,0.00,-0.00,0.00
2026-06-26 19:45:30.666,994.34,994.29,-5.02,-2.96,0.00,1.05,0.23,9.28,-0.00,0.00,-0.00,0.00
2026-06-26 19:45:30.667,994.34,994.29,-5.02,-2.96,0.00,1.05,0.23,9.28,-0.00,0.00,-0.00,0.00
2026-06-26 19:45:30.672,994.34,994.29,-5.02,-2.96,0.00,1.05,0.23,9.28,-0.00,0.00,-0.00,0.00
2026-06-26 19:45:30.674,994.34,994.29,-5.02,-2.96,0.00,1.04,0.24,9.27,-0.00,0.00,-0.00,0.00
2026-06-26 19:45:30.679,994.34,994.29,-5.02,-2.96,0.00,1.04,0.24,9.27,-0.00,0.00,-0.00,0.00
2026-06-26 19:45:30.683,994.34,994.29,-5.02,-2.96,0.00,1.04,0.24,9.27,-0.00,-0.00,0.00,0.00
2026-06-26 19:45:30.823,994.35,994.31,-4.17,-2.70,0.00,1.07,0.22,9.27,0.00,-0.00,0.00,0.00
2026-06-26 19:45:30.824,994.35,994.31,-4.17,-2.70,0.00,1.06,0.24,9.27,0.00,-0.00,0.00,0.00
2026-06-26 19:45:30.825,994.35,994.31,-4.17,-2.70,0.00,1.06,0.24,9.27,0.00,-0.00,0.00,0.00
2026-06-26 19:45:30.827,994.35,994.31,-4.17,-2.70,0.00,1.06,0.24,9.27,0.00,-0.00,0.00,0.00
2026-06-26 19:45:30.828,994.35,994.31,-4.17,-2.70,0.00,1.06,0.24,9.27,0.00,-0.00,0.00,0.00
2026-06-26 19:45:30.833,994.35,994.31,-4.17,-2.70,0.00,1.06,0.24,9.27,0.00,0.00,0.00,0.00
2026-06-26 19:45:30.836,994.35,994.31,-4.17,-2.70,0.00,1.06,0.22,9.28,0.00,0.00,0.00,0.00
2026-06-26 19:45:30.838,994.35,994.31,-4.17,-2.70,0.00,1.06,0.22,9.28,0.00,0.00,0.00,0.00
2026-06-26 19:45:30.842,994.35,994.31,-4.17,-2.70,0.00,1.06,0.22,9.28,0.00,0.00,0.00,0.00
2026-06-26 19:45:30.844,994.35,994.31,-4.17,-2.70,0.00,1.08,0.22,9.27,-0.00,-0.00,0.00,0.00
2026-06-26 19:45:30.845,994.35,994.31,-4.17,-2.70,0.00,1.08,0.22,9.27,-0.00,-0.00,0.00,0.00
2026-06-26 19:45:30.847,994.35,994.31,-4.17,-2.70,0.00,1.08,0.22,9.27,-0.00,-0.00,0.00,0.00
2026-06-26 19:45:30.852,994.35,994.31,-4.17,-2.70,0.00,1.08,0.22,9.27,-0.00,-0.00,0.00,0.00
2026-06-26 19:45:30.854,994.35,994.31,-4.17,-2.70,0.00,1.08,0.24,9.27,0.00,-0.00,-0.00,0.00
2026-06-26 19:45:30.855,994.35,994.31,-4.17,-2.70,0.00,1.08,0.24,9.27,0.00,-0.00,-0.00,0.00
2026-06-26 19:45:30.996,994.35,994.31,-3.73,-2.56,0.00,1.07,0.24,9.29,0.00,-0.00,-0.00,0.00
2026-06-26 19:45:30.998,994.35,994.31,-3.73,-2.56,0.00,1.07,0.24,9.29,0.00,-0.00,-0.00,0.00
2026-06-26 19:45:31.003,994.35,994.31,-3.73,-2.56,0.00,1.07,0.24,9.29,0.00,-0.00,-0.00,0.00
2026-06-26 19:45:31.005,994.35,994.31,-3.73,-2.56,0.00,1.06,0.23,9.29,0.00,0.00,0.00,0.00
2026-06-26 19:45:31.006,994.35,994.31,-3.73,-2.56,0.00,1.06,0.23,9.29,0.00,0.00,0.00,0.00
2026-06-26 19:45:31.007,994.35,994.31,-3.73,-2.56,0.00,1.06,0.23,9.29,0.00,0.00,0.00,0.00
2026-06-26 19:45:31.009,994.35,994.31,-3.73,-2.56,0.00,1.06,0.23,9.29,0.00,0.00,0.00,0.00
2026-06-26 19:45:31.011,994.35,994.31,-3.73,-2.56,0.00,1.06,0.23,9.29,0.00,0.00,0.00,0.00
2026-06-26 19:45:31.013,994.35,994.31,-3.73,-2.56,0.00,1.06,0.23,9.29,0.00,0.00,0.00,0.00
2026-06-26 19:45:31.014,994.35,994.31,-3.73,-2.56,0.00,1.06,0.25,9.30,0.00,-0.00,-0.00,0.00
2026-06-26 19:45:31.016,994.35,994.31,-3.73,-2.56,0.00,1.06,0.25,9.30,0.00,-0.00,-0.00,0.00
2026-06-26 19:45:31.017,994.35,994.31,-3.73,-2.56,0.00,1.06,0.25,9.30,0.00,-0.00,-0.00,0.00
2026-06-26 19:45:31.018,994.35,994.31,-3.73,-2.56,0.00,1.06,0.25,9.30,0.00,-0.00,-0.00,0.00
2026-06-26 19:45:31.023,994.35,994.31,-3.73,-2.56,0.00,1.06,0.25,9.30,-0.00,0.00,0.00,0.00
2026-06-26 19:45:31.025,994.35,994.31,-3.73,-2.56,0.00,1.04,0.23,9.27,-0.00,0.00,0.00,0.00
2026-06-26 19:45:31.026,994.35,994.31,-3.73,-2.56,0.00,1.04,0.23,9.27,-0.00,0.00,0.00,0.00
2026-06-26 19:45:31.027,994.35,994.31,-3.73,-2.56,0.00,1.04,0.23,9.27,-0.00,0.00,0.00,0.00
2026-06-26 19:45:31.028,994.35,994.31,-3.73,-2.56,0.00,1.04,0.23,9.27,-0.00,0.00,0.00,0.00
2026-06-26 19:45:31.034,994.35,994.31,-3.73,-2.56,0.00,1.04,0.23,9.27,0.00,0.00,-0.00,0.00
2026-06-26 19:45:31.174,994.36,994.31,-5.24,-3.03,0.00,1.06,0.23,9.29,0.00,0.00,-0.00,0.00
2026-06-26 19:45:31.176,994.36,994.31,-5.24,-3.03,0.00,1.06,0.23,9.29,0.00,0.00,-0.00,0.00
2026-06-26 19:45:31.177,994.36,994.31,-5.24,-3.03,0.00,1.06,0.23,9.29,0.00,0.00,-0.00,0.00
2026-06-26 19:45:31.178,994.36,994.31,-5.24,-3.03,0.00,1.06,0.23,9.29,0.00,0.00,-0.00,0.00
2026-06-26 19:45:31.183,994.36,994.31,-5.24,-3.03,0.00,1.06,0.23,9.29,0.00,0.00,-0.00,0.00
2026-06-26 19:45:31.185,994.36,994.31,-5.24,-3.03,0.00,1.05,0.25,9.26,0.00,0.00,0.00,0.00
2026-06-26 19:45:31.186,994.36,994.31,-5.24,-3.03,0.00,1.05,0.25,9.26,0.00,0.00,0.00,0.00
2026-06-26 19:45:31.187,994.36,994.31,-5.24,-3.03,0.00,1.05,0.25,9.26,0.00,0.00,0.00,0.00
2026-06-26 19:45:31.188,994.36,994.31,-5.24,-3.03,0.00,1.05,0.25,9.26,0.00,0.00,0.00,0.00
2026-06-26 19:45:31.194,994.36,994.31,-5.24,-3.03,0.00,1.05,0.25,9.26,0.00,0.00,0.00,0.00
2026-06-26 19:45:31.195,994.36,994.31,-5.24,-3.03,0.00,1.06,0.24,9.27,-0.00,-0.00,0.00,0.00
2026-06-26 19:45:31.196,994.36,994.31,-5.24,-3.03,0.00,1.06,0.24,9.27,-0.00,-0.00,0.00,0.00
2026-06-26 19:45:31.197,994.36,994.31,-5.24,-3.03,0.00,1.06,0.24,9.27,-0.00,-0.00,0.00,0.00
2026-06-26 19:45:31.199,994.36,994.31,-5.24,-3.03,0.00,1.06,0.24,9.27,-0.00,-0.00,0.00,0.00
2026-06-26 19:45:31.204,994.36,994.31,-5.24,-3.03,0.00,1.06,0.24,9.27,0.00,-0.00,0.00,0.00
2026-06-26 19:45:31.205,994.36,994.31,-5.24,-3.03,0.00,1.07,0.24,9.26,0.00,-0.00,0.00,0.00
2026-06-26 19:45:31.206,994.36,994.31,-5.24,-3.03,0.00,1.07,0.24,9.26,0.00,-0.00,0.00,0.00
2026-06-26 19:45:31.208,994.36,994.31,-5.24,-3.03,0.00,1.07,0.24,9.26,0.00,-0.00,0.00,0.00
2026-06-26 19:45:31.209,994.36,994.31,-5.24,-3.03,0.00,1.07,0.24,9.26,0.00,-0.00,0.00,0.00
2026-06-26 19:45:31.210,994.36,994.31,-5.24,-3.03,0.00,1.07,0.24,9.26,0.00,-0.00,0.00,0.00
2026-06-26 19:45:31.354,994.35,994.30,-5.14,-3.00,0.00,1.07,0.22,9.28,-0.00,0.00,0.00,0.00
2026-06-26 19:45:31.355,994.35,994.30,-5.14,-3.00,0.00,1.07,0.22,9.28,0.00,-0.00,-0.00,0.00
2026-06-26 19:45:31.357,994.35,994.30,-5.14,-3.00,0.00,1.07,0.22,9.28,0.00,-0.00,-0.00,0.00
2026-06-26 19:45:31.358,994.35,994.30,-5.14,-3.00,0.00,1.07,0.22,9.28,0.00,-0.00,-0.00,0.00
2026-06-26 19:45:31.360,994.35,994.30,-5.14,-3.00,0.00,1.07,0.22,9.28,0.00,-0.00,-0.00,0.00
2026-06-26 19:45:31.362,994.35,994.30,-5.14,-3.00,0.00,1.07,0.22,9.28,0.00,-0.00,-0.00,0.00
2026-06-26 19:45:31.364,994.35,994.30,-5.14,-3.00,0.00,1.07,0.22,9.28,0.00,-0.00,0.00,0.00
2026-06-26 19:45:31.366,994.35,994.30,-5.14,-3.00,0.00,1.06,0.24,9.27,0.00,-0.00,0.00,0.00
2026-06-26 19:45:31.367,994.35,994.30,-5.14,-3.00,0.00,1.06,0.24,9.27,0.00,-0.00,0.00,0.00
2026-06-26 19:45:31.374,994.35,994.30,-5.14,-3.00,0.00,1.06,0.24,9.27,0.00,-0.00,0.00,0.00
2026-06-26 19:45:31.375,994.35,994.30,-5.14,-3.00,0.00,1.05,0.23,9.27,0.00,-0.00,0.00,0.00
2026-06-26 19:45:31.376,994.35,994.30,-5.14,-3.00,0.00,1.05,0.23,9.27,0.00,-0.00,0.00,0.00
2026-06-26 19:45:31.378,994.35,994.30,-5.14,-3.00,0.00,1.05,0.23,9.27,0.00,-0.00,0.00,0.00
2026-06-26 19:45:31.379,994.35,994.30,-5.14,-3.00,0.00,1.05,0.23,9.27,0.00,-0.00,0.00,0.00
2026-06-26 19:45:31.384,994.35,994.30,-5.14,-3.00,0.00,1.05,0.23,9.27,0.00,-0.00,0.00,0.00
2026-06-26 19:45:31.385,994.35,994.30,-5.14,-3.00,0.00,1.04,0.24,9.27,0.00,-0.00,-0.00,0.00
2026-06-26 19:45:31.386,994.35,994.30,-5.14,-3.00,0.00,1.04,0.24,9.27,0.00,-0.00,-0.00,0.00
2026-06-26 19:45:31.525,994.34,994.30,-3.92,-2.62,0.00,1.08,0.24,9.27,0.00,0.00,-0.00,0.00
2026-06-26 19:45:31.526,994.34,994.30,-3.92,-2.62,0.00,1.07,0.22,9.24,0.00,0.00,-0.00,0.00
2026-06-26 19:45:31.528,994.34,994.30,-3.92,-2.62,0.00,1.07,0.22,9.24,0.00,0.00,-0.00,0.00
2026-06-26 19:45:31.529,994.34,994.30,-3.92,-2.62,0.00,1.07,0.22,9.24,0.00,0.00,-0.00,0.00
2026-06-26 19:45:31.534,994.34,994.30,-3.92,-2.62,0.00,1.07,0.22,9.24,0.00,0.00,-0.00,0.00
2026-06-26 19:45:31.536,994.34,994.30,-3.92,-2.62,0.00,1.06,0.24,9.28,-0.00,0.00,0.00,0.00
2026-06-26 19:45:31.537,994.34,994.30,-3.92,-2.62,0.00,1.06,0.24,9.28,-0.00,0.00,0.00,0.00
2026-06-26 19:45:31.538,994.34,994.30,-3.92,-2.62,0.00,1.06,0.24,9.28,-0.00,0.00,0.00,0.00
2026-06-26 19:45:31.539,994.34,994.30,-3.92,-2.62,0.00,1.06,0.24,9.28,-0.00,0.00,0.00,0.00
2026-06-26 19:45:31.544,994.34,994.30,-3.92,-2.62,0.00,1.06,0.24,9.28,-0.00,0.00,0.00,0.00
2026-06-26 19:45:31.546,994.34,994.30,-3.92,-2.62,0.00,1.06,0.25,9.28,0.00,0.00,0.00,0.00
2026-06-26 19:45:31.547,994.34,994.30,-3.92,-2.62,0.00,1.06,0.25,9.28,0.00,0.00,0.00,0.00
2026-06-26 19:45:31.548,994.34,994.30,-3.92,-2.62,0.00,1.06,0.25,9.28,0.00,0.00,0.00,0.00
2026-06-26 19:45:31.551,994.34,994.30,-3.92,-2.62,0.00,1.06,0.25,9.28,0.00,0.00,0.00,0.00
2026-06-26 19:45:31.555,994.34,994.30,-3.92,-2.62,0.00,1.06,0.25,9.28,0.00,-0.00,-0.00,0.00
2026-06-26 19:45:31.556,994.34,994.30,-3.92,-2.62,0.00,1.08,0.22,9.26,0.00,-0.00,-0.00,0.00
2026-06-26 19:45:31.557,994.34,994.30,-3.92,-2.62,0.00,1.08,0.22,9.26,0.00,-0.00,-0.00,0.00
2026-06-26 19:45:31.558,994.34,994.30,-3.92,-2.62,0.00,1.08,0.22,9.26,0.00,-0.00,-0.00,0.00
2026-06-26 19:45:31.560,994.34,994.30,-3.92,-2.62,0.00,1.08,0.22,9.26,0.00,-0.00,-0.00,0.00
2026-06-26 19:45:31.701,994.35,994.31,-3.89,-2.61,0.00,1.04,0.22,9.26,-0.00,0.00,0.00,0.00
2026-06-26 19:45:31.705,994.35,994.31,-3.89,-2.61,0.00,1.04,0.22,9.26,0.00,-0.01,0.00,0.00
2026-06-26 19:45:31.707,994.35,994.31,-3.89,-2.61,0.00,1.07,0.25,9.27,0.00,-0.01,0.00,0.00
2026-06-26 19:45:31.709,994.35,994.31,-3.89,-2.61,0.00,1.07,0.25,9.27,0.00,-0.01,0.00,0.00
2026-06-26 19:45:31.710,994.35,994.31,-3.89,-2.61,0.00,1.07,0.25,9.27,0.00,-0.01,0.00,0.00
2026-06-26 19:45:31.712,994.35,994.31,-3.89,-2.61,0.00,1.07,0.25,9.27,0.00,-0.01,0.00,0.00
2026-06-26 19:45:31.713,994.35,994.31,-3.89,-2.61,0.00,1.07,0.25,9.27,0.00,-0.01,0.00,0.00
2026-06-26 19:45:31.715,994.35,994.31,-3.89,-2.61,0.00,1.07,0.25,9.27,0.00,0.00,0.00,0.00
2026-06-26 19:45:31.718,994.35,994.31,-3.89,-2.61,0.00,1.04,0.25,9.28,0.00,0.00,0.00,0.00
2026-06-26 19:45:31.719,994.35,994.31,-3.89,-2.61,0.00,1.04,0.25,9.28,0.00,0.00,0.00,0.00
2026-06-26 19:45:31.725,994.35,994.31,-3.89,-2.61,0.00,1.04,0.25,9.28,0.00,0.00,0.00,0.00
2026-06-26 19:45:31.726,994.35,994.31,-3.89,-2.61,0.00,1.07,0.22,9.27,-0.00,-0.00,0.00,0.00
2026-06-26 19:45:31.727,994.35,994.31,-3.89,-2.61,0.00,1.07,0.22,9.27,-0.00,-0.00,0.00,0.00
2026-06-26 19:45:31.728,994.35,994.31,-3.89,-2.61,0.00,1.07,0.22,9.27,-0.00,-0.00,0.00,0.00
2026-06-26 19:45:31.730,994.35,994.31,-3.89,-2.61,0.00,1.07,0.22,9.27,-0.00,-0.00,0.00,0.00
2026-06-26 19:45:31.735,994.35,994.31,-3.89,-2.61,0.00,1.07,0.22,9.27,-0.00,-0.00,0.00,0.00
2026-06-26 19:45:31.881,994.36,994.33,-2.60,-2.13,0.00,1.05,0.24,9.29,0.00,-0.00,-0.00,0.00
2026-06-26 19:45:31.885,994.36,994.33,-2.60,-2.13,0.00,1.05,0.24,9.29,-0.00,0.00,0.00,0.00
2026-06-26 19:45:31.887,994.36,994.33,-2.60,-2.13,0.00,1.07,0.24,9.29,-0.00,0.00,0.00,0.00
2026-06-26 19:45:31.888,994.36,994.33,-2.60,-2.13,0.00,1.07,0.24,9.29,-0.00,0.00,0.00,0.00
2026-06-26 19:45:31.889,994.36,994.33,-2.60,-2.13,0.00,1.07,0.24,9.29,-0.00,0.00,0.00,0.00
2026-06-26 19:45:31.892,994.36,994.33,-2.60,-2.13,0.00,1.07,0.24,9.29,-0.00,0.00,0.00,0.00
2026-06-26 19:45:31.896,994.36,994.33,-2.60,-2.13,0.00,1.07,0.24,9.29,0.00,0.00,0.00,0.00
2026-06-26 19:45:31.897,994.36,994.33,-2.60,-2.13,0.00,1.06,0.25,9.28,0.00,0.00,0.00,0.00
2026-06-26 19:45:31.898,994.36,994.33,-2.60,-2.13,0.00,1.06,0.25,9.28,0.00,0.00,0.00,0.00
2026-06-26 19:45:31.899,994.36,994.33,-2.60,-2.13,0.00,1.06,0.25,9.28,0.00,0.00,0.00,0.00
2026-06-26 19:45:31.902,994.36,994.33,-2.60,-2.13,0.00,1.06,0.25,9.28,0.00,0.00,0.00,0.00
2026-06-26 19:45:31.906,994.36,994.33,-2.60,-2.13,0.00,1.06,0.25,9.28,-0.00,-0.00,0.00,0.00
2026-06-26 19:45:31.907,994.36,994.33,-2.60,-2.13,0.00,1.04,0.25,9.26,-0.00,-0.00,0.00,0.00
2026-06-26 19:45:31.908,994.36,994.33,-2.60,-2.13,0.00,1.04,0.25,9.26,-0.00,-0.00,0.00,0.00
2026-06-26 19:45:31.910,994.36,994.33,-2.60,-2.13,0.00,1.04,0.25,9.26,-0.00,-0.00,0.00,0.00
2026-06-26 19:45:31.911,994.36,994.33,-2.60,-2.13,0.00,1.04,0.25,9.26,-0.00,-0.00,0.00,0.00
2026-06-26 19:45:32.046,994.34,994.31,-2.35,-2.03,0.00,1.05,0.22,9.27,-0.00,0.00,-0.00,0.00
2026-06-26 19:45:32.048,994.34,994.31,-2.35,-2.03,0.00,1.05,0.22,9.27,-0.00,0.00,-0.00,0.00
2026-06-26 19:45:32.049,994.34,994.31,-2.35,-2.03,0.00,1.05,0.22,9.27,-0.00,0.00,-0.00,0.00
2026-06-26 19:45:32.050,994.34,994.31,-2.35,-2.03,0.00,1.05,0.22,9.27,-0.00,0.00,-0.00,0.00
2026-06-26 19:45:32.055,994.34,994.31,-2.35,-2.03,0.00,1.05,0.22,9.27,-0.00,0.00,-0.00,0.00
2026-06-26 19:45:32.057,994.34,994.31,-2.35,-2.03,0.00,1.07,0.24,9.28,0.00,0.00,0.00,0.00
2026-06-26 19:45:32.059,994.34,994.31,-2.35,-2.03,0.00,1.07,0.24,9.28,0.00,0.00,0.00,0.00
2026-06-26 19:45:32.061,994.34,994.31,-2.35,-2.03,0.00,1.07,0.24,9.28,0.00,0.00,0.00,0.00
2026-06-26 19:45:32.062,994.34,994.31,-2.35,-2.03,0.00,1.07,0.24,9.28,0.00,0.00,0.00,0.00
2026-06-26 19:45:32.063,994.34,994.31,-2.35,-2.03,0.00,1.07,0.24,9.28,0.00,0.00,0.00,0.00
2026-06-26 19:45:32.066,994.34,994.31,-2.35,-2.03,0.00,1.07,0.24,9.28,0.00,0.00,0.00,0.00
2026-06-26 19:45:32.067,994.34,994.31,-2.35,-2.03,0.00,1.07,0.23,9.28,0.00,0.01,0.00,0.00
2026-06-26 19:45:32.068,994.34,994.31,-2.35,-2.03,0.00,1.07,0.23,9.28,0.00,0.01,0.00,0.00
2026-06-26 19:45:32.069,994.34,994.31,-2.35,-2.03,0.00,1.07,0.23,9.28,0.00,0.01,0.00,0.00
2026-06-26 19:45:32.071,994.34,994.31,-2.35,-2.03,0.00,1.07,0.23,9.28,0.00,0.01,0.00,0.00
2026-06-26 19:45:32.076,994.34,994.31,-2.35,-2.03,0.00,1.07,0.23,9.28,0.00,0.01,0.00,0.00
2026-06-26 19:45:32.077,994.34,994.31,-2.35,-2.03,0.00,1.08,0.23,9.28,0.00,-0.00,0.00,0.00
2026-06-26 19:45:32.078,994.34,994.31,-2.35,-2.03,0.00,1.08,0.23,9.28,0.00,-0.00,0.00,0.00
2026-06-26 19:45:32.083,994.34,994.31,-2.35,-2.03,0.00,1.08,0.23,9.28,0.00,-0.00,0.00,0.00
2026-06-26 19:45:32.226,994.35,994.32,-2.86,-2.24,0.00,1.07,0.24,9.26,0.00,0.00,0.00,0.00
2026-06-26 19:45:32.227,994.35,994.32,-2.86,-2.24,0.00,1.07,0.25,9.27,0.00,0.00,0.00,0.00
2026-06-26 19:45:32.229,994.35,994.32,-2.86,-2.24,0.00,1.07,0.25,9.27,0.00,0.00,0.00,0.00
2026-06-26 19:45:32.230,994.35,994.32,-2.86,-2.24,0.00,1.07,0.25,9.27,0.00,0.00,0.00,0.00
2026-06-26 19:45:32.233,994.35,994.32,-2.86,-2.24,0.00,1.07,0.25,9.27,0.00,0.00,0.00,0.00
2026-06-26 19:45:32.236,994.35,994.32,-2.86,-2.24,0.00,1.07,0.25,9.27,0.00,-0.00,0.00,0.00
2026-06-26 19:45:32.238,994.35,994.32,-2.86,-2.24,0.00,1.06,0.21,9.28,0.00,-0.00,0.00,0.00
2026-06-26 19:45:32.239,994.35,994.32,-2.86,-2.24,0.00,1.06,0.21,9.28,0.00,-0.00,0.00,0.00
2026-06-26 19:45:32.240,994.35,994.32,-2.86,-2.24,0.00,1.06,0.21,9.28,0.00,-0.00,0.00,0.00
2026-06-26 19:45:32.241,994.35,994.32,-2.86,-2.24,0.00,1.06,0.21,9.28,0.00,-0.00,0.00,0.00
2026-06-26 19:45:32.246,994.35,994.32,-2.86,-2.24,0.00,1.06,0.21,9.28,0.00,-0.00,0.00,0.00
2026-06-26 19:45:32.249,994.35,994.32,-2.86,-2.24,0.00,1.07,0.22,9.29,-0.00,-0.00,0.00,0.00
2026-06-26 19:45:32.250,994.35,994.32,-2.86,-2.24,0.00,1.07,0.22,9.29,-0.00,-0.00,0.00,0.00
2026-06-26 19:45:32.255,994.35,994.32,-2.86,-2.24,0.00,1.07,0.22,9.29,-0.00,-0.00,0.00,0.00
2026-06-26 19:45:32.257,994.35,994.32,-2.86,-2.24,0.00,1.06,0.23,9.28,0.00,-0.00,-0.00,0.00
2026-06-26 19:45:32.258,994.35,994.32,-2.86,-2.24,0.00,1.06,0.23,9.28,0.00,-0.00,-0.00,0.00
2026-06-26 19:45:32.259,994.35,994.32,-2.86,-2.24,0.00,1.06,0.23,9.28,0.00,-0.00,-0.00,0.00
2026-06-26 19:45:32.399,994.35,994.32,-3.29,-2.40,0.00,1.05,0.23,9.27,0.00,0.00,0.00,0.00
2026-06-26 19:45:32.400,994.35,994.32,-3.29,-2.40,0.00,1.05,0.23,9.27,0.00,0.00,0.00,0.00
2026-06-26 19:45:32.404,994.35,994.32,-3.29,-2.40,0.00,1.05,0.23,9.27,0.00,0.00,0.00,0.00
2026-06-26 19:45:32.407,994.35,994.32,-3.29,-2.40,0.00,1.05,0.23,9.27,0.00,0.00,0.00,0.00
2026-06-26 19:45:32.408,994.35,994.32,-3.29,-2.40,0.00,1.06,0.24,9.27,0.00,0.00,0.00,0.00
2026-06-26 19:45:32.410,994.35,994.32,-3.29,-2.40,0.00,1.06,0.24,9.27,0.00,0.00,0.00,0.00
2026-06-26 19:45:32.411,994.35,994.32,-3.29,-2.40,0.00,1.06,0.24,9.27,0.00,0.00,0.00,0.00
2026-06-26 19:45:32.412,994.35,994.32,-3.29,-2.40,0.00,1.06,0.24,9.27,0.00,0.00,0.00,0.00
2026-06-26 19:45:32.413,994.35,994.32,-3.29,-2.40,0.00,1.06,0.24,9.27,0.00,0.00,0.00,0.00
2026-06-26 19:45:32.414,994.35,994.32,-3.29,-2.40,0.00,1.06,0.24,9.27,0.00,0.00,0.00,0.00
2026-06-26 19:45:32.416,994.35,994.32,-3.29,-2.40,0.00,1.06,0.24,9.27,0.00,0.00,0.00,0.00
2026-06-26 19:45:32.418,994.35,994.32,-3.29,-2.40,0.00,1.06,0.23,9.28,0.00,0.00,0.00,0.00
2026-06-26 19:45:32.419,994.35,994.32,-3.29,-2.40,0.00,1.06,0.23,9.28,0.00,0.00,0.00,0.00
2026-06-26 19:45:32.420,994.35,994.32,-3.29,-2.40,0.00,1.06,0.23,9.28,0.00,0.00,0.00,0.00
2026-06-26 19:45:32.426,994.35,994.32,-3.29,-2.40,0.00,1.06,0.23,9.28,0.00,0.00,0.00,0.00
2026-06-26 19:45:32.428,994.35,994.32,-3.29,-2.40,0.00,1.04,0.24,9.27,-0.00,-0.00,0.00,0.00
2026-06-26 19:45:32.429,994.35,994.32,-3.29,-2.40,0.00,1.04,0.24,9.27,-0.00,-0.00,0.00,0.00
2026-06-26 19:45:32.430,994.35,994.32,-3.29,-2.40,0.00,1.04,0.24,9.27,-0.00,-0.00,0.00,0.00
2026-06-26 19:45:32.431,994.35,994.32,-3.29,-2.40,0.00,1.04,0.24,9.27,-0.00,-0.00,0.00,0.00
2026-06-26 19:45:32.436,994.35,994.32,-3.29,-2.40,0.00,1.04,0.24,9.27,-0.00,-0.00,0.00,0.00
2026-06-26 19:45:32.577,994.35,994.32,-3.76,-2.57,0.00,1.06,0.22,9.27,0.00,0.00,-0.00,0.00
2026-06-26 19:45:32.578,994.35,994.32,-3.76,-2.57,0.00,1.06,0.23,9.29,0.00,0.00,0.00,0.00
2026-06-26 19:45:32.580,994.35,994.32,-3.76,-2.57,0.00,1.06,0.23,9.29,0.00,0.00,0.00,0.00
2026-06-26 19:45:32.581,994.35,994.32,-3.76,-2.57,0.00,1.06,0.23,9.29,0.00,0.00,0.00,0.00
2026-06-26 19:45:32.588,994.35,994.32,-3.76,-2.57,0.00,1.06,0.23,9.29,0.00,0.00,0.00,0.00
2026-06-26 19:45:32.590,994.35,994.32,-3.76,-2.57,0.00,1.07,0.24,9.26,-0.00,-0.00,-0.00,0.00
2026-06-26 19:45:32.594,994.35,994.32,-3.76,-2.57,0.00,1.07,0.24,9.26,-0.00,-0.00,-0.00,0.00
2026-06-26 19:45:32.598,994.35,994.32,-3.76,-2.57,0.00,1.07,0.24,9.26,0.00,0.00,-0.00,0.00
2026-06-26 19:45:32.599,994.35,994.32,-3.76,-2.57,0.00,1.08,0.23,9.25,0.00,0.00,-0.00,0.00
2026-06-26 19:45:32.601,994.35,994.32,-3.76,-2.57,0.00,1.08,0.23,9.25,0.00,0.00,-0.00,0.00
2026-06-26 19:45:32.606,994.35,994.32,-3.76,-2.57,0.00,1.08,0.23,9.25,0.00,0.00,-0.00,0.00
2026-06-26 19:45:32.608,994.35,994.32,-3.76,-2.57,0.00,1.07,0.24,9.28,0.00,-0.00,0.00,0.00
2026-06-26 19:45:32.610,994.35,994.32,-3.76,-2.57,0.00,1.07,0.24,9.28,0.00,-0.00,0.00,0.00
2026-06-26 19:45:32.752,994.34,994.30,-3.63,-2.52,0.00,1.06,0.22,9.25,-0.00,0.00,-0.00,0.00
2026-06-26 19:45:32.758,994.34,994.30,-3.63,-2.52,0.00,1.06,0.22,9.25,0.00,-0.00,0.00,0.00
2026-06-26 19:45:32.760,994.34,994.30,-3.63,-2.52,0.00,1.08,0.25,9.28,0.00,-0.00,0.00,0.00
2026-06-26 19:45:32.762,994.34,994.30,-3.63,-2.52,0.00,1.08,0.25,9.28,0.00,-0.00,0.00,0.00
2026-06-26 19:45:32.764,994.34,994.30,-3.63,-2.52,0.00,1.08,0.25,9.28,0.00,-0.00,0.00,0.00
2026-06-26 19:45:32.768,994.34,994.30,-3.63,-2.52,0.00,1.08,0.25,9.28,0.00,0.00,0.00,0.00
2026-06-26 19:45:32.770,994.34,994.30,-3.63,-2.52,0.00,1.06,0.24,9.26,0.00,0.00,0.00,0.00
2026-06-26 19:45:32.771,994.34,994.30,-3.63,-2.52,0.00,1.06,0.24,9.26,0.00,0.00,0.00,0.00
2026-06-26 19:45:32.777,994.34,994.30,-3.63,-2.52,0.00,1.06,0.24,9.26,0.00,0.00,0.00,0.00
2026-06-26 19:45:32.781,994.34,994.30,-3.63,-2.52,0.00,1.07,0.22,9.28,0.00,0.00,0.00,0.00
2026-06-26 19:45:32.787,994.34,994.30,-3.63,-2.52,0.00,1.07,0.22,9.28,0.00,0.00,0.00,0.00
2026-06-26 19:45:32.931,994.33,994.31,-1.63,-1.69,0.00,1.05,0.24,9.27,0.00,-0.00,0.00,0.00
2026-06-26 19:45:32.938,994.33,994.31,-1.63,-1.69,0.00,1.05,0.24,9.27,0.00,-0.00,0.00,0.00
2026-06-26 19:45:32.939,994.33,994.31,-1.63,-1.69,0.00,1.09,0.24,9.23,0.00,0.00,0.00,0.00
2026-06-26 19:45:32.941,994.33,994.31,-1.63,-1.69,0.00,1.09,0.24,9.23,0.00,0.00,0.00,0.00
2026-06-26 19:45:32.943,994.33,994.31,-1.63,-1.69,0.00,1.09,0.24,9.23,0.00,0.00,0.00,0.00
2026-06-26 19:45:32.948,994.33,994.31,-1.63,-1.69,0.00,1.09,0.24,9.23,0.00,0.00,-0.00,0.00
2026-06-26 19:45:32.950,994.33,994.31,-1.63,-1.69,0.00,1.06,0.23,9.29,0.00,0.00,-0.00,0.00
2026-06-26 19:45:32.952,994.33,994.31,-1.63,-1.69,0.00,1.06,0.23,9.29,0.00,0.00,-0.00,0.00
2026-06-26 19:45:32.957,994.33,994.31,-1.63,-1.69,0.00,1.06,0.23,9.29,0.00,0.00,-0.00,0.00
2026-06-26 19:45:32.959,994.33,994.31,-1.63,-1.69,0.00,1.07,0.24,9.30,0.00,0.00,-0.00,0.00
2026-06-26 19:45:32.961,994.33,994.31,-1.63,-1.69,0.00,1.07,0.24,9.30,0.00,0.00,-0.00,0.00
2026-06-26 19:45:32.963,994.33,994.31,-1.63,-1.69,0.00,1.07,0.24,9.30,0.00,0.00,-0.00,0.00
2026-06-26 19:45:32.964,994.33,994.31,-1.63,-1.69,0.00,1.07,0.24,9.30,0.00,0.00,-0.00,0.00
2026-06-26 19:45:33.106,994.34,994.32,-2.12,-1.93,0.00,1.08,0.24,9.26,0.00,0.00,-0.00,0.00
2026-06-26 19:45:33.109,994.34,994.32,-2.12,-1.93,0.00,1.08,0.24,9.26,0.00,0.00,0.00,0.00
2026-06-26 19:45:33.111,994.34,994.32,-2.12,-1.93,0.00,1.06,0.23,9.25,0.00,0.00,0.00,0.00
2026-06-26 19:45:33.112,994.34,994.32,-2.12,-1.93,0.00,1.06,0.23,9.25,0.00,0.00,0.00,0.00
2026-06-26 19:45:33.114,994.34,994.32,-2.12,-1.93,0.00,1.06,0.23,9.25,0.00,0.00,0.00,0.00
2026-06-26 19:45:33.116,994.34,994.32,-2.12,-1.93,0.00,1.06,0.23,9.25,0.00,0.00,0.00,0.00
2026-06-26 19:45:33.121,994.34,994.32,-2.12,-1.93,0.00,1.07,0.23,9.29,0.00,0.00,-0.00,0.00
2026-06-26 19:45:33.128,994.34,994.32,-2.12,-1.93,0.00,1.07,0.23,9.29,0.00,0.00,-0.00,0.00
2026-06-26 19:45:33.132,994.34,994.32,-2.12,-1.93,0.00,1.04,0.24,9.29,0.00,0.00,-0.00,0.00
2026-06-26 19:45:33.138,994.34,994.32,-2.12,-1.93,0.00,1.04,0.24,9.29,0.00,0.00,-0.00,0.00
2026-06-26 19:45:33.279,994.35,994.32,-3.44,-2.46,0.00,1.06,0.24,9.28,0.00,-0.00,-0.00,0.00
2026-06-26 19:45:33.280,994.35,994.32,-3.44,-2.46,0.00,1.06,0.24,9.31,0.00,-0.01,0.00,0.00
2026-06-26 19:45:33.282,994.35,994.32,-3.44,-2.46,0.00,1.06,0.24,9.31,0.00,-0.01,0.00,0.00
2026-06-26 19:45:33.283,994.35,994.32,-3.44,-2.46,0.00,1.06,0.24,9.31,0.00,-0.01,0.00,0.00
2026-06-26 19:45:33.289,994.35,994.32,-3.44,-2.46,0.00,1.06,0.24,9.31,0.00,-0.01,0.00,0.00
2026-06-26 19:45:33.290,994.35,994.32,-3.44,-2.46,0.00,1.06,0.23,9.27,0.00,-0.01,-0.00,0.00
2026-06-26 19:45:33.291,994.35,994.32,-3.44,-2.46,0.00,1.06,0.23,9.27,0.00,-0.01,-0.00,0.00
2026-06-26 19:45:33.293,994.35,994.32,-3.44,-2.46,0.00,1.06,0.23,9.27,0.00,-0.01,-0.00,0.00
2026-06-26 19:45:33.299,994.35,994.32,-3.44,-2.46,0.00,1.06,0.23,9.27,0.00,-0.01,-0.00,0.00
2026-06-26 19:45:33.300,994.35,994.32,-3.44,-2.46,0.00,1.07,0.22,9.27,-0.00,0.00,-0.00,0.00
2026-06-26 19:45:33.302,994.35,994.32,-3.44,-2.46,0.00,1.07,0.22,9.27,-0.00,0.00,-0.00,0.00
2026-06-26 19:45:33.306,994.35,994.32,-3.44,-2.46,0.00,1.07,0.22,9.27,-0.00,0.00,-0.00,0.00
2026-06-26 19:45:33.309,994.35,994.32,-3.44,-2.46,0.00,1.07,0.22,9.27,0.00,-0.00,0.00,0.00
2026-06-26 19:45:33.311,994.35,994.32,-3.44,-2.46,0.00,1.08,0.24,9.28,0.00,-0.00,0.00,0.00
2026-06-26 19:45:33.450,994.33,994.31,-1.83,-1.79,0.00,1.06,0.24,9.26,-0.00,0.00,0.00,0.00
2026-06-26 19:45:33.452,994.33,994.31,-1.83,-1.79,0.00,1.06,0.24,9.26,-0.00,0.00,0.00,0.00
2026-06-26 19:45:33.454,994.33,994.31,-1.83,-1.79,0.00,1.06,0.24,9.26,-0.00,0.00,0.00,0.00
2026-06-26 19:45:33.459,994.33,994.31,-1.83,-1.79,0.00,1.06,0.24,9.26,-0.00,0.00,0.00,0.00
2026-06-26 19:45:33.461,994.33,994.31,-1.83,-1.79,0.00,1.07,0.26,9.29,0.00,0.00,0.00,0.00
2026-06-26 19:45:33.463,994.33,994.31,-1.83,-1.79,0.00,1.07,0.26,9.29,0.00,0.00,0.00,0.00
2026-06-26 19:45:33.466,994.33,994.31,-1.83,-1.79,0.00,1.07,0.26,9.29,0.00,0.00,0.00,0.00
2026-06-26 19:45:33.470,994.33,994.31,-1.83,-1.79,0.00,1.07,0.26,9.29,0.00,0.00,-0.00,0.00
2026-06-26 19:45:33.472,994.33,994.31,-1.83,-1.79,0.00,1.03,0.22,9.30,0.00,0.00,-0.00,0.00
2026-06-26 19:45:33.474,994.33,994.31,-1.83,-1.79,0.00,1.03,0.22,9.30,0.00,0.00,-0.00,0.00
2026-06-26 19:45:33.479,994.33,994.31,-1.83,-1.79,0.00,1.03,0.22,9.30,0.00,0.00,-0.00,0.00
2026-06-26 19:45:33.481,994.33,994.31,-1.83,-1.79,0.00,1.05,0.24,9.28,0.00,0.00,0.00,0.00
2026-06-26 19:45:33.488,994.33,994.31,-1.83,-1.79,0.00,1.05,0.24,9.28,0.00,0.00,0.00,0.00
2026-06-26 19:45:33.630,994.34,994.29,-4.70,-2.87,0.00,1.08,0.23,9.27,-0.00,-0.00,0.00,0.00
2026-06-26 19:45:33.635,994.34,994.29,-4.70,-2.87,0.00,1.06,0.23,9.30,-0.00,-0.00,0.00,0.00
2026-06-26 19:45:33.641,994.34,994.29,-4.70,-2.87,0.00,1.06,0.23,9.30,-0.00,-0.00,-0.00,0.00
2026-06-26 19:45:33.643,994.34,994.29,-4.70,-2.87,0.00,1.06,0.26,9.27,-0.00,-0.00,-0.00,0.00
2026-06-26 19:45:33.645,994.34,994.29,-4.70,-2.87,0.00,1.06,0.26,9.27,-0.00,-0.00,-0.00,0.00
2026-06-26 19:45:33.649,994.34,994.29,-4.70,-2.87,0.00,1.06,0.26,9.27,-0.00,-0.00,-0.00,0.00
2026-06-26 19:45:33.651,994.34,994.29,-4.70,-2.87,0.00,1.04,0.24,9.29,0.00,-0.00,-0.00,0.00
2026-06-26 19:45:33.653,994.34,994.29,-4.70,-2.87,0.00,1.04,0.24,9.29,0.00,-0.00,-0.00,0.00
2026-06-26 19:45:33.658,994.34,994.29,-4.70,-2.87,0.00,1.04,0.24,9.29,0.00,-0.00,-0.00,0.00
2026-06-26 19:45:33.661,994.34,994.29,-4.70,-2.87,0.00,1.07,0.24,9.28,0.00,0.00,0.00,0.00
2026-06-26 19:45:33.800,994.35,994.32,-3.51,-2.48,0.00,1.07,0.22,9.27,-0.00,-0.00,0.00,0.00
2026-06-26 19:45:33.802,994.35,994.32,-3.51,-2.48,0.00,1.06,0.26,9.27,0.00,0.00,-0.00,0.00
2026-06-26 19:45:33.807,994.35,994.32,-3.51,-2.48,0.00,1.06,0.26,9.27,0.00,0.00,-0.00,0.00
2026-06-26 19:45:33.811,994.35,994.32,-3.51,-2.48,0.00,1.06,0.26,9.27,0.00,0.00,0.00,0.00
2026-06-26 19:45:33.812,994.35,994.32,-3.51,-2.48,0.00,1.07,0.23,9.27,0.00,0.00,0.00,0.00
2026-06-26 19:45:33.815,994.35,994.32,-3.51,-2.48,0.00,1.07,0.23,9.27,0.00,0.00,0.00,0.00
2026-06-26 19:45:33.817,994.35,994.32,-3.51,-2.48,0.00,1.07,0.23,9.27,0.00,0.00,0.00,0.00
2026-06-26 19:45:33.821,994.35,994.32,-3.51,-2.48,0.00,1.07,0.23,9.27,0.00,0.00,0.00,0.00
2026-06-26 19:45:33.822,994.35,994.32,-3.51,-2.48,0.00,1.09,0.23,9.30,0.00,0.00,0.00,0.00
2026-06-26 19:45:33.824,994.35,994.32,-3.51,-2.48,0.00,1.09,0.23,9.30,0.00,0.00,0.00,0.00
2026-06-26 19:45:33.830,994.35,994.32,-3.51,-2.48,0.00,1.09,0.23,9.30,0.00,0.00,0.00,0.00
2026-06-26 19:45:33.834,994.35,994.32,-3.51,-2.48,0.00,1.06,0.22,9.27,0.00,0.00,0.00,0.00
2026-06-26 19:45:33.972,994.35,994.32,-2.60,-2.14,0.00,1.06,0.22,9.27,0.00,-0.00,0.00,0.00
2026-06-26 19:45:33.974,994.35,994.32,-2.60,-2.14,0.00,1.06,0.22,9.27,0.00,-0.00,0.00,0.00
2026-06-26 19:45:33.977,994.35,994.32,-2.60,-2.14,0.00,1.06,0.22,9.27,0.00,-0.00,0.00,0.00
2026-06-26 19:45:33.981,994.35,994.32,-2.60,-2.14,0.00,1.06,0.22,9.27,-0.00,0.00,-0.00,0.00
2026-06-26 19:45:33.983,994.35,994.32,-2.60,-2.14,0.00,1.06,0.23,9.29,-0.00,0.00,-0.00,0.00
2026-06-26 19:45:33.985,994.35,994.32,-2.60,-2.14,0.00,1.06,0.23,9.29,-0.00,0.00,-0.00,0.00
2026-06-26 19:45:33.990,994.35,994.32,-2.60,-2.14,0.00,1.06,0.23,9.29,-0.00,0.00,-0.00,0.00
2026-06-26 19:45:33.992,994.35,994.32,-2.60,-2.14,0.00,1.06,0.24,9.26,0.00,0.00,0.00,0.00
2026-06-26 19:45:33.993,994.35,994.32,-2.60,-2.14,0.00,1.06,0.24,9.26,0.00,0.00,0.00,0.00
2026-06-26 19:45:33.994,994.35,994.32,-2.60,-2.14,0.00,1.06,0.24,9.26,0.00,0.00,0.00,0.00
2026-06-26 19:45:33.000,994.35,994.32,-2.60,-2.14,0.00,1.06,0.24,9.26,0.00,0.00,0.00,0.00
2026-06-26 19:45:34.013,994.35,994.32,-2.60,-2.14,0.00,1.06,0.23,9.25,0.00,-0.00,-0.00,0.00
2026-06-26 19:45:34.158,994.36,994.31,-4.59,-2.84,0.00,1.07,0.24,9.30,-0.00,-0.00,0.00,0.00
2026-06-26 19:45:34.161,994.36,994.31,-4.59,-2.84,0.00,1.07,0.24,9.30,0.00,-0.00,0.00,0.00
2026-06-26 19:45:34.163,994.36,994.31,-4.59,-2.84,0.00,1.06,0.24,9.27,0.00,-0.00,0.00,0.00
2026-06-26 19:45:34.164,994.36,994.31,-4.59,-2.84,0.00,1.06,0.24,9.27,0.00,-0.00,0.00,0.00
2026-06-26 19:45:34.165,994.36,994.31,-4.59,-2.84,0.00,1.06,0.24,9.27,0.00,-0.00,0.00,0.00
2026-06-26 19:45:34.166,994.36,994.31,-4.59,-2.84,0.00,1.06,0.24,9.27,0.00,-0.00,0.00,0.00
2026-06-26 19:45:34.168,994.36,994.31,-4.59,-2.84,0.00,1.06,0.24,9.27,0.00,-0.00,0.00,0.00
2026-06-26 19:45:34.169,994.36,994.31,-4.59,-2.84,0.00,1.06,0.24,9.27,0.00,-0.00,0.00,0.00
2026-06-26 19:45:34.171,994.36,994.31,-4.59,-2.84,0.00,1.06,0.24,9.27,0.00,0.00,0.00,0.00
2026-06-26 19:45:34.172,994.36,994.31,-4.59,-2.84,0.00,1.05,0.22,9.27,0.00,0.00,0.00,0.00
2026-06-26 19:45:34.173,994.36,994.31,-4.59,-2.84,0.00,1.05,0.22,9.27,0.00,0.00,0.00,0.00
2026-06-26 19:45:34.175,994.36,994.31,-4.59,-2.84,0.00,1.05,0.22,9.27,0.00,0.00,0.00,0.00
2026-06-26 19:45:34.176,994.36,994.31,-4.59,-2.84,0.00,1.05,0.22,9.27,0.00,0.00,0.00,0.00
2026-06-26 19:45:34.181,994.36,994.31,-4.59,-2.84,0.00,1.05,0.22,9.27,-0.00,0.00,-0.00,0.00
2026-06-26 19:45:34.182,994.36,994.31,-4.59,-2.84,0.00,1.05,0.24,9.27,-0.00,0.00,-0.00,0.00
2026-06-26 19:45:34.183,994.36,994.31,-4.59,-2.84,0.00,1.05,0.24,9.27,-0.00,0.00,-0.00,0.00
2026-06-26 19:45:34.184,994.36,994.31,-4.59,-2.84,0.00,1.05,0.24,9.27,-0.00,0.00,-0.00,0.00
2026-06-26 19:45:34.189,994.36,994.31,-4.59,-2.84,0.00,1.05,0.24,9.27,-0.00,0.00,-0.00,0.00
2026-06-26 19:45:34.191,994.36,994.31,-4.59,-2.84,0.00,1.05,0.24,9.27,-0.00,0.00,-0.00,0.00
2026-06-26 19:45:34.332,994.35,994.31,-3.71,-2.55,0.00,1.06,0.24,9.29,-0.00,0.00,-0.00,0.00
2026-06-26 19:45:34.333,994.35,994.31,-3.71,-2.55,0.00,1.06,0.23,9.25,-0.00,0.00,-0.00,0.00
2026-06-26 19:45:34.334,994.35,994.31,-3.71,-2.55,0.00,1.06,0.23,9.25,-0.00,0.00,-0.00,0.00
2026-06-26 19:45:34.335,994.35,994.31,-3.71,-2.55,0.00,1.06,0.23,9.25,-0.00,0.00,-0.00,0.00
2026-06-26 19:45:34.339,994.35,994.31,-3.71,-2.55,0.00,1.06,0.23,9.25,-0.00,0.00,-0.00,0.00
2026-06-26 19:45:34.342,994.35,994.31,-3.71,-2.55,0.00,1.06,0.23,9.25,0.00,-0.00,-0.00,0.00
2026-06-26 19:45:34.343,994.35,994.31,-3.71,-2.55,0.00,1.07,0.23,9.27,0.00,-0.00,-0.00,0.00
2026-06-26 19:45:34.344,994.35,994.31,-3.71,-2.55,0.00,1.07,0.23,9.27,0.00,-0.00,-0.00,0.00
2026-06-26 19:45:34.345,994.35,994.31,-3.71,-2.55,0.00,1.07,0.23,9.27,0.00,-0.00,-0.00,0.00
2026-06-26 19:45:34.347,994.35,994.31,-3.71,-2.55,0.00,1.07,0.23,9.27,0.00,-0.00,-0.00,0.00
2026-06-26 19:45:34.351,994.35,994.31,-3.71,-2.55,0.00,1.07,0.23,9.27,0.00,-0.00,-0.00,0.00
2026-06-26 19:45:34.352,994.35,994.31,-3.71,-2.55,0.00,1.08,0.26,9.25,-0.00,-0.00,0.00,0.00
2026-06-26 19:45:34.353,994.35,994.31,-3.71,-2.55,0.00,1.08,0.26,9.25,-0.00,-0.00,0.00,0.00
2026-06-26 19:45:34.355,994.35,994.31,-3.71,-2.55,0.00,1.08,0.26,9.25,-0.00,-0.00,0.00,0.00
2026-06-26 19:45:34.356,994.35,994.31,-3.71,-2.55,0.00,1.08,0.26,9.25,-0.00,-0.00,0.00,0.00
2026-06-26 19:45:34.362,994.35,994.31,-3.71,-2.55,0.00,1.08,0.26,9.25,-0.00,-0.00,0.00,0.00
2026-06-26 19:45:34.364,994.35,994.31,-3.71,-2.55,0.00,1.07,0.24,9.25,0.00,-0.00,0.00,0.00
2026-06-26 19:45:34.365,994.35,994.31,-3.71,-2.55,0.00,1.07,0.24,9.25,0.00,-0.00,0.00,0.00
2026-06-26 19:45:34.366,994.35,994.31,-3.71,-2.55,0.00,1.07,0.24,9.25,0.00,-0.00,0.00,0.00
2026-06-26 19:45:34.369,994.35,994.31,-3.71,-2.55,0.00,1.07,0.24,9.25,0.00,-0.00,0.00,0.00
2026-06-26 19:45:34.512,994.35,994.34,-1.34,-1.53,0.00,1.08,0.22,9.26,0.00,-0.00,-0.00,0.00
2026-06-26 19:45:34.514,994.35,994.34,-1.34,-1.53,0.00,1.04,0.24,9.28,-0.00,-0.00,-0.00,0.00
2026-06-26 19:45:34.516,994.35,994.34,-1.34,-1.53,0.00,1.04,0.24,9.28,-0.00,-0.00,-0.00,0.00
2026-06-26 19:45:34.518,994.35,994.34,-1.34,-1.53,0.00,1.04,0.24,9.28,-0.00,-0.00,-0.00,0.00
2026-06-26 19:45:34.520,994.35,994.34,-1.34,-1.53,0.00,1.04,0.24,9.28,-0.00,-0.00,-0.00,0.00
2026-06-26 19:45:34.522,994.35,994.34,-1.34,-1.53,0.00,1.04,0.24,9.28,0.00,0.00,0.00,0.00
2026-06-26 19:45:34.523,994.35,994.34,-1.34,-1.53,0.00,1.08,0.24,9.28,0.00,0.00,0.00,0.00
2026-06-26 19:45:34.525,994.35,994.34,-1.34,-1.53,0.00,1.08,0.24,9.28,0.00,0.00,0.00,0.00
2026-06-26 19:45:34.526,994.35,994.34,-1.34,-1.53,0.00,1.08,0.24,9.28,0.00,0.00,0.00,0.00
2026-06-26 19:45:34.529,994.35,994.34,-1.34,-1.53,0.00,1.08,0.24,9.28,0.00,0.00,0.00,0.00
2026-06-26 19:45:34.532,994.35,994.34,-1.34,-1.53,0.00,1.08,0.24,9.28,-0.00,-0.00,0.00,0.00
2026-06-26 19:45:34.533,994.35,994.34,-1.34,-1.53,0.00,1.08,0.22,9.30,-0.00,-0.00,0.00,0.00
2026-06-26 19:45:34.535,994.35,994.34,-1.34,-1.53,0.00,1.08,0.22,9.30,-0.00,-0.00,0.00,0.00
2026-06-26 19:45:34.536,994.35,994.34,-1.34,-1.53,0.00,1.08,0.22,9.30,-0.00,-0.00,0.00,0.00
2026-06-26 19:45:34.539,994.35,994.34,-1.34,-1.53,0.00,1.08,0.22,9.30,-0.00,-0.00,0.00,0.00
2026-06-26 19:45:34.542,994.35,994.34,-1.34,-1.53,0.00,1.08,0.22,9.30,0.00,0.00,0.00,0.00
2026-06-26 19:45:34.544,994.35,994.34,-1.34,-1.53,0.00,1.07,0.23,9.27,0.00,0.00,0.00,0.00
2026-06-26 19:45:34.683,994.34,994.33,-0.99,-1.31,0.00,1.07,0.21,9.29,0.00,0.00,0.00,0.00
2026-06-26 19:45:34.684,994.34,994.33,-0.99,-1.31,0.00,1.07,0.21,9.29,0.00,0.00,0.00,0.00
2026-06-26 19:45:34.685,994.34,994.33,-0.99,-1.31,0.00,1.07,0.21,9.29,0.00,0.00,0.00,0.00
2026-06-26 19:45:34.687,994.34,994.33,-0.99,-1.31,0.00,1.07,0.21,9.29,0.00,0.00,0.00,0.00
2026-06-26 19:45:34.692,994.34,994.33,-0.99,-1.31,0.00,1.07,0.21,9.29,0.00,0.00,0.00,0.00
2026-06-26 19:45:34.693,994.34,994.33,-0.99,-1.31,0.00,1.06,0.24,9.25,-0.00,0.00,-0.00,0.00
2026-06-26 19:45:34.694,994.34,994.33,-0.99,-1.31,0.00,1.06,0.24,9.25,-0.00,0.00,-0.00,0.00
2026-06-26 19:45:34.695,994.34,994.33,-0.99,-1.31,0.00,1.06,0.24,9.25,-0.00,0.00,-0.00,0.00
2026-06-26 19:45:34.697,994.34,994.33,-0.99,-1.31,0.00,1.06,0.24,9.25,-0.00,0.00,-0.00,0.00
2026-06-26 19:45:34.702,994.34,994.33,-0.99,-1.31,0.00,1.06,0.24,9.25,-0.00,0.00,-0.00,0.00
2026-06-26 19:45:34.703,994.34,994.33,-0.99,-1.31,0.00,1.06,0.26,9.29,0.00,0.00,0.00,0.00
2026-06-26 19:45:34.704,994.34,994.33,-0.99,-1.31,0.00,1.06,0.26,9.29,0.00,0.00,0.00,0.00
2026-06-26 19:45:34.705,994.34,994.33,-0.99,-1.31,0.00,1.06,0.26,9.29,0.00,0.00,0.00,0.00
2026-06-26 19:45:34.707,994.34,994.33,-0.99,-1.31,0.00,1.06,0.26,9.29,0.00,0.00,0.00,0.00
2026-06-26 19:45:34.712,994.34,994.33,-0.99,-1.31,0.00,1.06,0.26,9.29,0.00,0.00,0.00,0.00
2026-06-26 19:45:34.714,994.34,994.33,-0.99,-1.31,0.00,1.07,0.23,9.30,0.00,-0.00,-0.00,0.00
2026-06-26 19:45:34.715,994.34,994.33,-0.99,-1.31,0.00,1.07,0.23,9.30,0.00,-0.00,-0.00,0.00
2026-06-26 19:45:34.717,994.34,994.33,-0.99,-1.31,0.00,1.07,0.23,9.30,0.00,-0.00,-0.00,0.00
2026-06-26 19:45:34.719,994.34,994.33,-0.99,-1.31,0.00,1.07,0.23,9.30,0.00,-0.00,-0.00,0.00
2026-06-26 19:45:34.863,994.35,994.32,-2.43,-2.06,0.00,1.05,0.22,9.28,0.00,0.00,0.00,0.00
2026-06-26 19:45:34.865,994.35,994.32,-2.43,-2.06,0.00,1.04,0.23,9.28,0.00,0.00,0.00,0.00
2026-06-26 19:45:34.867,994.35,994.32,-2.43,-2.06,0.00,1.04,0.23,9.28,0.00,0.00,0.00,0.00
2026-06-26 19:45:34.868,994.35,994.32,-2.43,-2.06,0.00,1.04,0.23,9.28,0.00,0.00,0.00,0.00
2026-06-26 19:45:34.869,994.35,994.32,-2.43,-2.06,0.00,1.04,0.23,9.28,0.00,0.00,0.00,0.00
2026-06-26 19:45:34.871,994.35,994.32,-2.43,-2.06,0.00,1.04,0.23,9.28,0.00,0.00,0.00,0.00
2026-06-26 19:45:34.873,994.35,994.32,-2.43,-2.06,0.00,1.07,0.24,9.27,0.00,0.00,-0.00,0.00
2026-06-26 19:45:34.875,994.35,994.32,-2.43,-2.06,0.00,1.07,0.24,9.27,0.00,0.00,-0.00,0.00
2026-06-26 19:45:34.876,994.35,994.32,-2.43,-2.06,0.00,1.07,0.24,9.27,0.00,0.00,-0.00,0.00
2026-06-26 19:45:34.877,994.35,994.32,-2.43,-2.06,0.00,1.07,0.24,9.27,0.00,0.00,-0.00,0.00
2026-06-26 19:45:34.882,994.35,994.32,-2.43,-2.06,0.00,1.07,0.24,9.27,0.00,0.00,-0.00,0.00
2026-06-26 19:45:34.884,994.35,994.32,-2.43,-2.06,0.00,1.06,0.23,9.29,0.00,0.00,0.00,0.00
2026-06-26 19:45:34.885,994.35,994.32,-2.43,-2.06,0.00,1.06,0.23,9.29,0.00,0.00,0.00,0.00
2026-06-26 19:45:34.886,994.35,994.32,-2.43,-2.06,0.00,1.06,0.23,9.29,0.00,0.00,0.00,0.00
2026-06-26 19:45:34.890,994.35,994.32,-2.43,-2.06,0.00,1.06,0.23,9.29,0.00,0.00,0.00,0.00
2026-06-26 19:45:34.893,994.35,994.32,-2.43,-2.06,0.00,1.06,0.23,9.29,0.00,0.00,-0.00,0.00
2026-06-26 19:45:34.894,994.35,994.32,-2.43,-2.06,0.00,1.06,0.24,9.24,0.00,0.00,-0.00,0.00
2026-06-26 19:45:34.896,994.35,994.32,-2.43,-2.06,0.00,1.06,0.24,9.24,0.00,0.00,-0.00,0.00
2026-06-26 19:45:35.036,994.33,994.31,-2.12,-1.93,0.00,1.06,0.23,9.27,0.00,0.00,-0.00,0.00
2026-06-26 19:45:35.039,994.33,994.31,-2.12,-1.93,0.00,1.06,0.23,9.27,0.00,0.00,-0.00,0.00
2026-06-26 19:45:35.043,994.33,994.31,-2.12,-1.93,0.00,1.06,0.23,9.27,0.00,-0.00,0.00,0.00
2026-06-26 19:45:35.044,994.33,994.31,-2.12,-1.93,0.00,1.06,0.25,9.25,0.00,-0.00,0.00,0.00
2026-06-26 19:45:35.045,994.33,994.31,-2.12,-1.93,0.00,1.06,0.25,9.25,0.00,-0.00,0.00,0.00
2026-06-26 19:45:35.047,994.33,994.31,-2.12,-1.93,0.00,1.06,0.25,9.25,0.00,-0.00,0.00,0.00
2026-06-26 19:45:35.048,994.33,994.31,-2.12,-1.93,0.00,1.06,0.25,9.25,0.00,-0.00,0.00,0.00
2026-06-26 19:45:35.051,994.33,994.31,-2.12,-1.93,0.00,1.06,0.25,9.25,0.00,-0.00,0.00,0.00
2026-06-26 19:45:35.053,994.33,994.31,-2.12,-1.93,0.00,1.06,0.23,9.27,-0.00,-0.00,0.00,0.00
2026-06-26 19:45:35.055,994.33,994.31,-2.12,-1.93,0.00,1.06,0.23,9.27,-0.00,-0.00,0.00,0.00
2026-06-26 19:45:35.056,994.33,994.31,-2.12,-1.93,0.00,1.06,0.23,9.27,-0.00,-0.00,0.00,0.00
2026-06-26 19:45:35.057,994.33,994.31,-2.12,-1.93,0.00,1.06,0.23,9.27,-0.00,-0.00,0.00,0.00
2026-06-26 19:45:35.060,994.33,994.31,-2.12,-1.93,0.00,1.06,0.23,9.27,-0.00,-0.00,0.00,0.00
2026-06-26 19:45:35.064,994.33,994.31,-2.12,-1.93,0.00,1.06,0.23,9.27,0.00,0.00,0.00,0.00
2026-06-26 19:45:35.065,994.33,994.31,-2.12,-1.93,0.00,1.08,0.23,9.29,0.00,0.00,0.00,0.00
2026-06-26 19:45:35.066,994.33,994.31,-2.12,-1.93,0.00,1.08,0.23,9.29,0.00,0.00,0.00,0.00
2026-06-26 19:45:35.067,994.33,994.31,-2.12,-1.93,0.00,1.08,0.23,9.29,0.00,0.00,0.00,0.00
2026-06-26 19:45:35.068,994.33,994.31,-2.12,-1.93,0.00,1.08,0.23,9.29,0.00,0.00,0.00,0.00
2026-06-26 19:45:35.070,994.33,994.31,-2.12,-1.93,0.00,1.08,0.23,9.29,0.00,0.00,0.00,0.00
2026-06-26 19:45:35.071,994.33,994.31,-2.12,-1.93,0.00,1.08,0.23,9.29,0.00,0.00,0.00,0.00
2026-06-26 19:45:35.075,994.33,994.31,-2.12,-1.93,0.00,1.08,0.23,9.29,-0.00,-0.00,0.00,0.00
2026-06-26 19:45:35.215,994.35,994.33,-1.47,-1.61,0.00,1.07,0.22,9.27,0.00,0.00,0.00,0.00
2026-06-26 19:45:35.217,994.35,994.33,-1.47,-1.61,0.00,1.07,0.22,9.27,0.00,0.00,0.00,0.00
2026-06-26 19:45:35.218,994.35,994.33,-1.47,-1.61,0.00,1.07,0.22,9.27,0.00,0.00,0.00,0.00
2026-06-26 19:45:35.221,994.35,994.33,-1.47,-1.61,0.00,1.07,0.22,9.27,0.00,0.00,0.00,0.00
2026-06-26 19:45:35.223,994.35,994.33,-1.47,-1.61,0.00,1.07,0.22,9.27,0.00,0.00,0.00,0.00
2026-06-26 19:45:35.224,994.35,994.33,-1.47,-1.61,0.00,1.04,0.23,9.28,-0.00,0.00,0.00,0.00
2026-06-26 19:45:35.226,994.35,994.33,-1.47,-1.61,0.00,1.04,0.23,9.28,-0.00,0.00,0.00,0.00
2026-06-26 19:45:35.227,994.35,994.33,-1.47,-1.61,0.00,1.04,0.23,9.28,-0.00,0.00,0.00,0.00
2026-06-26 19:45:35.228,994.35,994.33,-1.47,-1.61,0.00,1.04,0.23,9.28,-0.00,0.00,0.00,0.00
2026-06-26 19:45:35.233,994.35,994.33,-1.47,-1.61,0.00,1.04,0.23,9.28,-0.00,0.00,0.00,0.00
2026-06-26 19:45:35.235,994.35,994.33,-1.47,-1.61,0.00,1.08,0.25,9.27,0.00,0.00,0.00,0.00
2026-06-26 19:45:35.236,994.35,994.33,-1.47,-1.61,0.00,1.08,0.25,9.27,0.00,0.00,0.00,0.00
2026-06-26 19:45:35.237,994.35,994.33,-1.47,-1.61,0.00,1.08,0.25,9.27,0.00,0.00,0.00,0.00
2026-06-26 19:45:35.240,994.35,994.33,-1.47,-1.61,0.00,1.08,0.25,9.27,0.00,0.00,0.00,0.00
2026-06-26 19:45:35.244,994.35,994.33,-1.47,-1.61,0.00,1.08,0.25,9.27,-0.00,0.00,0.00,0.00
2026-06-26 19:45:35.245,994.35,994.33,-1.47,-1.61,0.00,1.07,0.24,9.27,-0.00,0.00,0.00,0.00
2026-06-26 19:45:35.246,994.35,994.33,-1.47,-1.61,0.00,1.07,0.24,9.27,-0.00,0.00,0.00,0.00
2026-06-26 19:45:35.248,994.35,994.33,-1.47,-1.61,0.00,1.07,0.24,9.27,-0.00,0.00,0.00,0.00
2026-06-26 19:45:35.249,994.35,994.33,-1.47,-1.61,0.00,1.07,0.24,9.27,-0.00,0.00,0.00,0.00
2026-06-26 19:45:35.254,994.35,994.33,-1.47,-1.61,0.00,1.07,0.24,9.27,0.00,0.00,-0.00,0.00
2026-06-26 19:45:35.394,994.35,994.33,-2.05,-1.89,0.00,1.08,0.25,9.32,0.00,0.00,0.00,0.00
2026-06-26 19:45:35.396,994.35,994.33,-2.05,-1.89,0.00,1.08,0.22,9.26,0.00,0.00,0.00,0.00
2026-06-26 19:45:35.397,994.35,994.33,-2.05,-1.89,0.00,1.08,0.22,9.26,0.00,0.00,0.00,0.00
2026-06-26 19:45:35.398,994.35,994.33,-2.05,-1.89,0.00,1.08,0.22,9.26,0.00,0.00,0.00,0.00
2026-06-26 19:45:35.403,994.35,994.33,-2.05,-1.89,0.00,1.08,0.22,9.26,0.00,0.00,0.00,0.00
2026-06-26 19:45:35.405,994.35,994.33,-2.05,-1.89,0.00,1.08,0.23,9.27,0.00,0.00,-0.00,0.00
2026-06-26 19:45:35.406,994.35,994.33,-2.05,-1.89,0.00,1.08,0.23,9.27,0.00,0.00,-0.00,0.00
2026-06-26 19:45:35.408,994.35,994.33,-2.05,-1.89,0.00,1.08,0.23,9.27,0.00,0.00,-0.00,0.00
2026-06-26 19:45:35.411,994.35,994.33,-2.05,-1.89,0.00,1.08,0.23,9.27,0.00,0.00,-0.00,0.00
2026-06-26 19:45:35.415,994.35,994.33,-2.05,-1.89,0.00,1.08,0.23,9.27,-0.00,0.00,0.00,0.00
2026-06-26 19:45:35.416,994.35,994.33,-2.05,-1.89,0.00,1.05,0.23,9.28,-0.00,0.00,0.00,0.00
2026-06-26 19:45:35.417,994.35,994.33,-2.05,-1.89,0.00,1.05,0.23,9.28,-0.00,0.00,0.00,0.00
2026-06-26 19:45:35.419,994.35,994.33,-2.05,-1.89,0.00,1.05,0.23,9.28,-0.00,0.00,0.00,0.00
2026-06-26 19:45:35.420,994.35,994.33,-2.05,-1.89,0.00,1.05,0.23,9.28,-0.00,0.00,0.00,0.00
2026-06-26 19:45:35.421,994.35,994.33,-2.05,-1.89,0.00,1.05,0.23,9.28,-0.00,0.00,0.00,0.00
2026-06-26 19:45:35.422,994.35,994.33,-2.05,-1.89,0.00,1.05,0.23,9.28,-0.00,0.00,0.00,0.00
2026-06-26 19:45:35.424,994.35,994.33,-2.05,-1.89,0.00,1.05,0.23,9.28,0.00,0.00,-0.00,0.00
2026-06-26 19:45:35.426,994.35,994.33,-2.05,-1.89,0.00,1.06,0.24,9.28,0.00,0.00,-0.00,0.00
2026-06-26 19:45:35.427,994.35,994.33,-2.05,-1.89,0.00,1.06,0.24,9.28,0.00,0.00,-0.00,0.00
2026-06-26 19:45:35.428,994.35,994.33,-2.05,-1.89,0.00,1.06,0.24,9.28,0.00,0.00,-0.00,0.00
2026-06-26 19:45:35.432,994.35,994.33,-2.05,-1.89,0.00,1.06,0.24,9.28,0.00,0.00,-0.00,0.00
2026-06-26 19:45:35.570,994.35,994.31,-3.21,-2.37,0.00,1.07,0.23,9.29,0.00,-0.00,0.00,0.00
2026-06-26 19:45:35.573,994.35,994.31,-3.21,-2.37,0.00,1.07,0.23,9.29,0.00,-0.00,0.00,0.00
2026-06-26 19:45:35.575,994.35,994.31,-3.21,-2.37,0.00,1.07,0.24,9.30,-0.00,0.00,0.00,0.00
2026-06-26 19:45:35.577,994.35,994.31,-3.21,-2.37,0.00,1.07,0.24,9.30,-0.00,0.00,0.00,0.00
2026-06-26 19:45:35.581,994.35,994.31,-3.21,-2.37,0.00,1.07,0.24,9.30,-0.00,0.00,0.00,0.00
2026-06-26 19:45:35.584,994.35,994.31,-3.21,-2.37,0.00,1.07,0.24,9.30,-0.00,0.00,0.00,0.00
2026-06-26 19:45:35.586,994.35,994.31,-3.21,-2.37,0.00,1.07,0.23,9.27,-0.00,0.00,0.00,0.00
2026-06-26 19:45:35.587,994.35,994.31,-3.21,-2.37,0.00,1.07,0.23,9.27,-0.00,0.00,0.00,0.00
2026-06-26 19:45:35.588,994.35,994.31,-3.21,-2.37,0.00,1.07,0.23,9.27,-0.00,0.00,0.00,0.00
2026-06-26 19:45:35.591,994.35,994.31,-3.21,-2.37,0.00,1.07,0.23,9.27,-0.00,0.00,0.00,0.00
2026-06-26 19:45:35.595,994.35,994.31,-3.21,-2.37,0.00,1.05,0.22,9.26,0.00,0.00,-0.00,0.00
2026-06-26 19:45:35.597,994.35,994.31,-3.21,-2.37,0.00,1.05,0.22,9.26,0.00,0.00,-0.00,0.00
2026-06-26 19:45:35.599,994.35,994.31,-3.21,-2.37,0.00,1.05,0.22,9.26,0.00,0.00,-0.00,0.00
2026-06-26 19:45:35.605,994.35,994.31,-3.21,-2.37,0.00,1.05,0.22,9.26,0.00,-0.00,0.00,0.00
2026-06-26 19:45:35.607,994.35,994.31,-3.21,-2.37,0.00,1.09,0.22,9.27,0.00,-0.00,0.00,0.00
2026-06-26 19:45:35.749,994.32,994.32,0.39,0.82,0.00,1.01,0.32,9.24,-0.01,-0.01,0.01,0.00
2026-06-26 19:45:35.754,994.32,994.32,0.39,0.82,0.00,1.01,0.32,9.24,-0.01,-0.01,0.01,0.00
2026-06-26 19:45:35.756,994.32,994.32,0.39,0.82,0.00,0.87,0.15,9.39,-0.00,-0.02,0.01,0.00
2026-06-26 19:45:35.757,994.32,994.32,0.39,0.82,0.00,0.87,0.15,9.39,-0.00,-0.02,0.01,0.00
2026-06-26 19:45:35.758,994.32,994.32,0.39,0.82,0.00,0.87,0.15,9.39,-0.00,-0.02,0.01,0.00
2026-06-26 19:45:35.759,994.32,994.32,0.39,0.82,0.00,0.87,0.15,9.39,-0.00,-0.02,0.01,0.00
2026-06-26 19:45:35.762,994.32,994.32,0.39,0.82,0.00,0.87,0.15,9.39,-0.00,-0.02,0.01,0.00
2026-06-26 19:45:35.765,994.32,994.32,0.39,0.82,0.00,0.87,0.15,9.39,-0.00,-0.03,0.02,0.00
2026-06-26 19:45:35.768,994.32,994.32,0.39,0.82,0.00,0.73,0.09,9.33,-0.00,-0.03,0.02,0.00
2026-06-26 19:45:35.769,994.32,994.32,0.39,0.82,0.00,0.73,0.09,9.33,-0.00,-0.03,0.02,0.00
2026-06-26 19:45:35.770,994.32,994.32,0.39,0.82,0.00,0.73,0.09,9.33,-0.00,-0.03,0.02,0.00
2026-06-26 19:45:35.772,994.32,994.32,0.39,0.82,0.00,0.73,0.09,9.33,-0.00,-0.03,0.02,0.00
2026-06-26 19:45:35.774,994.32,994.32,0.39,0.82,0.00,0.73,0.09,9.33,-0.00,-0.03,0.02,0.00
2026-06-26 19:45:35.777,994.32,994.32,0.39,0.82,0.00,0.88,0.37,8.96,-0.01,-0.03,0.02,0.00
2026-06-26 19:45:35.778,994.32,994.32,0.39,0.82,0.00,0.88,0.37,8.96,-0.01,-0.03,0.02,0.00
2026-06-26 19:45:35.780,994.32,994.32,0.39,0.82,0.00,0.88,0.37,8.96,-0.01,-0.03,0.02,0.00
2026-06-26 19:45:35.781,994.32,994.32,0.39,0.82,0.00,0.88,0.37,8.96,-0.01,-0.03,0.02,0.00
2026-06-26 19:45:35.782,994.32,994.32,0.39,0.82,0.00,0.88,0.37,8.96,-0.01,-0.03,0.02,0.00
2026-06-26 19:45:35.783,994.32,994.32,0.39,0.82,0.00,0.88,0.37,8.96,-0.01,-0.03,0.02,0.00
2026-06-26 19:45:35.925,994.35,994.30,-5.10,-2.99,0.00,0.93,-0.17,9.26,0.00,0.02,0.00,0.00
2026-06-26 19:45:35.927,994.35,994.30,-5.10,-2.99,0.00,0.81,-0.19,9.37,0.00,0.02,0.00,0.00
2026-06-26 19:45:35.929,994.35,994.30,-5.10,-2.99,0.00,0.81,-0.19,9.37,0.00,0.02,0.00,0.00
2026-06-26 19:45:35.935,994.35,994.30,-5.10,-2.99,0.00,0.81,-0.19,9.37,0.00,0.02,0.00,0.00
2026-06-26 19:45:35.936,994.35,994.30,-5.10,-2.99,0.00,0.69,-0.21,9.34,0.00,0.02,0.00,0.00
2026-06-26 19:45:35.938,994.35,994.30,-5.10,-2.99,0.00,0.69,-0.21,9.34,0.00,0.02,0.00,0.00
2026-06-26 19:45:35.944,994.35,994.30,-5.10,-2.99,0.00,0.69,-0.21,9.34,0.00,0.02,0.00,0.00
2026-06-26 19:45:35.947,994.35,994.30,-5.10,-2.99,0.00,0.70,-0.18,9.33,-0.00,-0.01,0.00,0.00
2026-06-26 19:45:35.948,994.35,994.30,-5.10,-2.99,0.00,0.70,-0.18,9.33,-0.00,-0.01,0.00,0.00
2026-06-26 19:45:35.951,994.35,994.30,-5.10,-2.99,0.00,0.70,-0.18,9.33,-0.00,-0.01,0.00,0.00
2026-06-26 19:45:35.955,994.35,994.30,-5.10,-2.99,0.00,0.70,-0.18,9.33,-0.00,-0.01,0.00,0.00
2026-06-26 19:45:35.956,994.35,994.30,-5.10,-2.99,0.00,0.72,-0.17,9.26,-0.00,-0.01,0.00,0.00
2026-06-26 19:45:35.957,994.35,994.30,-5.10,-2.99,0.00,0.72,-0.17,9.26,-0.00,-0.01,0.00,0.00
2026-06-26 19:45:35.959,994.35,994.30,-5.10,-2.99,0.00,0.72,-0.17,9.26,-0.00,-0.01,0.00,0.00
2026-06-26 19:45:35.964,994.35,994.30,-5.10,-2.99,0.00,0.72,-0.17,9.26,-0.00,-0.01,0.00,0.00
2026-06-26 19:45:36.106,994.34,994.32,-2.89,-2.25,0.00,1.37,0.24,9.19,0.00,0.00,-0.01,0.00
2026-06-26 19:45:36.108,994.34,994.32,-2.89,-2.25,0.00,1.22,0.16,9.30,0.00,0.01,-0.01,0.00
2026-06-26 19:45:36.109,994.34,994.32,-2.89,-2.25,0.00,1.22,0.16,9.30,0.00,0.01,-0.01,0.00
2026-06-26 19:45:36.111,994.34,994.32,-2.89,-2.25,0.00,1.22,0.16,9.30,0.00,0.01,-0.01,0.00
2026-06-26 19:45:36.116,994.34,994.32,-2.89,-2.25,0.00,1.22,0.16,9.30,0.00,0.01,-0.01,0.00
2026-06-26 19:45:36.117,994.34,994.32,-2.89,-2.25,0.00,1.16,0.19,9.30,0.00,0.01,-0.01,0.00
2026-06-26 19:45:36.118,994.34,994.32,-2.89,-2.25,0.00,1.16,0.19,9.30,0.00,0.01,-0.01,0.00
2026-06-26 19:45:36.119,994.34,994.32,-2.89,-2.25,0.00,1.16,0.19,9.30,0.00,0.01,-0.01,0.00
2026-06-26 19:45:36.120,994.34,994.32,-2.89,-2.25,0.00,1.16,0.19,9.30,0.00,0.01,-0.01,0.00
2026-06-26 19:45:36.122,994.34,994.32,-2.89,-2.25,0.00,1.16,0.19,9.30,0.00,0.01,-0.01,0.00
2026-06-26 19:45:36.123,994.34,994.32,-2.89,-2.25,0.00,1.16,0.19,9.30,0.00,0.01,-0.01,0.00
2026-06-26 19:45:36.124,994.34,994.32,-2.89,-2.25,0.00,1.16,0.19,9.30,0.00,0.01,-0.01,0.00
2026-06-26 19:45:36.126,994.34,994.32,-2.89,-2.25,0.00,1.16,0.19,9.30,0.00,0.01,-0.00,0.00
2026-06-26 19:45:36.127,994.34,994.32,-2.89,-2.25,0.00,1.15,0.23,9.27,0.00,0.01,-0.00,0.00
2026-06-26 19:45:36.129,994.34,994.32,-2.89,-2.25,0.00,1.15,0.23,9.27,0.00,0.01,-0.00,0.00
2026-06-26 19:45:36.135,994.34,994.32,-2.89,-2.25,0.00,1.15,0.23,9.27,0.00,0.01,-0.00,0.00
2026-06-26 19:45:36.137,994.34,994.32,-2.89,-2.25,0.00,1.11,0.22,9.26,0.00,0.01,-0.01,0.00
2026-06-26 19:45:36.138,994.34,994.32,-2.89,-2.25,0.00,1.11,0.22,9.26,0.00,0.01,-0.01,0.00
2026-06-26 19:45:36.140,994.34,994.32,-2.89,-2.25,0.00,1.11,0.22,9.26,0.00,0.01,-0.01,0.00
2026-06-26 19:45:36.280,994.34,994.32,-2.34,-2.02,0.00,1.12,0.24,9.30,0.00,0.00,-0.00,0.00
2026-06-26 19:45:36.284,994.34,994.32,-2.34,-2.02,0.00,1.12,0.24,9.30,0.00,0.00,-0.00,0.00
2026-06-26 19:45:36.286,994.34,994.32,-2.34,-2.02,0.00,1.12,0.24,9.30,0.00,0.00,0.00,0.00
2026-06-26 19:45:36.288,994.34,994.32,-2.34,-2.02,0.00,1.11,0.23,9.26,0.00,0.00,0.00,0.00
2026-06-26 19:45:36.289,994.34,994.32,-2.34,-2.02,0.00,1.11,0.23,9.26,0.00,0.00,0.00,0.00
2026-06-26 19:45:36.292,994.34,994.32,-2.34,-2.02,0.00,1.11,0.23,9.26,0.00,0.00,0.00,0.00
2026-06-26 19:45:36.296,994.34,994.32,-2.34,-2.02,0.00,1.11,0.23,9.26,-0.00,0.00,-0.00,0.00
2026-06-26 19:45:36.297,994.34,994.32,-2.34,-2.02,0.00,1.09,0.22,9.24,-0.00,0.00,-0.00,0.00
2026-06-26 19:45:36.298,994.34,994.32,-2.34,-2.02,0.00,1.09,0.22,9.24,-0.00,0.00,-0.00,0.00
2026-06-26 19:45:36.300,994.34,994.32,-2.34,-2.02,0.00,1.09,0.22,9.24,-0.00,0.00,-0.00,0.00
2026-06-26 19:45:36.301,994.34,994.32,-2.34,-2.02,0.00,1.09,0.22,9.24,-0.00,0.00,-0.00,0.00
2026-06-26 19:45:36.306,994.34,994.32,-2.34,-2.02,0.00,1.09,0.22,9.24,-0.00,0.00,-0.00,0.00
2026-06-26 19:45:36.308,994.34,994.32,-2.34,-2.02,0.00,1.06,0.21,9.26,0.00,0.00,0.00,0.00
2026-06-26 19:45:36.310,994.34,994.32,-2.34,-2.02,0.00,1.06,0.21,9.26,0.00,0.00,0.00,0.00
2026-06-26 19:45:36.312,994.34,994.32,-2.34,-2.02,0.00,1.06,0.21,9.26,0.00,0.00,0.00,0.00
2026-06-26 19:45:36.316,994.34,994.32,-2.34,-2.02,0.00,1.06,0.21,9.26,0.00,0.00,0.00,0.00
2026-06-26 19:45:36.457,994.34,994.32,-1.79,-1.77,0.00,1.08,0.21,9.27,0.00,0.01,-0.00,0.00
2026-06-26 19:45:36.458,994.34,994.32,-1.79,-1.77,0.00,1.08,0.21,9.27,0.00,0.01,-0.00,0.00
2026-06-26 19:45:36.460,994.34,994.32,-1.79,-1.77,0.00,1.08,0.21,9.27,0.00,0.01,-0.00,0.00
2026-06-26 19:45:36.461,994.34,994.32,-1.79,-1.77,0.00,1.08,0.21,9.27,0.00,0.01,-0.00,0.00
2026-06-26 19:45:36.464,994.34,994.32,-1.79,-1.77,0.00,1.08,0.21,9.27,0.00,0.01,-0.00,0.00
2026-06-26 19:45:36.467,994.34,994.32,-1.79,-1.77,0.00,1.08,0.21,9.27,0.00,0.00,0.00,0.00
2026-06-26 19:45:36.468,994.34,994.32,-1.79,-1.77,0.00,1.05,0.20,9.27,0.00,0.00,0.00,0.00
2026-06-26 19:45:36.469,994.34,994.32,-1.79,-1.77,0.00,1.05,0.20,9.27,0.00,0.00,0.00,0.00
2026-06-26 19:45:36.471,994.34,994.32,-1.79,-1.77,0.00,1.05,0.20,9.27,0.00,0.00,0.00,0.00
2026-06-26 19:45:36.472,994.34,994.32,-1.79,-1.77,0.00,1.05,0.20,9.27,0.00,0.00,0.00,0.00
2026-06-26 19:45:36.473,994.34,994.32,-1.79,-1.77,0.00,1.05,0.20,9.27,0.00,0.00,0.00,0.00
2026-06-26 19:45:36.474,994.34,994.32,-1.79,-1.77,0.00,1.05,0.20,9.27,0.00,0.00,0.00,0.00
2026-06-26 19:45:36.475,994.34,994.32,-1.79,-1.77,0.00,1.05,0.20,9.27,0.00,0.00,0.00,0.00
2026-06-26 19:45:36.477,994.34,994.32,-1.79,-1.77,0.00,1.08,0.17,9.27,0.00,-0.00,0.00,0.00
2026-06-26 19:45:36.478,994.34,994.32,-1.79,-1.77,0.00,1.08,0.17,9.27,0.00,-0.00,0.00,0.00
2026-06-26 19:45:36.479,994.34,994.32,-1.79,-1.77,0.00,1.08,0.17,9.27,0.00,-0.00,0.00,0.00
2026-06-26 19:45:36.481,994.34,994.32,-1.79,-1.77,0.00,1.08,0.17,9.27,0.00,-0.00,0.00,0.00
2026-06-26 19:45:36.483,994.34,994.32,-1.79,-1.77,0.00,1.08,0.17,9.27,0.00,-0.00,0.00,0.00
2026-06-26 19:45:36.488,994.34,994.32,-1.79,-1.77,0.00,1.08,0.17,9.27,-0.00,-0.00,-0.00,0.00
2026-06-26 19:45:36.490,994.34,994.32,-1.79,-1.77,0.00,1.11,0.15,9.29,-0.00,-0.00,-0.00,0.00
2026-06-26 19:45:36.494,994.34,994.32,-1.79,-1.77,0.00,1.11,0.15,9.29,-0.00,-0.00,-0.00,0.00
2026-06-26 19:45:36.637,994.33,994.32,-1.51,-1.63,0.00,1.12,0.25,9.27,0.00,0.00,0.00,0.00
2026-06-26 19:45:36.639,994.33,994.32,-1.51,-1.63,0.00,1.13,0.20,9.28,0.00,0.00,0.00,0.00
2026-06-26 19:45:36.640,994.33,994.32,-1.51,-1.63,0.00,1.13,0.20,9.28,0.00,0.00,0.00,0.00
2026-06-26 19:45:36.641,994.33,994.32,-1.51,-1.63,0.00,1.13,0.20,9.28,0.00,0.00,0.00,0.00
2026-06-26 19:45:36.644,994.33,994.32,-1.51,-1.63,0.00,1.13,0.20,9.28,0.00,0.00,0.00,0.00
2026-06-26 19:45:36.647,994.33,994.32,-1.51,-1.63,0.00,1.13,0.20,9.28,0.00,0.00,-0.00,0.00
2026-06-26 19:45:36.650,994.33,994.32,-1.51,-1.63,0.00,1.13,0.17,9.24,0.00,0.00,-0.00,0.00
2026-06-26 19:45:36.652,994.33,994.32,-1.51,-1.63,0.00,1.13,0.17,9.24,0.00,0.00,-0.00,0.00
2026-06-26 19:45:36.656,994.33,994.32,-1.51,-1.63,0.00,1.13,0.17,9.24,0.00,0.00,-0.00,0.00
2026-06-26 19:45:36.658,994.33,994.32,-1.51,-1.63,0.00,1.14,0.19,9.28,0.00,-0.00,0.00,0.00
2026-06-26 19:45:36.659,994.33,994.32,-1.51,-1.63,0.00,1.14,0.19,9.28,0.00,-0.00,0.00,0.00
2026-06-26 19:45:36.661,994.33,994.32,-1.51,-1.63,0.00,1.14,0.19,9.28,0.00,-0.00,0.00,0.00
2026-06-26 19:45:36.662,994.33,994.32,-1.51,-1.63,0.00,1.14,0.19,9.28,0.00,-0.00,0.00,0.00
2026-06-26 19:45:36.667,994.33,994.32,-1.51,-1.63,0.00,1.14,0.19,9.28,0.00,-0.00,0.00,0.00
2026-06-26 19:45:36.668,994.33,994.32,-1.51,-1.63,0.00,1.13,0.19,9.27,0.00,0.00,0.00,0.00
2026-06-26 19:45:36.669,994.33,994.32,-1.51,-1.63,0.00,1.13,0.19,9.27,0.00,0.00,0.00,0.00
2026-06-26 19:45:36.808,994.35,994.31,-3.88,-2.61,0.00,1.13,0.28,9.30,-0.00,0.00,0.00,0.00
2026-06-26 19:45:36.810,994.35,994.31,-3.88,-2.61,0.00,1.13,0.28,9.30,-0.00,0.00,0.00,0.00
2026-06-26 19:45:36.811,994.35,994.31,-3.88,-2.61,0.00,1.13,0.28,9.30,-0.00,0.00,0.00,0.00
2026-06-26 19:45:36.814,994.35,994.31,-3.88,-2.61,0.00,1.13,0.28,9.30,-0.00,0.00,0.00,0.00
2026-06-26 19:45:36.818,994.35,994.31,-3.88,-2.61,0.00,1.13,0.28,9.30,0.00,0.00,0.00,0.00
2026-06-26 19:45:36.819,994.35,994.31,-3.88,-2.61,0.00,1.14,0.25,9.29,0.00,0.00,0.00,0.00
2026-06-26 19:45:36.820,994.35,994.31,-3.88,-2.61,0.00,1.14,0.25,9.29,0.00,0.00,0.00,0.00
2026-06-26 19:45:36.822,994.35,994.31,-3.88,-2.61,0.00,1.14,0.25,9.29,0.00,0.00,0.00,0.00
2026-06-26 19:45:36.823,994.35,994.31,-3.88,-2.61,0.00,1.14,0.25,9.29,0.00,0.00,0.00,0.00
2026-06-26 19:45:36.824,994.35,994.31,-3.88,-2.61,0.00,1.14,0.25,9.29,0.00,0.00,0.00,0.00
2026-06-26 19:45:36.825,994.35,994.31,-3.88,-2.61,0.00,1.14,0.25,9.29,0.00,0.00,0.00,0.00
2026-06-26 19:45:36.828,994.35,994.31,-3.88,-2.61,0.00,1.14,0.25,9.29,0.00,0.00,0.00,0.00
2026-06-26 19:45:36.830,994.35,994.31,-3.88,-2.61,0.00,1.12,0.20,9.25,0.00,0.00,0.00,0.00
2026-06-26 19:45:36.831,994.35,994.31,-3.88,-2.61,0.00,1.12,0.20,9.25,0.00,0.00,0.00,0.00
2026-06-26 19:45:36.834,994.35,994.31,-3.88,-2.61,0.00,1.12,0.20,9.25,0.00,0.00,0.00,0.00
2026-06-26 19:45:36.838,994.35,994.31,-3.88,-2.61,0.00,1.12,0.20,9.25,0.00,0.00,0.00,0.00
2026-06-26 19:45:36.839,994.35,994.31,-3.88,-2.61,0.00,1.18,0.23,9.28,0.00,0.00,0.00,0.00
2026-06-26 19:45:36.840,994.35,994.31,-3.88,-2.61,0.00,1.18,0.23,9.28,0.00,0.00,0.00,0.00
2026-06-26 19:45:36.842,994.35,994.31,-3.88,-2.61,0.00,1.18,0.23,9.28,0.00,0.00,0.00,0.00
2026-06-26 19:45:36.847,994.35,994.31,-3.88,-2.61,0.00,1.18,0.23,9.28,0.00,0.00,0.00,0.00
2026-06-26 19:45:36.988,994.33,994.31,-2.21,-1.97,0.00,1.06,0.16,9.30,-0.00,-0.01,0.01,0.00
2026-06-26 19:45:36.989,994.33,994.31,-2.21,-1.97,0.00,1.11,0.14,9.27,-0.00,-0.01,0.01,0.00
2026-06-26 19:45:36.990,994.33,994.31,-2.21,-1.97,0.00,1.11,0.14,9.27,-0.00,-0.01,0.01,0.00
2026-06-26 19:45:36.992,994.33,994.31,-2.21,-1.97,0.00,1.11,0.14,9.27,-0.00,-0.01,0.01,0.00
2026-06-26 19:45:36.993,994.33,994.31,-2.21,-1.97,0.00,1.11,0.14,9.27,-0.00,-0.01,0.01,0.00
2026-06-26 19:45:36.998,994.33,994.31,-2.21,-1.97,0.00,1.11,0.14,9.27,0.00,-0.01,0.01,0.00
2026-06-26 19:45:36.999,994.33,994.31,-2.21,-1.97,0.00,1.13,0.15,9.23,0.00,-0.01,0.01,0.00
2026-06-26 19:45:36.000,994.33,994.31,-2.21,-1.97,0.00,1.13,0.15,9.23,0.00,-0.01,0.01,0.00
2026-06-26 19:45:36.001,994.33,994.31,-2.21,-1.97,0.00,1.13,0.15,9.23,0.00,-0.01,0.01,0.00
2026-06-26 19:45:36.002,994.33,994.31,-2.21,-1.97,0.00,1.13,0.15,9.23,0.00,-0.01,0.01,0.00
2026-06-26 19:45:37.007,994.33,994.31,-2.21,-1.97,0.00,1.13,0.15,9.23,0.00,-0.01,0.01,0.00
2026-06-26 19:45:37.008,994.33,994.31,-2.21,-1.97,0.00,1.16,0.14,9.28,-0.00,-0.01,0.00,0.00
2026-06-26 19:45:37.009,994.33,994.31,-2.21,-1.97,0.00,1.16,0.14,9.28,-0.00,-0.01,0.00,0.00
2026-06-26 19:45:37.011,994.33,994.31,-2.21,-1.97,0.00,1.16,0.14,9.28,-0.00,-0.01,0.00,0.00
2026-06-26 19:45:37.012,994.33,994.31,-2.21,-1.97,0.00,1.16,0.14,9.28,-0.00,-0.01,0.00,0.00
2026-06-26 19:45:37.015,994.33,994.31,-2.21,-1.97,0.00,1.16,0.14,9.28,-0.00,-0.01,0.00,0.00
2026-06-26 19:45:37.018,994.33,994.31,-2.21,-1.97,0.00,1.16,0.14,9.28,-0.00,-0.00,0.00,0.00
2026-06-26 19:45:37.019,994.33,994.31,-2.21,-1.97,0.00,1.16,0.20,9.27,-0.00,-0.00,0.00,0.00
2026-06-26 19:45:37.020,994.33,994.31,-2.21,-1.97,0.00,1.16,0.20,9.27,-0.00,-0.00,0.00,0.00
2026-06-26 19:45:37.022,994.33,994.31,-2.21,-1.97,0.00,1.16,0.20,9.27,-0.00,-0.00,0.00,0.00
2026-06-26 19:45:37.023,994.33,994.31,-2.21,-1.97,0.00,1.16,0.20,9.27,-0.00,-0.00,0.00,0.00
2026-06-26 19:45:37.167,994.34,994.34,-0.42,-0.86,0.00,1.15,0.21,9.30,-0.00,-0.00,0.00,0.00
2026-06-26 19:45:37.169,994.34,994.34,-0.42,-0.86,0.00,1.16,0.19,9.29,0.00,0.00,0.00,0.00
2026-06-26 19:45:37.170,994.34,994.34,-0.42,-0.86,0.00,1.16,0.19,9.29,0.00,0.00,0.00,0.00
2026-06-26 19:45:37.171,994.34,994.34,-0.42,-0.86,0.00,1.16,0.19,9.29,0.00,0.00,0.00,0.00
2026-06-26 19:45:37.172,994.34,994.34,-0.42,-0.86,0.00,1.16,0.19,9.29,0.00,0.00,0.00,0.00
2026-06-26 19:45:37.174,994.34,994.34,-0.42,-0.86,0.00,1.16,0.19,9.29,0.00,0.00,0.00,0.00
2026-06-26 19:45:37.176,994.34,994.34,-0.42,-0.86,0.00,1.16,0.19,9.29,0.00,0.00,0.00,0.00
2026-06-26 19:45:37.178,994.34,994.34,-0.42,-0.86,0.00,1.16,0.19,9.29,-0.00,0.00,0.00,0.00
2026-06-26 19:45:37.180,994.34,994.34,-0.42,-0.86,0.00,1.15,0.20,9.28,-0.00,0.00,0.00,0.00
2026-06-26 19:45:37.181,994.34,994.34,-0.42,-0.86,0.00,1.15,0.20,9.28,-0.00,0.00,0.00,0.00
2026-06-26 19:45:37.182,994.34,994.34,-0.42,-0.86,0.00,1.15,0.20,9.28,-0.00,0.00,0.00,0.00
2026-06-26 19:45:37.188,994.34,994.34,-0.42,-0.86,0.00,1.15,0.20,9.28,-0.00,0.00,0.00,0.00
2026-06-26 19:45:37.189,994.34,994.34,-0.42,-0.86,0.00,1.16,0.22,9.23,0.00,0.00,-0.00,0.00
2026-06-26 19:45:37.191,994.34,994.34,-0.42,-0.86,0.00,1.16,0.22,9.23,0.00,0.00,-0.00,0.00
2026-06-26 19:45:37.192,994.34,994.34,-0.42,-0.86,0.00,1.16,0.22,9.23,0.00,0.00,-0.00,0.00
2026-06-26 19:45:37.198,994.34,994.34,-0.42,-0.86,0.00,1.16,0.22,9.23,0.00,0.00,-0.00,0.00
2026-06-26 19:45:37.199,994.34,994.34,-0.42,-0.86,0.00,1.15,0.19,9.22,0.00,0.00,-0.00,0.00
2026-06-26 19:45:37.341,994.33,994.32,-1.06,-1.37,0.00,1.17,0.19,9.28,0.00,0.00,0.00,0.00
2026-06-26 19:45:37.343,994.33,994.32,-1.06,-1.37,0.00,1.17,0.19,9.28,0.00,0.00,0.00,0.00
2026-06-26 19:45:37.348,994.33,994.32,-1.06,-1.37,0.00,1.17,0.19,9.28,0.00,0.00,0.00,0.00
2026-06-26 19:45:37.349,994.33,994.32,-1.06,-1.37,0.00,1.15,0.18,9.29,0.00,-0.00,0.00,0.00
2026-06-26 19:45:37.351,994.33,994.32,-1.06,-1.37,0.00,1.15,0.18,9.29,0.00,-0.00,0.00,0.00
2026-06-26 19:45:37.352,994.33,994.32,-1.06,-1.37,0.00,1.15,0.18,9.29,0.00,-0.00,0.00,0.00
2026-06-26 19:45:37.353,994.33,994.32,-1.06,-1.37,0.00,1.15,0.18,9.29,0.00,-0.00,0.00,0.00
2026-06-26 19:45:37.356,994.33,994.32,-1.06,-1.37,0.00,1.15,0.18,9.29,0.00,-0.00,0.00,0.00
2026-06-26 19:45:37.359,994.33,994.32,-1.06,-1.37,0.00,1.15,0.18,9.29,-0.00,-0.00,0.00,0.00
2026-06-26 19:45:37.361,994.33,994.32,-1.06,-1.37,0.00,1.13,0.22,9.24,-0.00,-0.00,0.00,0.00
2026-06-26 19:45:37.363,994.33,994.32,-1.06,-1.37,0.00,1.13,0.22,9.24,-0.00,-0.00,0.00,0.00
2026-06-26 19:45:37.369,994.33,994.32,-1.06,-1.37,0.00,1.13,0.22,9.24,0.00,-0.00,0.00,0.00
2026-06-26 19:45:37.371,994.33,994.32,-1.06,-1.37,0.00,1.13,0.22,9.27,0.00,-0.00,0.00,0.00
2026-06-26 19:45:37.372,994.33,994.32,-1.06,-1.37,0.00,1.13,0.22,9.27,0.00,-0.00,0.00,0.00
2026-06-26 19:45:37.373,994.33,994.32,-1.06,-1.37,0.00,1.13,0.22,9.27,0.00,-0.00,0.00,0.00
2026-06-26 19:45:37.374,994.33,994.32,-1.06,-1.37,0.00,1.13,0.22,9.27,0.00,-0.00,0.00,0.00
2026-06-26 19:45:37.376,994.33,994.32,-1.06,-1.37,0.00,1.13,0.22,9.27,0.00,-0.00,0.00,0.00
2026-06-26 19:45:37.519,994.34,994.31,-2.53,-2.11,0.00,1.15,0.24,9.26,0.00,0.00,0.00,0.00
2026-06-26 19:45:37.521,994.34,994.31,-2.53,-2.11,0.00,1.15,0.22,9.27,0.00,0.00,0.00,0.00
2026-06-26 19:45:37.523,994.34,994.31,-2.53,-2.11,0.00,1.15,0.22,9.27,0.00,0.00,0.00,0.00
2026-06-26 19:45:37.524,994.34,994.31,-2.53,-2.11,0.00,1.15,0.22,9.27,0.00,0.00,0.00,0.00
2026-06-26 19:45:37.525,994.34,994.31,-2.53,-2.11,0.00,1.15,0.22,9.27,0.00,0.00,0.00,0.00
2026-06-26 19:45:37.527,994.34,994.31,-2.53,-2.11,0.00,1.15,0.22,9.27,0.00,0.00,0.00,0.00
2026-06-26 19:45:37.529,994.34,994.31,-2.53,-2.11,0.00,1.15,0.22,9.27,0.00,0.01,0.00,0.00
2026-06-26 19:45:37.530,994.34,994.31,-2.53,-2.11,0.00,1.13,0.22,9.27,0.00,0.01,0.00,0.00
2026-06-26 19:45:37.532,994.34,994.31,-2.53,-2.11,0.00,1.13,0.22,9.27,0.00,0.01,0.00,0.00
2026-06-26 19:45:37.533,994.34,994.31,-2.53,-2.11,0.00,1.13,0.22,9.27,0.00,0.01,0.00,0.00
2026-06-26 19:45:37.538,994.34,994.31,-2.53,-2.11,0.00,1.13,0.22,9.27,0.00,0.01,0.00,0.00
2026-06-26 19:45:37.539,994.34,994.31,-2.53,-2.11,0.00,1.14,0.22,9.22,0.00,0.00,0.00,0.00
2026-06-26 19:45:37.541,994.34,994.31,-2.53,-2.11,0.00,1.14,0.22,9.22,0.00,0.00,0.00,0.00
2026-06-26 19:45:37.542,994.34,994.31,-2.53,-2.11,0.00,1.14,0.22,9.22,0.00,0.00,0.00,0.00
2026-06-26 19:45:37.543,994.34,994.31,-2.53,-2.11,0.00,1.14,0.22,9.22,0.00,0.00,0.00,0.00
2026-06-26 19:45:37.550,994.34,994.31,-2.53,-2.11,0.00,1.14,0.22,9.22,0.00,0.00,0.00,0.00
2026-06-26 19:45:37.551,994.34,994.31,-2.53,-2.11,0.00,1.13,0.22,9.27,0.00,0.00,0.00,0.00
2026-06-26 19:45:37.691,994.34,994.32,-1.68,-1.72,0.00,1.11,0.22,9.22,-0.00,0.00,0.00,0.00
2026-06-26 19:45:37.692,994.34,994.32,-1.68,-1.72,0.00,1.11,0.22,9.22,-0.00,0.00,0.00,0.00
2026-06-26 19:45:37.693,994.34,994.32,-1.68,-1.72,0.00,1.11,0.22,9.22,-0.00,0.00,0.00,0.00
2026-06-26 19:45:37.699,994.34,994.32,-1.68,-1.72,0.00,1.11,0.22,9.22,-0.00,0.00,0.00,0.00
2026-06-26 19:45:37.700,994.34,994.32,-1.68,-1.72,0.00,1.10,0.22,9.19,0.00,-0.00,0.00,0.00
2026-06-26 19:45:37.702,994.34,994.32,-1.68,-1.72,0.00,1.10,0.22,9.19,0.00,-0.00,0.00,0.00
2026-06-26 19:45:37.706,994.34,994.32,-1.68,-1.72,0.00,1.10,0.22,9.19,0.00,-0.00,0.00,0.00
2026-06-26 19:45:37.710,994.34,994.32,-1.68,-1.72,0.00,1.10,0.22,9.19,0.00,-0.00,0.00,0.00
2026-06-26 19:45:37.711,994.34,994.32,-1.68,-1.72,0.00,1.13,0.24,9.25,0.00,-0.00,0.00,0.00
2026-06-26 19:45:37.712,994.34,994.32,-1.68,-1.72,0.00,1.13,0.24,9.25,0.00,-0.00,0.00,0.00
2026-06-26 19:45:37.713,994.34,994.32,-1.68,-1.72,0.00,1.13,0.24,9.25,0.00,-0.00,0.00,0.00
2026-06-26 19:45:37.717,994.34,994.32,-1.68,-1.72,0.00,1.13,0.24,9.25,0.00,-0.00,0.00,0.00
2026-06-26 19:45:37.720,994.34,994.32,-1.68,-1.72,0.00,1.13,0.24,9.25,0.00,-0.01,0.00,0.00
2026-06-26 19:45:37.721,994.34,994.32,-1.68,-1.72,0.00,1.13,0.24,9.29,0.00,-0.01,0.00,0.00
2026-06-26 19:45:37.722,994.34,994.32,-1.68,-1.72,0.00,1.13,0.24,9.29,0.00,-0.01,0.00,0.00
2026-06-26 19:45:37.723,994.34,994.32,-1.68,-1.72,0.00,1.13,0.24,9.29,0.00,-0.01,0.00,0.00
2026-06-26 19:45:37.725,994.34,994.32,-1.68,-1.72,0.00,1.13,0.24,9.29,0.00,-0.01,0.00,0.00
2026-06-26 19:45:37.726,994.34,994.32,-1.68,-1.72,0.00,1.13,0.24,9.29,0.00,-0.01,0.00,0.00
2026-06-26 19:45:37.868,994.34,994.31,-2.76,-2.20,0.00,1.10,0.16,9.26,0.00,0.00,-0.00,0.00
2026-06-26 19:45:37.870,994.34,994.31,-2.76,-2.20,0.00,1.10,0.16,9.26,0.00,0.00,-0.00,0.00
2026-06-26 19:45:37.872,994.34,994.31,-2.76,-2.20,0.00,1.14,0.20,9.25,0.00,0.00,-0.00,0.00
2026-06-26 19:45:37.873,994.34,994.31,-2.76,-2.20,0.00,1.14,0.20,9.25,0.00,0.00,-0.00,0.00
2026-06-26 19:45:37.874,994.34,994.31,-2.76,-2.20,0.00,1.14,0.20,9.25,0.00,0.00,-0.00,0.00
2026-06-26 19:45:37.875,994.34,994.31,-2.76,-2.20,0.00,1.14,0.20,9.25,0.00,0.00,-0.00,0.00
2026-06-26 19:45:37.877,994.34,994.31,-2.76,-2.20,0.00,1.14,0.20,9.25,0.00,0.00,-0.00,0.00
2026-06-26 19:45:37.878,994.34,994.31,-2.76,-2.20,0.00,1.14,0.20,9.25,0.00,0.00,-0.00,0.00
2026-06-26 19:45:37.880,994.34,994.31,-2.76,-2.20,0.00,1.14,0.20,9.25,-0.00,0.00,-0.00,0.00
2026-06-26 19:45:37.881,994.34,994.31,-2.76,-2.20,0.00,1.14,0.18,9.26,-0.00,0.00,-0.00,0.00
2026-06-26 19:45:37.883,994.34,994.31,-2.76,-2.20,0.00,1.14,0.18,9.26,-0.00,0.00,-0.00,0.00
2026-06-26 19:45:37.888,994.34,994.31,-2.76,-2.20,0.00,1.14,0.18,9.26,-0.00,0.00,-0.00,0.00
2026-06-26 19:45:37.890,994.34,994.31,-2.76,-2.20,0.00,1.15,0.20,9.28,0.00,0.00,-0.00,0.00
2026-06-26 19:45:37.892,994.34,994.31,-2.76,-2.20,0.00,1.15,0.20,9.28,0.00,0.00,-0.00,0.00
2026-06-26 19:45:37.893,994.34,994.31,-2.76,-2.20,0.00,1.15,0.20,9.28,0.00,0.00,-0.00,0.00
2026-06-26 19:45:37.894,994.34,994.31,-2.76,-2.20,0.00,1.15,0.20,9.28,0.00,0.00,-0.00,0.00
2026-06-26 19:45:37.899,994.34,994.31,-2.76,-2.20,0.00,1.15,0.20,9.28,0.00,0.00,-0.00,0.00
2026-06-26 19:45:37.901,994.34,994.31,-2.76,-2.20,0.00,1.14,0.22,9.25,0.00,0.00,-0.00,0.00
2026-06-26 19:45:38.041,994.34,994.33,-0.65,-1.06,0.00,1.19,0.23,9.27,0.00,0.00,0.00,0.00
2026-06-26 19:45:38.042,994.34,994.33,-0.65,-1.06,0.00,1.19,0.23,9.27,0.00,0.00,0.00,0.00
2026-06-26 19:45:38.043,994.34,994.33,-0.65,-1.06,0.00,1.19,0.23,9.27,0.00,0.00,0.00,0.00
2026-06-26 19:45:38.045,994.34,994.33,-0.65,-1.06,0.00,1.19,0.23,9.27,0.00,0.00,0.00,0.00
2026-06-26 19:45:38.050,994.34,994.33,-0.65,-1.06,0.00,1.19,0.23,9.27,0.00,0.00,0.00,0.00
2026-06-26 19:45:38.051,994.34,994.33,-0.65,-1.06,0.00,1.19,0.25,9.27,0.00,0.01,-0.00,0.00
2026-06-26 19:45:38.052,994.34,994.33,-0.65,-1.06,0.00,1.19,0.25,9.27,0.00,0.01,-0.00,0.00
2026-06-26 19:45:38.054,994.34,994.33,-0.65,-1.06,0.00,1.19,0.25,9.27,0.00,0.01,-0.00,0.00
2026-06-26 19:45:38.055,994.34,994.33,-0.65,-1.06,0.00,1.19,0.25,9.27,0.00,0.01,-0.00,0.00
2026-06-26 19:45:38.058,994.34,994.33,-0.65,-1.06,0.00,1.19,0.25,9.27,0.00,0.01,-0.00,0.00
2026-06-26 19:45:38.060,994.34,994.33,-0.65,-1.06,0.00,1.19,0.25,9.27,-0.00,0.01,-0.00,0.00
2026-06-26 19:45:38.062,994.34,994.33,-0.65,-1.06,0.00,1.16,0.26,9.24,-0.00,0.01,-0.00,0.00
2026-06-26 19:45:38.063,994.34,994.33,-0.65,-1.06,0.00,1.16,0.26,9.24,-0.00,0.01,-0.00,0.00
2026-06-26 19:45:38.064,994.34,994.33,-0.65,-1.06,0.00,1.16,0.26,9.24,-0.00,0.01,-0.00,0.00
2026-06-26 19:45:38.069,994.34,994.33,-0.65,-1.06,0.00,1.16,0.26,9.24,-0.00,0.01,-0.00,0.00
2026-06-26 19:45:38.071,994.34,994.33,-0.65,-1.06,0.00,1.13,0.24,9.22,0.00,0.01,-0.01,0.00
2026-06-26 19:45:38.072,994.34,994.33,-0.65,-1.06,0.00,1.13,0.24,9.22,0.00,0.01,-0.01,0.00
2026-06-26 19:45:38.073,994.34,994.33,-0.65,-1.06,0.00,1.13,0.24,9.22,0.00,0.01,-0.01,0.00
2026-06-26 19:45:38.074,994.34,994.33,-0.65,-1.06,0.00,1.13,0.24,9.22,0.00,0.01,-0.01,0.00
2026-06-26 19:45:38.076,994.34,994.33,-0.65,-1.06,0.00,1.13,0.24,9.22,0.00,0.01,-0.01,0.00
2026-06-26 19:45:38.080,994.34,994.33,-0.65,-1.06,0.00,1.13,0.24,9.22,0.00,0.01,-0.01,0.00
2026-06-26 19:45:38.221,994.33,994.33,0.10,0.43,0.00,1.14,0.21,9.28,0.00,0.00,-0.00,0.00
2026-06-26 19:45:38.223,994.33,994.33,0.10,0.43,0.00,1.14,0.21,9.28,0.00,0.00,-0.00,0.00
2026-06-26 19:45:38.224,994.33,994.33,0.10,0.43,0.00,1.14,0.21,9.28,0.00,0.00,-0.00,0.00
2026-06-26 19:45:38.225,994.33,994.33,0.10,0.43,0.00,1.14,0.21,9.28,0.00,0.00,-0.00,0.00
2026-06-26 19:45:38.226,994.33,994.33,0.10,0.43,0.00,1.14,0.21,9.28,0.00,0.00,-0.00,0.00
2026-06-26 19:45:38.228,994.33,994.33,0.10,0.43,0.00,1.14,0.21,9.28,0.00,0.00,-0.00,0.00
2026-06-26 19:45:38.229,994.33,994.33,0.10,0.43,0.00,1.14,0.21,9.28,0.00,0.00,-0.00,0.00
2026-06-26 19:45:38.231,994.33,994.33,0.10,0.43,0.00,1.16,0.24,9.27,0.00,-0.00,-0.00,0.00
2026-06-26 19:45:38.232,994.33,994.33,0.10,0.43,0.00,1.16,0.24,9.27,0.00,-0.00,-0.00,0.00
2026-06-26 19:45:38.234,994.33,994.33,0.10,0.43,0.00,1.16,0.24,9.27,0.00,-0.00,-0.00,0.00
2026-06-26 19:45:38.235,994.33,994.33,0.10,0.43,0.00,1.16,0.24,9.27,0.00,-0.00,-0.00,0.00
2026-06-26 19:45:38.240,994.33,994.33,0.10,0.43,0.00,1.16,0.24,9.27,0.00,-0.00,-0.00,0.00
2026-06-26 19:45:38.241,994.33,994.33,0.10,0.43,0.00,1.16,0.25,9.27,0.00,0.00,-0.00,0.00
2026-06-26 19:45:38.242,994.33,994.33,0.10,0.43,0.00,1.16,0.25,9.27,0.00,0.00,-0.00,0.00
2026-06-26 19:45:38.244,994.33,994.33,0.10,0.43,0.00,1.16,0.25,9.27,0.00,0.00,-0.00,0.00
2026-06-26 19:45:38.245,994.33,994.33,0.10,0.43,0.00,1.16,0.25,9.27,0.00,0.00,-0.00,0.00
2026-06-26 19:45:38.250,994.33,994.33,0.10,0.43,0.00,1.16,0.25,9.27,0.00,0.00,-0.00,0.00
2026-06-26 19:45:38.252,994.33,994.33,0.10,0.43,0.00,1.14,0.22,9.26,0.00,0.00,-0.00,0.00
2026-06-26 19:45:38.253,994.33,994.33,0.10,0.43,0.00,1.14,0.22,9.26,0.00,0.00,-0.00,0.00
2026-06-26 19:45:38.254,994.33,994.33,0.10,0.43,0.00,1.14,0.22,9.26,0.00,0.00,-0.00,0.00
2026-06-26 19:45:38.256,994.33,994.33,0.10,0.43,0.00,1.14,0.22,9.26,0.00,0.00,-0.00,0.00
2026-06-26 19:45:38.260,994.33,994.33,0.10,0.43,0.00,1.14,0.22,9.26,0.00,0.00,-0.00,0.00
2026-06-26 19:45:38.401,994.32,994.34,1.66,1.71,0.00,1.16,0.23,9.29,0.00,0.00,-0.00,0.00
2026-06-26 19:45:38.403,994.32,994.34,1.66,1.71,0.00,1.17,0.28,9.29,0.00,0.00,-0.00,0.00
2026-06-26 19:45:38.404,994.32,994.34,1.66,1.71,0.00,1.17,0.28,9.29,0.00,0.00,-0.00,0.00
2026-06-26 19:45:38.410,994.32,994.34,1.66,1.71,0.00,1.17,0.28,9.29,0.00,0.00,-0.00,0.00
2026-06-26 19:45:38.412,994.32,994.34,1.66,1.71,0.00,1.12,0.23,9.21,0.00,0.01,-0.00,0.00
2026-06-26 19:45:38.414,994.32,994.34,1.66,1.71,0.00,1.12,0.23,9.21,0.00,0.01,-0.00,0.00
2026-06-26 19:45:38.420,994.32,994.34,1.66,1.71,0.00,1.12,0.23,9.21,0.00,0.01,-0.00,0.00
2026-06-26 19:45:38.422,994.32,994.34,1.66,1.71,0.00,1.09,0.20,9.22,-0.00,0.00,-0.00,0.00
2026-06-26 19:45:38.424,994.32,994.34,1.66,1.71,0.00,1.09,0.20,9.22,-0.00,0.00,-0.00,0.00
2026-06-26 19:45:38.426,994.32,994.34,1.66,1.71,0.00,1.09,0.20,9.22,-0.00,0.00,-0.00,0.00
2026-06-26 19:45:38.427,994.32,994.34,1.66,1.71,0.00,1.09,0.20,9.22,-0.00,0.00,-0.00,0.00
2026-06-26 19:45:38.431,994.32,994.34,1.66,1.71,0.00,1.09,0.20,9.22,-0.00,0.00,-0.00,0.00
2026-06-26 19:45:38.432,994.32,994.34,1.66,1.71,0.00,1.04,0.18,9.35,0.00,0.00,-0.00,0.00
2026-06-26 19:45:38.433,994.32,994.34,1.66,1.71,0.00,1.04,0.18,9.35,0.00,0.00,-0.00,0.00
2026-06-26 19:45:38.435,994.32,994.34,1.66,1.71,0.00,1.04,0.18,9.35,0.00,0.00,-0.00,0.00
2026-06-26 19:45:38.572,994.35,994.32,-3.02,-2.30,0.00,1.11,0.22,9.27,-0.00,0.01,-0.00,0.00
2026-06-26 19:45:38.574,994.35,994.32,-3.02,-2.30,0.00,1.11,0.22,9.27,-0.00,0.01,-0.00,0.00
2026-06-26 19:45:38.575,994.35,994.32,-3.02,-2.30,0.00,1.11,0.22,9.27,-0.00,0.01,-0.00,0.00
2026-06-26 19:45:38.576,994.35,994.32,-3.02,-2.30,0.00,1.11,0.22,9.27,-0.00,0.01,-0.00,0.00
2026-06-26 19:45:38.577,994.35,994.32,-3.02,-2.30,0.00,1.11,0.22,9.27,-0.00,0.01,-0.00,0.00
2026-06-26 19:45:38.579,994.35,994.32,-3.02,-2.30,0.00,1.11,0.22,9.27,-0.00,0.01,-0.00,0.00
2026-06-26 19:45:38.582,994.35,994.32,-3.02,-2.30,0.00,1.11,0.22,9.27,0.00,0.00,-0.00,0.00
2026-06-26 19:45:38.584,994.35,994.32,-3.02,-2.30,0.00,1.13,0.20,9.29,0.00,0.00,-0.00,0.00
2026-06-26 19:45:38.586,994.35,994.32,-3.02,-2.30,0.00,1.13,0.20,9.29,0.00,0.00,-0.00,0.00
2026-06-26 19:45:38.591,994.35,994.32,-3.02,-2.30,0.00,1.13,0.20,9.29,0.00,0.00,-0.00,0.00
2026-06-26 19:45:38.592,994.35,994.32,-3.02,-2.30,0.00,1.08,0.16,9.28,0.00,0.00,-0.00,0.00
2026-06-26 19:45:38.594,994.35,994.32,-3.02,-2.30,0.00,1.08,0.16,9.28,0.00,0.00,-0.00,0.00
2026-06-26 19:45:38.595,994.35,994.32,-3.02,-2.30,0.00,1.08,0.16,9.28,0.00,0.00,-0.00,0.00
2026-06-26 19:45:38.597,994.35,994.32,-3.02,-2.30,0.00,1.08,0.16,9.28,0.00,0.00,-0.00,0.00
2026-06-26 19:45:38.602,994.35,994.32,-3.02,-2.30,0.00,1.08,0.16,9.28,0.00,0.00,-0.00,0.00
2026-06-26 19:45:38.603,994.35,994.32,-3.02,-2.30,0.00,1.07,0.18,9.25,0.00,0.00,-0.00,0.00
2026-06-26 19:45:38.604,994.35,994.32,-3.02,-2.30,0.00,1.07,0.18,9.25,0.00,0.00,-0.00,0.00
2026-06-26 19:45:38.605,994.35,994.32,-3.02,-2.30,0.00,1.07,0.18,9.25,0.00,0.00,-0.00,0.00
2026-06-26 19:45:38.607,994.35,994.32,-3.02,-2.30,0.00,1.07,0.18,9.25,0.00,0.00,-0.00,0.00
2026-06-26 19:45:38.613,994.35,994.32,-3.02,-2.30,0.00,1.07,0.18,9.25,0.00,-0.00,-0.00,0.00
2026-06-26 19:45:38.753,994.35,994.33,-1.87,-1.81,0.00,1.14,0.26,9.27,0.00,0.00,-0.00,0.00
2026-06-26 19:45:38.754,994.35,994.33,-1.87,-1.81,0.00,1.14,0.26,9.27,0.00,0.00,-0.00,0.00
2026-06-26 19:45:38.755,994.35,994.33,-1.87,-1.81,0.00,1.14,0.26,9.27,0.00,0.00,-0.00,0.00
2026-06-26 19:45:38.757,994.35,994.33,-1.87,-1.81,0.00,1.14,0.26,9.27,0.00,0.00,-0.00,0.00
2026-06-26 19:45:38.761,994.35,994.33,-1.87,-1.81,0.00,1.14,0.26,9.27,0.00,0.00,-0.00,0.00
2026-06-26 19:45:38.762,994.35,994.33,-1.87,-1.81,0.00,1.13,0.21,9.26,0.00,0.00,-0.00,0.00
2026-06-26 19:45:38.764,994.35,994.33,-1.87,-1.81,0.00,1.13,0.21,9.26,0.00,0.00,-0.00,0.00
2026-06-26 19:45:38.765,994.35,994.33,-1.87,-1.81,0.00,1.13,0.21,9.26,0.00,0.00,-0.00,0.00
2026-06-26 19:45:38.766,994.35,994.33,-1.87,-1.81,0.00,1.13,0.21,9.26,0.00,0.00,-0.00,0.00
2026-06-26 19:45:38.771,994.35,994.33,-1.87,-1.81,0.00,1.13,0.21,9.26,0.00,0.00,-0.00,0.00
2026-06-26 19:45:38.773,994.35,994.33,-1.87,-1.81,0.00,1.13,0.22,9.28,0.00,0.00,-0.00,0.00
2026-06-26 19:45:38.774,994.35,994.33,-1.87,-1.81,0.00,1.13,0.22,9.28,0.00,0.00,-0.00,0.00
2026-06-26 19:45:38.775,994.35,994.33,-1.87,-1.81,0.00,1.13,0.22,9.28,0.00,0.00,-0.00,0.00
2026-06-26 19:45:38.776,994.35,994.33,-1.87,-1.81,0.00,1.13,0.22,9.28,0.00,0.00,-0.00,0.00
2026-06-26 19:45:38.778,994.35,994.33,-1.87,-1.81,0.00,1.13,0.22,9.28,0.00,0.00,-0.00,0.00
2026-06-26 19:45:38.779,994.35,994.33,-1.87,-1.81,0.00,1.13,0.22,9.28,0.00,0.00,-0.00,0.00
2026-06-26 19:45:38.780,994.35,994.33,-1.87,-1.81,0.00,1.13,0.22,9.28,0.00,0.00,-0.00,0.00
2026-06-26 19:45:38.782,994.35,994.33,-1.87,-1.81,0.00,1.13,0.22,9.28,0.00,0.00,-0.00,0.00
2026-06-26 19:45:38.783,994.35,994.33,-1.87,-1.81,0.00,1.12,0.22,9.26,0.00,0.00,-0.00,0.00
2026-06-26 19:45:38.785,994.35,994.33,-1.87,-1.81,0.00,1.12,0.22,9.26,0.00,0.00,-0.00,0.00
2026-06-26 19:45:38.786,994.35,994.33,-1.87,-1.81,0.00,1.12,0.22,9.26,0.00,0.00,-0.00,0.00
2026-06-26 19:45:38.790,994.35,994.33,-1.87,-1.81,0.00,1.12,0.22,9.26,0.00,0.00,-0.00,0.00
2026-06-26 19:45:38.927,994.34,994.31,-2.86,-2.24,0.00,1.11,0.31,9.27,0.00,0.00,0.00,0.00
2026-06-26 19:45:38.929,994.34,994.31,-2.86,-2.24,0.00,1.11,0.31,9.27,0.00,0.00,0.00,0.00
2026-06-26 19:45:38.933,994.34,994.31,-2.86,-2.24,0.00,1.11,0.31,9.27,0.00,0.00,-0.00,0.00
2026-06-26 19:45:38.935,994.34,994.31,-2.86,-2.24,0.00,1.16,0.31,9.28,0.00,0.00,-0.00,0.00
2026-06-26 19:45:38.939,994.34,994.31,-2.86,-2.24,0.00,1.16,0.31,9.28,0.00,0.00,-0.00,0.00
2026-06-26 19:45:38.943,994.34,994.31,-2.86,-2.24,0.00,1.16,0.31,9.28,0.00,0.00,0.00,0.00
2026-06-26 19:45:38.944,994.34,994.31,-2.86,-2.24,0.00,1.18,0.29,9.27,0.00,0.00,0.00,0.00
2026-06-26 19:45:38.946,994.34,994.31,-2.86,-2.24,0.00,1.18,0.29,9.27,0.00,0.00,0.00,0.00
2026-06-26 19:45:38.952,994.34,994.31,-2.86,-2.24,0.00,1.18,0.29,9.27,0.00,0.00,0.00,0.00
2026-06-26 19:45:38.954,994.34,994.31,-2.86,-2.24,0.00,1.14,0.25,9.23,0.00,0.00,-0.00,0.00
2026-06-26 19:45:38.956,994.34,994.31,-2.86,-2.24,0.00,1.14,0.25,9.23,0.00,0.00,-0.00,0.00
2026-06-26 19:45:38.958,994.34,994.31,-2.86,-2.24,0.00,1.14,0.25,9.23,0.00,0.00,-0.00,0.00
2026-06-26 19:45:38.962,994.34,994.31,-2.86,-2.24,0.00,1.14,0.25,9.23,0.00,0.01,-0.00,0.00
2026-06-26 19:45:38.964,994.34,994.31,-2.86,-2.24,0.00,1.16,0.25,9.23,0.00,0.01,-0.00,0.00
2026-06-26 19:45:38.966,994.34,994.31,-2.86,-2.24,0.00,1.16,0.25,9.23,0.00,0.01,-0.00,0.00
2026-06-26 19:45:39.104,994.35,994.33,-2.55,-2.11,0.00,1.15,0.16,9.23,0.00,0.00,0.00,0.00
2026-06-26 19:45:39.106,994.35,994.33,-2.55,-2.11,0.00,1.15,0.16,9.23,0.00,0.00,0.00,0.00
2026-06-26 19:45:39.112,994.35,994.33,-2.55,-2.11,0.00,1.15,0.16,9.23,0.00,0.00,0.00,0.00
2026-06-26 19:45:39.114,994.35,994.33,-2.55,-2.11,0.00,1.10,0.23,9.27,0.00,0.00,0.00,0.00
2026-06-26 19:45:39.116,994.35,994.33,-2.55,-2.11,0.00,1.10,0.23,9.27,0.00,0.00,0.00,0.00
2026-06-26 19:45:39.120,994.35,994.33,-2.55,-2.11,0.00,1.10,0.23,9.27,0.00,0.00,0.00,0.00
2026-06-26 19:45:39.123,994.35,994.33,-2.55,-2.11,0.00,1.10,0.23,9.27,0.00,0.01,-0.00,0.00
2026-06-26 19:45:39.125,994.35,994.33,-2.55,-2.11,0.00,1.09,0.22,9.25,0.00,0.01,-0.00,0.00
2026-06-26 19:45:39.126,994.35,994.33,-2.55,-2.11,0.00,1.09,0.22,9.25,0.00,0.01,-0.00,0.00
2026-06-26 19:45:39.128,994.35,994.33,-2.55,-2.11,0.00,1.09,0.22,9.25,0.00,0.01,-0.00,0.00
2026-06-26 19:45:39.130,994.35,994.33,-2.55,-2.11,0.00,1.09,0.22,9.25,0.00,0.01,-0.00,0.00
2026-06-26 19:45:39.134,994.35,994.33,-2.55,-2.11,0.00,1.09,0.22,9.25,0.00,0.00,0.00,0.00
2026-06-26 19:45:39.136,994.35,994.33,-2.55,-2.11,0.00,1.06,0.22,9.27,0.00,0.00,0.00,0.00
2026-06-26 19:45:39.142,994.35,994.33,-2.55,-2.11,0.00,1.06,0.22,9.27,0.00,0.00,0.00,0.00
2026-06-26 19:45:39.284,994.35,994.31,-3.51,-2.48,0.00,1.13,0.33,9.27,-0.00,0.00,-0.00,0.00
2026-06-26 19:45:39.286,994.35,994.31,-3.51,-2.48,0.00,1.13,0.33,9.27,-0.00,0.00,-0.00,0.00
2026-06-26 19:45:39.290,994.35,994.31,-3.51,-2.48,0.00,1.13,0.33,9.27,-0.00,0.00,-0.00,0.00
2026-06-26 19:45:39.294,994.35,994.31,-3.51,-2.48,0.00,1.13,0.33,9.27,0.00,0.00,-0.00,0.00
2026-06-26 19:45:39.295,994.35,994.31,-3.51,-2.48,0.00,1.10,0.34,9.31,0.00,0.00,-0.00,0.00
2026-06-26 19:45:39.297,994.35,994.31,-3.51,-2.48,0.00,1.10,0.34,9.31,0.00,0.00,-0.00,0.00
2026-06-26 19:45:39.303,994.35,994.31,-3.51,-2.48,0.00,1.10,0.34,9.31,0.00,0.00,-0.00,0.00
2026-06-26 19:45:39.305,994.35,994.31,-3.51,-2.48,0.00,1.10,0.38,9.28,-0.00,-0.00,0.00,0.00
2026-06-26 19:45:39.306,994.35,994.31,-3.51,-2.48,0.00,1.10,0.38,9.28,-0.00,-0.00,0.00,0.00
2026-06-26 19:45:39.313,994.35,994.31,-3.51,-2.48,0.00,1.10,0.38,9.28,-0.00,-0.00,0.00,0.00
2026-06-26 19:45:39.315,994.35,994.31,-3.51,-2.48,0.00,1.10,0.42,9.27,-0.00,-0.00,0.00,0.00
2026-06-26 19:45:39.317,994.35,994.31,-3.51,-2.48,0.00,1.10,0.42,9.27,-0.00,-0.00,0.00,0.00
2026-06-26 19:45:39.323,994.35,994.31,-3.51,-2.48,0.00,1.10,0.42,9.27,-0.00,-0.00,0.00,0.00
2026-06-26 19:45:39.464,994.34,994.33,-0.85,-1.22,0.00,1.18,0.05,9.21,0.00,-0.01,0.00,0.00
2026-06-26 19:45:39.466,994.34,994.33,-0.85,-1.22,0.00,1.18,0.05,9.21,0.00,-0.01,0.00,0.00
2026-06-26 19:45:39.468,994.34,994.33,-0.85,-1.22,0.00,1.18,0.05,9.21,0.00,-0.01,0.00,0.00
2026-06-26 19:45:39.474,994.34,994.33,-0.85,-1.22,0.00,1.18,0.05,9.21,0.00,-0.01,0.00,0.00
2026-06-26 19:45:39.475,994.34,994.33,-0.85,-1.22,0.00,1.22,0.21,9.22,-0.00,-0.00,0.00,0.00
2026-06-26 19:45:39.477,994.34,994.33,-0.85,-1.22,0.00,1.22,0.21,9.22,-0.00,-0.00,0.00,0.00
2026-06-26 19:45:39.479,994.34,994.33,-0.85,-1.22,0.00,1.22,0.21,9.22,-0.00,-0.00,0.00,0.00
2026-06-26 19:45:39.481,994.34,994.33,-0.85,-1.22,0.00,1.22,0.21,9.22,-0.00,-0.00,0.00,0.00
2026-06-26 19:45:39.484,994.34,994.33,-0.85,-1.22,0.00,1.22,0.21,9.22,-0.00,-0.01,0.00,0.00
2026-06-26 19:45:39.485,994.34,994.33,-0.85,-1.22,0.00,1.21,0.22,9.27,-0.00,-0.01,0.00,0.00
2026-06-26 19:45:39.487,994.34,994.33,-0.85,-1.22,0.00,1.21,0.22,9.27,-0.00,-0.01,0.00,0.00
2026-06-26 19:45:39.491,994.34,994.33,-0.85,-1.22,0.00,1.21,0.22,9.27,-0.00,-0.01,0.00,0.00
2026-06-26 19:45:39.494,994.34,994.33,-0.85,-1.22,0.00,1.21,0.22,9.27,-0.00,0.00,0.00,0.00
2026-06-26 19:45:39.496,994.34,994.33,-0.85,-1.22,0.00,1.21,0.25,9.30,-0.00,0.00,0.00,0.00
2026-06-26 19:45:39.498,994.34,994.33,-0.85,-1.22,0.00,1.21,0.25,9.30,-0.00,0.00,0.00,0.00
2026-06-26 19:45:39.504,994.34,994.33,-0.85,-1.22,0.00,1.21,0.25,9.30,-0.00,0.00,0.00,0.00
2026-06-26 19:45:39.648,994.34,994.33,-1.37,-1.55,0.00,1.28,0.21,9.30,0.00,-0.00,0.00,0.00
2026-06-26 19:45:39.654,994.34,994.33,-1.37,-1.55,0.00,1.28,0.21,9.30,0.00,-0.00,0.00,0.00
2026-06-26 19:45:39.655,994.34,994.33,-1.37,-1.55,0.00,1.29,0.21,9.21,0.00,-0.00,-0.00,0.00
2026-06-26 19:45:39.657,994.34,994.33,-1.37,-1.55,0.00,1.29,0.21,9.21,0.00,-0.00,-0.00,0.00
2026-06-26 19:45:39.659,994.34,994.33,-1.37,-1.55,0.00,1.29,0.21,9.21,0.00,-0.00,-0.00,0.00
2026-06-26 19:45:39.666,994.34,994.33,-1.37,-1.55,0.00,1.29,0.21,9.21,0.00,0.00,-0.00,0.00
2026-06-26 19:45:39.675,994.34,994.33,-1.37,-1.55,0.00,1.27,0.26,9.24,0.00,0.00,-0.00,0.00
2026-06-26 19:45:39.685,994.34,994.33,-1.37,-1.55,0.00,1.24,0.28,9.26,0.00,0.01,-0.01,0.00
2026-06-26 19:45:39.826,994.33,994.33,0.47,0.91,0.00,1.19,0.27,9.28,-0.00,-0.00,0.00,0.00
2026-06-26 19:45:39.827,994.33,994.33,0.47,0.91,0.00,1.19,0.27,9.28,-0.00,-0.00,0.00,0.00
2026-06-26 19:45:39.830,994.33,994.33,0.47,0.91,0.00,1.19,0.27,9.28,-0.00,-0.00,0.00,0.00
2026-06-26 19:45:39.834,994.33,994.33,0.47,0.91,0.00,1.19,0.27,9.28,-0.00,-0.00,0.00,0.00
2026-06-26 19:45:39.836,994.33,994.33,0.47,0.91,0.00,1.17,0.29,9.28,-0.00,-0.00,0.00,0.00
2026-06-26 19:45:39.838,994.33,994.33,0.47,0.91,0.00,1.17,0.29,9.28,-0.00,-0.00,0.00,0.00
2026-06-26 19:45:39.841,994.33,994.33,0.47,0.91,0.00,1.17,0.29,9.28,-0.00,-0.00,0.00,0.00
2026-06-26 19:45:39.845,994.33,994.33,0.47,0.91,0.00,1.17,0.29,9.28,0.00,0.00,0.00,0.00
2026-06-26 19:45:39.847,994.33,994.33,0.47,0.91,0.00,1.17,0.27,9.29,0.00,0.00,0.00,0.00
2026-06-26 19:45:39.850,994.33,994.33,0.47,0.91,0.00,1.17,0.27,9.29,0.00,0.00,0.00,0.00
2026-06-26 19:45:39.855,994.33,994.33,0.47,0.91,0.00,1.17,0.27,9.29,-0.00,0.00,-0.00,0.00
2026-06-26 19:45:39.856,994.33,994.33,0.47,0.91,0.00,1.16,0.29,9.26,-0.00,0.00,-0.00,0.00
2026-06-26 19:45:39.858,994.33,994.33,0.47,0.91,0.00,1.16,0.29,9.26,-0.00,0.00,-0.00,0.00
2026-06-26 19:45:39.860,994.33,994.33,0.47,0.91,0.00,1.16,0.29,9.26,-0.00,0.00,-0.00,0.00
2026-06-26 19:45:39.999,994.35,994.32,-2.78,-2.21,0.00,1.17,0.30,9.28,-0.00,-0.00,0.00,0.00
2026-06-26 19:45:40.005,994.35,994.32,-2.78,-2.21,0.00,1.17,0.30,9.28,-0.00,-0.00,0.00,0.00
2026-06-26 19:45:40.007,994.35,994.32,-2.78,-2.21,0.00,1.17,0.15,9.26,-0.00,-0.00,0.00,0.00
2026-06-26 19:45:40.009,994.35,994.32,-2.78,-2.21,0.00,1.17,0.15,9.26,-0.00,-0.00,0.00,0.00
2026-06-26 19:45:40.015,994.35,994.32,-2.78,-2.21,0.00,1.17,0.15,9.26,-0.00,-0.00,0.00,0.00
2026-06-26 19:45:40.016,994.35,994.32,-2.78,-2.21,0.00,1.16,0.06,9.18,0.00,-0.00,0.00,0.00
2026-06-26 19:45:40.018,994.35,994.32,-2.78,-2.21,0.00,1.16,0.06,9.18,0.00,-0.00,0.00,0.00
2026-06-26 19:45:40.019,994.35,994.32,-2.78,-2.21,0.00,1.16,0.06,9.18,0.00,-0.00,0.00,0.00
2026-06-26 19:45:40.025,994.35,994.32,-2.78,-2.21,0.00,1.16,0.06,9.18,0.00,-0.00,0.00,0.00
2026-06-26 19:45:40.026,994.35,994.32,-2.78,-2.21,0.00,1.13,0.04,9.21,0.00,-0.00,0.00,0.00
2026-06-26 19:45:40.028,994.35,994.32,-2.78,-2.21,0.00,1.13,0.04,9.21,0.00,-0.00,0.00,0.00
2026-06-26 19:45:40.029,994.35,994.32,-2.78,-2.21,0.00,1.13,0.04,9.21,0.00,-0.00,0.00,0.00
2026-06-26 19:45:40.031,994.35,994.32,-2.78,-2.21,0.00,1.13,0.04,9.21,0.00,-0.00,0.00,0.00
2026-06-26 19:45:40.032,994.35,994.32,-2.78,-2.21,0.00,1.13,0.04,9.21,0.00,-0.00,0.00,0.00
2026-06-26 19:45:40.176,994.34,994.32,-2.77,-2.20,0.00,1.16,0.22,9.29,0.00,0.00,-0.00,0.00
2026-06-26 19:45:40.177,994.34,994.32,-2.77,-2.20,0.00,1.12,0.24,9.29,0.00,0.00,-0.00,0.00
2026-06-26 19:45:40.179,994.34,994.32,-2.77,-2.20,0.00,1.12,0.24,9.29,0.00,0.00,-0.00,0.00
2026-06-26 19:45:40.181,994.34,994.32,-2.77,-2.20,0.00,1.12,0.24,9.29,0.00,0.00,-0.00,0.00
2026-06-26 19:45:40.182,994.34,994.32,-2.77,-2.20,0.00,1.12,0.24,9.29,0.00,0.00,-0.00,0.00
2026-06-26 19:45:40.185,994.34,994.32,-2.77,-2.20,0.00,1.12,0.24,9.29,0.00,0.00,-0.00,0.00
2026-06-26 19:45:40.187,994.34,994.32,-2.77,-2.20,0.00,1.09,0.22,9.29,-0.00,0.00,-0.00,0.00
2026-06-26 19:45:40.188,994.34,994.32,-2.77,-2.20,0.00,1.09,0.22,9.29,-0.00,0.00,-0.00,0.00
2026-06-26 19:45:40.190,994.34,994.32,-2.77,-2.20,0.00,1.09,0.22,9.29,-0.00,0.00,-0.00,0.00
2026-06-26 19:45:40.195,994.34,994.32,-2.77,-2.20,0.00,1.09,0.22,9.29,-0.00,0.00,-0.00,0.00
2026-06-26 19:45:40.197,994.34,994.32,-2.77,-2.20,0.00,1.10,0.25,9.26,0.00,0.00,-0.00,0.00
2026-06-26 19:45:40.198,994.34,994.32,-2.77,-2.20,0.00,1.10,0.25,9.26,0.00,0.00,-0.00,0.00
2026-06-26 19:45:40.200,994.34,994.32,-2.77,-2.20,0.00,1.10,0.25,9.26,0.00,0.00,-0.00,0.00
2026-06-26 19:45:40.205,994.34,994.32,-2.77,-2.20,0.00,1.10,0.25,9.26,0.00,0.00,-0.00,0.00
2026-06-26 19:45:40.207,994.34,994.32,-2.77,-2.20,0.00,1.09,0.23,9.27,-0.00,0.00,0.00,0.00
2026-06-26 19:45:40.208,994.34,994.32,-2.77,-2.20,0.00,1.09,0.23,9.27,-0.00,0.00,0.00,0.00
2026-06-26 19:45:40.353,994.34,994.32,-1.74,-1.75,0.00,1.14,0.21,9.27,0.00,0.00,-0.00,0.00
2026-06-26 19:45:40.356,994.34,994.32,-1.74,-1.75,0.00,1.14,0.21,9.27,0.00,0.01,-0.00,0.00
2026-06-26 19:45:40.358,994.34,994.32,-1.74,-1.75,0.00,1.14,0.19,9.26,0.00,0.01,-0.00,0.00
2026-06-26 19:45:40.360,994.34,994.32,-1.74,-1.75,0.00,1.14,0.19,9.26,0.00,0.01,-0.00,0.00
2026-06-26 19:45:40.363,994.34,994.32,-1.74,-1.75,0.00,1.14,0.19,9.26,0.00,0.01,-0.00,0.00
2026-06-26 19:45:40.366,994.34,994.32,-1.74,-1.75,0.00,1.14,0.19,9.26,0.00,0.01,-0.00,0.00
2026-06-26 19:45:40.368,994.34,994.32,-1.74,-1.75,0.00,1.19,0.21,9.25,0.00,0.01,-0.00,0.00
2026-06-26 19:45:40.370,994.34,994.32,-1.74,-1.75,0.00,1.19,0.21,9.25,0.00,0.01,-0.00,0.00
2026-06-26 19:45:40.375,994.34,994.32,-1.74,-1.75,0.00,1.19,0.21,9.25,0.00,0.01,-0.00,0.00
2026-06-26 19:45:40.378,994.34,994.32,-1.74,-1.75,0.00,1.21,0.19,9.24,0.00,0.01,-0.01,0.00
2026-06-26 19:45:40.380,994.34,994.32,-1.74,-1.75,0.00,1.21,0.19,9.24,0.00,0.01,-0.01,0.00
2026-06-26 19:45:40.381,994.34,994.32,-1.74,-1.75,0.00,1.21,0.19,9.24,0.00,0.01,-0.01,0.00
2026-06-26 19:45:40.383,994.34,994.32,-1.74,-1.75,0.00,1.21,0.19,9.24,0.00,0.01,-0.01,0.00
2026-06-26 19:45:40.386,994.34,994.32,-1.74,-1.75,0.00,1.21,0.19,9.24,0.00,0.01,-0.01,0.00
2026-06-26 19:45:40.527,994.34,994.33,-1.56,-1.65,0.00,1.00,0.12,9.44,0.00,0.02,0.00,0.00
2026-06-26 19:45:40.529,994.34,994.33,-1.56,-1.65,0.00,0.93,0.14,9.54,0.00,0.02,0.00,0.00
2026-06-26 19:45:40.530,994.34,994.33,-1.56,-1.65,0.00,0.93,0.14,9.54,0.00,0.02,0.00,0.00
2026-06-26 19:45:40.532,994.34,994.33,-1.56,-1.65,0.00,0.93,0.14,9.54,0.00,0.02,0.00,0.00
2026-06-26 19:45:40.534,994.34,994.33,-1.56,-1.65,0.00,0.93,0.14,9.54,0.00,0.02,0.00,0.00
2026-06-26 19:45:40.536,994.34,994.33,-1.56,-1.65,0.00,0.93,0.14,9.54,-0.00,0.02,0.00,0.00
2026-06-26 19:45:40.538,994.34,994.33,-1.56,-1.65,0.00,1.12,0.31,9.26,-0.00,0.02,0.00,0.00
2026-06-26 19:45:40.540,994.34,994.33,-1.56,-1.65,0.00,1.12,0.31,9.26,-0.00,0.02,0.00,0.00
2026-06-26 19:45:40.546,994.34,994.33,-1.56,-1.65,0.00,1.12,0.31,9.26,-0.00,0.02,0.00,0.00
2026-06-26 19:45:40.548,994.34,994.33,-1.56,-1.65,0.00,1.03,0.30,9.05,0.00,0.01,-0.00,0.00
2026-06-26 19:45:40.549,994.34,994.33,-1.56,-1.65,0.00,1.03,0.30,9.05,0.00,0.01,-0.00,0.00
2026-06-26 19:45:40.553,994.34,994.33,-1.56,-1.65,0.00,1.03,0.30,9.05,0.00,0.01,-0.00,0.00
2026-06-26 19:45:40.557,994.34,994.33,-1.56,-1.65,0.00,1.03,0.30,9.05,0.00,0.00,0.00,0.00
2026-06-26 19:45:40.560,994.34,994.33,-1.56,-1.65,0.00,0.96,0.12,9.28,0.00,0.00,0.00,0.00
2026-06-26 19:45:40.703,994.32,994.32,-0.25,-0.67,0.00,1.27,0.37,9.23,-0.00,0.01,-0.01,0.00
2026-06-26 19:45:40.707,994.32,994.32,-0.25,-0.67,0.00,1.27,0.37,9.23,0.00,0.01,-0.01,0.00
2026-06-26 19:45:40.708,994.32,994.32,-0.25,-0.67,0.00,1.20,0.36,9.27,0.00,0.01,-0.01,0.00
2026-06-26 19:45:40.710,994.32,994.32,-0.25,-0.67,0.00,1.20,0.36,9.27,0.00,0.01,-0.01,0.00
2026-06-26 19:45:40.715,994.32,994.32,-0.25,-0.67,0.00,1.20,0.36,9.27,0.00,0.01,-0.01,0.00
2026-06-26 19:45:40.717,994.32,994.32,-0.25,-0.67,0.00,1.20,0.36,9.27,0.00,0.01,-0.01,0.00
2026-06-26 19:45:40.719,994.32,994.32,-0.25,-0.67,0.00,1.18,0.40,9.32,0.00,0.01,-0.01,0.00
2026-06-26 19:45:40.720,994.32,994.32,-0.25,-0.67,0.00,1.18,0.40,9.32,0.00,0.01,-0.01,0.00
2026-06-26 19:45:40.726,994.32,994.32,-0.25,-0.67,0.00,1.18,0.40,9.32,0.00,0.01,-0.01,0.00
2026-06-26 19:45:40.729,994.32,994.32,-0.25,-0.67,0.00,0.96,0.28,9.20,0.00,0.01,-0.00,0.00
2026-06-26 19:45:40.733,994.32,994.32,-0.25,-0.67,0.00,0.96,0.28,9.20,0.00,0.01,-0.00,0.00
2026-06-26 19:45:40.737,994.32,994.32,-0.25,-0.67,0.00,0.96,0.28,9.20,0.00,0.01,0.00,0.00
2026-06-26 19:45:40.878,994.33,994.33,-0.30,-0.73,0.00,1.25,0.01,9.30,-0.00,-0.00,-0.00,0.00
2026-06-26 19:45:40.880,994.33,994.33,-0.30,-0.73,0.00,1.25,0.01,9.30,-0.00,-0.00,-0.00,0.00
2026-06-26 19:45:40.881,994.33,994.33,-0.30,-0.73,0.00,1.25,0.01,9.30,-0.00,-0.00,-0.00,0.00
2026-06-26 19:45:40.883,994.33,994.33,-0.30,-0.73,0.00,1.25,0.01,9.30,-0.00,-0.00,-0.00,0.00
2026-06-26 19:45:40.886,994.33,994.33,-0.30,-0.73,0.00,1.25,0.01,9.30,-0.00,-0.00,-0.00,0.00
2026-06-26 19:45:40.889,994.33,994.33,-0.30,-0.73,0.00,1.25,0.00,9.26,-0.00,0.00,-0.01,0.00
2026-06-26 19:45:40.897,994.33,994.33,-0.30,-0.73,0.00,1.25,0.00,9.26,-0.00,0.00,-0.01,0.00
2026-06-26 19:45:40.899,994.33,994.33,-0.30,-0.73,0.00,1.22,0.00,9.22,-0.00,0.01,-0.01,0.00
2026-06-26 19:45:40.900,994.33,994.33,-0.30,-0.73,0.00,1.22,0.00,9.22,-0.00,0.01,-0.01,0.00
2026-06-26 19:45:40.904,994.33,994.33,-0.30,-0.73,0.00,1.22,0.00,9.22,-0.00,0.01,-0.01,0.00
2026-06-26 19:45:40.907,994.33,994.33,-0.30,-0.73,0.00,1.22,0.00,9.22,0.00,0.01,-0.01,0.00
2026-06-26 19:45:40.910,994.33,994.33,-0.30,-0.73,0.00,1.26,0.09,9.37,0.00,0.01,-0.01,0.00
2026-06-26 19:45:40.917,994.33,994.33,-0.30,-0.73,0.00,1.26,0.09,9.37,0.00,0.01,-0.01,0.00
2026-06-26 19:45:41.058,994.34,994.33,-1.10,-1.39,0.00,0.94,0.52,9.25,0.00,-0.01,0.01,0.00
2026-06-26 19:45:41.060,994.34,994.33,-1.10,-1.39,0.00,0.94,0.52,9.25,0.00,-0.01,0.01,0.00
2026-06-26 19:45:41.064,994.34,994.33,-1.10,-1.39,0.00,0.94,0.52,9.25,0.00,-0.01,0.01,0.00
2026-06-26 19:45:41.068,994.34,994.33,-1.10,-1.39,0.00,0.94,0.52,9.25,0.00,-0.01,0.01,0.00
2026-06-26 19:45:41.069,994.34,994.33,-1.10,-1.39,0.00,1.18,0.47,9.06,0.00,-0.01,0.01,0.00
2026-06-26 19:45:41.072,994.34,994.33,-1.10,-1.39,0.00,1.18,0.47,9.06,0.00,-0.01,0.01,0.00
2026-06-26 19:45:41.077,994.34,994.33,-1.10,-1.39,0.00,1.18,0.47,9.06,0.00,-0.01,0.01,0.00
2026-06-26 19:45:41.079,994.34,994.33,-1.10,-1.39,0.00,1.10,0.50,9.10,-0.00,-0.01,0.02,0.00
2026-06-26 19:45:41.081,994.34,994.33,-1.10,-1.39,0.00,1.10,0.50,9.10,-0.00,-0.01,0.02,0.00
2026-06-26 19:45:41.082,994.34,994.33,-1.10,-1.39,0.00,1.10,0.50,9.10,-0.00,-0.01,0.02,0.00
2026-06-26 19:45:41.084,994.34,994.33,-1.10,-1.39,0.00,1.10,0.50,9.10,-0.00,-0.01,0.02,0.00
2026-06-26 19:45:41.087,994.34,994.33,-1.10,-1.39,0.00,1.10,0.50,9.10,-0.00,-0.01,0.02,0.00
2026-06-26 19:45:41.089,994.34,994.33,-1.10,-1.39,0.00,1.08,0.49,9.50,-0.00,-0.01,0.02,0.00
2026-06-26 19:45:41.092,994.34,994.33,-1.10,-1.39,0.00,1.08,0.49,9.50,-0.00,-0.01,0.02,0.00
2026-06-26 19:45:41.238,994.35,994.32,-2.82,-2.22,0.00,1.08,0.23,9.36,-0.00,-0.01,0.00,0.00
2026-06-26 19:45:41.240,994.35,994.32,-2.82,-2.22,0.00,1.08,0.23,9.36,-0.00,-0.01,0.00,0.00
2026-06-26 19:45:41.242,994.35,994.32,-2.82,-2.22,0.00,1.08,0.23,9.36,-0.00,-0.01,0.00,0.00
2026-06-26 19:45:41.247,994.35,994.32,-2.82,-2.22,0.00,1.08,0.23,9.36,-0.00,-0.01,0.00,0.00
2026-06-26 19:45:41.249,994.35,994.32,-2.82,-2.22,0.00,1.39,0.37,9.16,-0.00,-0.00,0.00,0.00
2026-06-26 19:45:41.251,994.35,994.32,-2.82,-2.22,0.00,1.39,0.37,9.16,-0.00,-0.00,0.00,0.00
2026-06-26 19:45:41.253,994.35,994.32,-2.82,-2.22,0.00,1.39,0.37,9.16,-0.00,-0.00,0.00,0.00
2026-06-26 19:45:41.257,994.35,994.32,-2.82,-2.22,0.00,1.39,0.37,9.16,0.00,0.00,0.00,0.00
2026-06-26 19:45:41.259,994.35,994.32,-2.82,-2.22,0.00,1.11,0.32,9.17,0.00,0.00,0.00,0.00
2026-06-26 19:45:41.261,994.35,994.32,-2.82,-2.22,0.00,1.11,0.32,9.17,0.00,0.00,0.00,0.00
2026-06-26 19:45:41.262,994.35,994.32,-2.82,-2.22,0.00,1.11,0.32,9.17,0.00,0.00,0.00,0.00
2026-06-26 19:45:41.267,994.35,994.32,-2.82,-2.22,0.00,1.11,0.32,9.17,0.00,0.00,0.00,0.00
2026-06-26 19:45:41.271,994.35,994.32,-2.82,-2.22,0.00,1.41,0.25,9.29,0.00,0.00,-0.00,0.00
2026-06-26 19:45:41.418,994.36,994.32,-4.03,-2.66,0.00,0.85,0.12,9.18,0.00,-0.01,-0.00,0.00
2026-06-26 19:45:41.420,994.36,994.32,-4.03,-2.66,0.00,1.02,-0.08,9.27,-0.00,-0.02,0.00,0.00
2026-06-26 19:45:41.421,994.36,994.32,-4.03,-2.66,0.00,1.02,-0.08,9.27,-0.00,-0.02,0.00,0.00
2026-06-26 19:45:41.427,994.36,994.32,-4.03,-2.66,0.00,1.02,-0.08,9.27,-0.00,-0.02,0.00,0.00
2026-06-26 19:45:41.429,994.36,994.32,-4.03,-2.66,0.00,0.96,-0.03,9.34,-0.00,-0.03,0.01,0.00
2026-06-26 19:45:41.431,994.36,994.32,-4.03,-2.66,0.00,0.96,-0.03,9.34,-0.00,-0.03,0.01,0.00
2026-06-26 19:45:41.433,994.36,994.32,-4.03,-2.66,0.00,0.96,-0.03,9.34,-0.00,-0.03,0.01,0.00
2026-06-26 19:45:41.435,994.36,994.32,-4.03,-2.66,0.00,0.96,-0.03,9.34,-0.00,-0.03,0.01,0.00
2026-06-26 19:45:41.436,994.36,994.32,-4.03,-2.66,0.00,0.96,-0.03,9.34,-0.00,-0.03,0.01,0.00
2026-06-26 19:45:41.438,994.36,994.32,-4.03,-2.66,0.00,0.96,-0.03,9.34,-0.01,-0.03,0.01,0.00
2026-06-26 19:45:41.440,994.36,994.32,-4.03,-2.66,0.00,1.05,0.09,9.16,-0.01,-0.03,0.01,0.00
2026-06-26 19:45:41.442,994.36,994.32,-4.03,-2.66,0.00,1.05,0.09,9.16,-0.01,-0.03,0.01,0.00
2026-06-26 19:45:41.444,994.36,994.32,-4.03,-2.66,0.00,1.05,0.09,9.16,-0.01,-0.03,0.01,0.00
2026-06-26 19:45:41.445,994.36,994.32,-4.03,-2.66,0.00,1.05,0.09,9.16,-0.01,-0.03,0.01,0.00
2026-06-26 19:45:41.448,994.36,994.32,-4.03,-2.66,0.00,1.05,0.09,9.16,-0.01,-0.03,0.01,0.00
2026-06-26 19:45:41.589,994.35,994.32,-3.61,-2.52,0.00,1.14,0.10,9.27,-0.00,0.00,-0.00,0.00
2026-06-26 19:45:41.590,994.35,994.32,-3.61,-2.52,0.00,1.11,0.14,9.26,-0.00,0.00,-0.00,0.00
2026-06-26 19:45:41.592,994.35,994.32,-3.61,-2.52,0.00,1.11,0.14,9.26,-0.00,0.00,-0.00,0.00
2026-06-26 19:45:41.596,994.35,994.32,-3.61,-2.52,0.00,1.11,0.14,9.26,-0.00,0.00,-0.00,0.00
2026-06-26 19:45:41.599,994.35,994.32,-3.61,-2.52,0.00,1.11,0.14,9.26,0.00,0.01,-0.00,0.00
2026-06-26 19:45:41.600,994.35,994.32,-3.61,-2.52,0.00,1.21,0.17,9.24,0.00,0.01,-0.00,0.00
2026-06-26 19:45:41.602,994.35,994.32,-3.61,-2.52,0.00,1.21,0.17,9.24,0.00,0.01,-0.00,0.00
2026-06-26 19:45:41.605,994.35,994.32,-3.61,-2.52,0.00,1.21,0.17,9.24,0.00,0.01,-0.00,0.00
2026-06-26 19:45:41.609,994.35,994.32,-3.61,-2.52,0.00,1.21,0.17,9.24,0.00,0.01,-0.00,0.00
2026-06-26 19:45:41.610,994.35,994.32,-3.61,-2.52,0.00,1.23,0.19,9.26,0.00,0.01,-0.00,0.00
2026-06-26 19:45:41.612,994.35,994.32,-3.61,-2.52,0.00,1.23,0.19,9.26,0.00,0.01,-0.00,0.00
2026-06-26 19:45:41.615,994.35,994.32,-3.61,-2.52,0.00,1.23,0.19,9.26,0.00,0.01,-0.00,0.00
2026-06-26 19:45:41.619,994.35,994.32,-3.61,-2.52,0.00,1.23,0.19,9.26,0.00,0.02,-0.01,0.00
2026-06-26 19:45:41.621,994.35,994.32,-3.61,-2.52,0.00,1.22,0.16,9.27,0.00,0.02,-0.01,0.00
2026-06-26 19:45:41.761,994.36,994.33,-3.50,-2.48,0.00,1.15,0.35,9.26,-0.00,-0.01,0.00,0.00
2026-06-26 19:45:41.763,994.36,994.33,-3.50,-2.48,0.00,1.15,0.35,9.26,-0.00,-0.01,0.00,0.00
2026-06-26 19:45:41.767,994.36,994.33,-3.50,-2.48,0.00,1.15,0.35,9.26,-0.00,-0.01,0.00,0.00
2026-06-26 19:45:41.772,994.36,994.33,-3.50,-2.48,0.00,1.24,0.34,9.27,-0.00,-0.00,0.00,0.00
2026-06-26 19:45:41.777,994.36,994.33,-3.50,-2.48,0.00,1.24,0.34,9.27,-0.00,-0.00,0.00,0.00
2026-06-26 19:45:41.780,994.36,994.33,-3.50,-2.48,0.00,1.21,0.33,9.20,-0.00,0.00,0.00,0.00
2026-06-26 19:45:41.782,994.36,994.33,-3.50,-2.48,0.00,1.21,0.33,9.20,-0.00,0.00,0.00,0.00
2026-06-26 19:45:41.783,994.36,994.33,-3.50,-2.48,0.00,1.21,0.33,9.20,-0.00,0.00,0.00,0.00
2026-06-26 19:45:41.785,994.36,994.33,-3.50,-2.48,0.00,1.21,0.33,9.20,-0.00,0.00,0.00,0.00
2026-06-26 19:45:41.787,994.36,994.33,-3.50,-2.48,0.00,1.21,0.33,9.20,-0.00,0.00,0.00,0.00
2026-06-26 19:45:41.789,994.36,994.33,-3.50,-2.48,0.00,1.21,0.33,9.20,-0.00,0.00,0.00,0.00
2026-06-26 19:45:41.791,994.36,994.33,-3.50,-2.48,0.00,1.24,0.36,9.20,-0.00,0.00,0.00,0.00
2026-06-26 19:45:41.793,994.36,994.33,-3.50,-2.48,0.00,1.24,0.36,9.20,-0.00,0.00,0.00,0.00
2026-06-26 19:45:41.799,994.36,994.33,-3.50,-2.48,0.00,1.24,0.36,9.20,-0.00,0.00,0.00,0.00
2026-06-26 19:45:41.936,994.34,994.31,-2.47,-2.08,0.00,1.07,0.16,9.28,0.00,0.01,0.00,0.00
2026-06-26 19:45:41.940,994.34,994.31,-2.47,-2.08,0.00,1.07,0.16,9.28,-0.00,0.01,0.00,0.00
2026-06-26 19:45:41.941,994.34,994.31,-2.47,-2.08,0.00,0.98,0.21,9.28,-0.00,0.01,0.00,0.00
2026-06-26 19:45:41.943,994.34,994.31,-2.47,-2.08,0.00,0.98,0.21,9.28,-0.00,0.01,0.00,0.00
2026-06-26 19:45:41.949,994.34,994.31,-2.47,-2.08,0.00,0.98,0.21,9.28,-0.00,0.00,0.00,0.00
2026-06-26 19:45:41.951,994.34,994.31,-2.47,-2.08,0.00,1.02,0.22,9.26,-0.00,0.00,0.00,0.00
2026-06-26 19:45:41.953,994.34,994.31,-2.47,-2.08,0.00,1.02,0.22,9.26,-0.00,0.00,0.00,0.00
2026-06-26 19:45:41.957,994.34,994.31,-2.47,-2.08,0.00,1.02,0.22,9.26,-0.00,0.00,0.00,0.00
2026-06-26 19:45:41.960,994.34,994.31,-2.47,-2.08,0.00,1.02,0.22,9.26,0.00,0.00,0.00,0.00
2026-06-26 19:45:41.961,994.34,994.31,-2.47,-2.08,0.00,0.98,0.24,9.26,0.00,0.00,0.00,0.00
2026-06-26 19:45:41.963,994.34,994.31,-2.47,-2.08,0.00,0.98,0.24,9.26,0.00,0.00,0.00,0.00
2026-06-26 19:45:41.965,994.34,994.31,-2.47,-2.08,0.00,0.98,0.24,9.26,0.00,0.00,0.00,0.00
2026-06-26 19:45:41.969,994.34,994.31,-2.47,-2.08,0.00,0.98,0.24,9.26,-0.00,-0.01,0.00,0.00
2026-06-26 19:45:41.971,994.34,994.31,-2.47,-2.08,0.00,1.08,0.24,9.26,-0.00,-0.01,0.00,0.00
2026-06-26 19:45:42.110,994.35,994.32,-2.73,-2.19,0.00,1.07,0.35,9.26,0.00,0.02,-0.00,0.00
2026-06-26 19:45:42.113,994.35,994.32,-2.73,-2.19,0.00,1.09,0.44,9.22,0.00,0.02,-0.00,0.00
2026-06-26 19:45:42.119,994.35,994.32,-2.73,-2.19,0.00,1.09,0.44,9.22,0.00,0.02,-0.00,0.00
2026-06-26 19:45:42.121,994.35,994.32,-2.73,-2.19,0.00,1.13,0.48,9.32,0.00,0.02,-0.01,0.00
2026-06-26 19:45:42.123,994.35,994.32,-2.73,-2.19,0.00,1.13,0.48,9.32,0.00,0.02,-0.01,0.00
2026-06-26 19:45:42.125,994.35,994.32,-2.73,-2.19,0.00,1.13,0.48,9.32,0.00,0.02,-0.01,0.00
2026-06-26 19:45:42.130,994.35,994.32,-2.73,-2.19,0.00,1.13,0.48,9.32,0.00,0.02,-0.01,0.00
2026-06-26 19:45:42.134,994.35,994.32,-2.73,-2.19,0.00,1.12,0.52,9.32,0.00,0.02,-0.01,0.00
2026-06-26 19:45:42.135,994.35,994.32,-2.73,-2.19,0.00,1.12,0.52,9.32,0.00,0.02,-0.01,0.00
2026-06-26 19:45:42.137,994.35,994.32,-2.73,-2.19,0.00,1.12,0.52,9.32,0.00,0.02,-0.01,0.00
2026-06-26 19:45:42.141,994.35,994.32,-2.73,-2.19,0.00,1.12,0.52,9.32,0.00,0.02,-0.00,0.00
2026-06-26 19:45:42.143,994.35,994.32,-2.73,-2.19,0.00,1.02,0.51,9.24,0.00,0.02,-0.00,0.00
2026-06-26 19:45:42.290,994.34,994.31,-2.96,-2.28,0.00,1.10,0.95,9.07,-0.00,0.01,-0.01,0.00
2026-06-26 19:45:42.292,994.34,994.31,-2.96,-2.28,0.00,0.67,0.63,9.55,-0.00,0.01,-0.01,0.00
2026-06-26 19:45:42.297,994.34,994.31,-2.96,-2.28,0.00,0.67,0.63,9.55,-0.00,0.01,-0.01,0.00
2026-06-26 19:45:42.301,994.34,994.31,-2.96,-2.28,0.00,0.67,0.63,9.55,-0.00,0.01,-0.01,0.00
2026-06-26 19:45:42.302,994.34,994.31,-2.96,-2.28,0.00,1.03,0.80,9.51,-0.00,0.01,-0.01,0.00
2026-06-26 19:45:42.305,994.34,994.31,-2.96,-2.28,0.00,1.03,0.80,9.51,-0.00,0.01,-0.01,0.00
2026-06-26 19:45:42.310,994.34,994.31,-2.96,-2.28,0.00,1.03,0.80,9.51,-0.00,0.01,-0.01,0.00
2026-06-26 19:45:42.312,994.34,994.31,-2.96,-2.28,0.00,1.36,0.69,9.01,-0.00,0.00,-0.01,0.00
2026-06-26 19:45:42.313,994.34,994.31,-2.96,-2.28,0.00,1.36,0.69,9.01,-0.00,0.00,-0.01,0.00
2026-06-26 19:45:42.319,994.34,994.31,-2.96,-2.28,0.00,1.36,0.69,9.01,-0.00,0.00,-0.01,0.00
2026-06-26 19:45:42.321,994.34,994.31,-2.96,-2.28,0.00,0.92,0.31,9.20,0.00,-0.02,-0.01,0.00
2026-06-26 19:45:42.470,994.34,994.33,-0.85,-1.22,0.00,1.47,0.14,9.16,-0.01,-0.08,0.03,0.00
2026-06-26 19:45:42.472,994.34,994.33,-0.85,-1.22,0.00,1.27,0.05,9.21,-0.01,-0.08,0.02,0.00
2026-06-26 19:45:42.474,994.34,994.33,-0.85,-1.22,0.00,1.27,0.05,9.21,-0.01,-0.08,0.02,0.00
2026-06-26 19:45:42.480,994.34,994.33,-0.85,-1.22,0.00,1.27,0.05,9.21,-0.01,-0.08,0.02,0.00
2026-06-26 19:45:42.482,994.34,994.33,-0.85,-1.22,0.00,1.39,0.30,9.27,-0.01,-0.07,0.02,0.00
2026-06-26 19:45:42.484,994.34,994.33,-0.85,-1.22,0.00,1.39,0.30,9.27,-0.01,-0.07,0.02,0.00
2026-06-26 19:45:42.486,994.34,994.33,-0.85,-1.22,0.00,1.39,0.30,9.27,-0.01,-0.07,0.02,0.00
2026-06-26 19:45:42.488,994.34,994.33,-0.85,-1.22,0.00,1.39,0.30,9.27,-0.01,-0.07,0.02,0.00
2026-06-26 19:45:42.490,994.34,994.33,-0.85,-1.22,0.00,1.39,0.30,9.27,-0.01,-0.07,0.02,0.00
2026-06-26 19:45:42.492,994.34,994.33,-0.85,-1.22,0.00,1.43,0.13,9.27,-0.01,-0.07,0.01,0.00
2026-06-26 19:45:42.494,994.34,994.33,-0.85,-1.22,0.00,1.43,0.13,9.27,-0.01,-0.07,0.01,0.00
2026-06-26 19:45:42.496,994.34,994.33,-0.85,-1.22,0.00,1.43,0.13,9.27,-0.01,-0.07,0.01,0.00
2026-06-26 19:45:42.634,994.34,994.32,-1.90,-1.82,0.00,1.15,0.29,9.03,-0.00,0.01,-0.00,0.00
2026-06-26 19:45:42.635,994.34,994.32,-1.90,-1.82,0.00,1.15,0.29,9.03,-0.00,0.01,-0.00,0.00
2026-06-26 19:45:42.637,994.34,994.32,-1.90,-1.82,0.00,1.15,0.29,9.03,-0.00,0.01,-0.00,0.00
2026-06-26 19:45:42.641,994.34,994.32,-1.90,-1.82,0.00,1.15,0.29,9.03,-0.00,0.00,0.00,0.00
2026-06-26 19:45:42.643,994.34,994.32,-1.90,-1.82,0.00,1.31,0.35,9.06,-0.00,0.00,0.00,0.00
2026-06-26 19:45:42.645,994.34,994.32,-1.90,-1.82,0.00,1.31,0.35,9.06,-0.00,0.00,0.00,0.00
2026-06-26 19:45:42.651,994.34,994.32,-1.90,-1.82,0.00,1.31,0.35,9.06,-0.00,0.00,0.00,0.00
2026-06-26 19:45:42.652,994.34,994.32,-1.90,-1.82,0.00,1.30,0.45,9.28,-0.01,0.00,0.01,0.00
2026-06-26 19:45:42.655,994.34,994.32,-1.90,-1.82,0.00,1.30,0.45,9.28,-0.01,0.00,0.01,0.00
2026-06-26 19:45:42.661,994.34,994.32,-1.90,-1.82,0.00,1.30,0.45,9.28,-0.01,0.00,0.01,0.00
2026-06-26 19:45:42.663,994.34,994.32,-1.90,-1.82,0.00,1.41,0.65,9.32,-0.00,0.01,0.01,0.00
2026-06-26 19:45:42.664,994.34,994.32,-1.90,-1.82,0.00,1.41,0.65,9.32,-0.00,0.01,0.01,0.00
2026-06-26 19:45:42.670,994.34,994.32,-1.90,-1.82,0.00,1.41,0.65,9.32,-0.00,0.01,0.01,0.00
2026-06-26 19:45:42.812,994.33,994.33,-0.21,-0.61,0.00,1.52,-0.03,9.30,0.02,0.12,-0.06,0.00
2026-06-26 19:45:42.815,994.33,994.33,-0.21,-0.61,0.00,1.52,-0.03,9.30,0.02,0.12,-0.06,0.00
2026-06-26 19:45:42.821,994.33,994.33,-0.21,-0.61,0.00,1.52,-0.03,9.30,0.02,0.12,-0.06,0.00
2026-06-26 19:45:42.823,994.33,994.33,-0.21,-0.61,0.00,1.58,0.22,9.20,0.01,0.14,-0.07,0.00
2026-06-26 19:45:42.825,994.33,994.33,-0.21,-0.61,0.00,1.58,0.22,9.20,0.01,0.14,-0.07,0.00
2026-06-26 19:45:42.834,994.33,994.33,-0.21,-0.61,0.00,1.58,0.22,9.20,0.02,0.16,-0.05,0.00
2026-06-26 19:45:42.837,994.33,994.33,-0.21,-0.61,0.00,1.73,0.33,9.15,0.02,0.16,-0.05,0.00
2026-06-26 19:45:42.839,994.33,994.33,-0.21,-0.61,0.00,1.73,0.33,9.15,0.02,0.16,-0.05,0.00
2026-06-26 19:45:42.841,994.33,994.33,-0.21,-0.61,0.00,1.73,0.33,9.15,0.02,0.16,-0.05,0.00
2026-06-26 19:45:42.843,994.33,994.33,-0.21,-0.61,0.00,2.32,0.76,9.19,0.02,0.18,-0.04,0.00
2026-06-26 19:45:42.845,994.33,994.33,-0.21,-0.61,0.00,2.32,0.76,9.19,0.02,0.18,-0.04,0.00
2026-06-26 19:45:42.847,994.33,994.33,-0.21,-0.61,0.00,2.32,0.76,9.19,0.02,0.18,-0.04,0.00
2026-06-26 19:45:42.986,994.34,994.32,-1.30,-1.51,0.00,1.06,0.67,9.24,0.06,0.42,-0.06,0.00
2026-06-26 19:45:42.987,994.34,994.32,-1.30,-1.51,0.00,1.06,0.67,9.24,0.06,0.42,-0.06,0.00
2026-06-26 19:45:42.989,994.34,994.32,-1.30,-1.51,0.00,1.06,0.67,9.24,0.06,0.42,-0.06,0.00
2026-06-26 19:45:42.990,994.34,994.32,-1.30,-1.51,0.00,1.06,0.67,9.24,0.06,0.42,-0.06,0.00
2026-06-26 19:45:42.992,994.34,994.32,-1.30,-1.51,0.00,1.01,0.84,9.30,0.05,0.42,-0.06,0.00
2026-06-26 19:45:42.994,994.34,994.32,-1.30,-1.51,0.00,1.01,0.84,9.30,0.05,0.42,-0.06,0.00
2026-06-26 19:45:42.995,994.34,994.32,-1.30,-1.51,0.00,1.01,0.84,9.30,0.05,0.42,-0.06,0.00
2026-06-26 19:45:42.996,994.34,994.32,-1.30,-1.51,0.00,1.01,0.84,9.30,0.05,0.42,-0.06,0.00
2026-06-26 19:45:42.998,994.34,994.32,-1.30,-1.51,0.00,1.01,0.84,9.30,0.05,0.42,-0.06,0.00
2026-06-26 19:45:42.999,994.34,994.32,-1.30,-1.51,0.00,1.01,0.84,9.30,0.05,0.42,-0.06,0.00
2026-06-26 19:45:42.003,994.34,994.32,-1.30,-1.51,0.00,1.01,0.84,9.30,0.05,0.43,-0.06,0.00
2026-06-26 19:45:43.004,994.34,994.32,-1.30,-1.51,0.00,0.95,0.77,9.22,0.05,0.43,-0.06,0.00
2026-06-26 19:45:43.006,994.34,994.32,-1.30,-1.51,0.00,0.95,0.77,9.22,0.05,0.43,-0.06,0.00
2026-06-26 19:45:43.007,994.34,994.32,-1.30,-1.51,0.00,0.95,0.77,9.22,0.05,0.43,-0.06,0.00
2026-06-26 19:45:43.011,994.34,994.32,-1.30,-1.51,0.00,0.95,0.77,9.22,0.05,0.43,-0.06,0.00
2026-06-26 19:45:43.012,994.34,994.32,-1.30,-1.51,0.00,0.57,0.77,9.16,0.05,0.44,-0.05,0.00
2026-06-26 19:45:43.014,994.34,994.32,-1.30,-1.51,0.00,0.57,0.77,9.16,0.05,0.44,-0.05,0.00
2026-06-26 19:45:43.015,994.34,994.32,-1.30,-1.51,0.00,0.57,0.77,9.16,0.05,0.44,-0.05,0.00
2026-06-26 19:45:43.021,994.34,994.32,-1.30,-1.51,0.00,0.57,0.77,9.16,0.05,0.44,-0.05,0.00
2026-06-26 19:45:43.162,994.34,994.32,-1.55,-1.65,0.00,-0.52,0.75,9.22,0.04,0.33,-0.06,0.00
2026-06-26 19:45:43.164,994.34,994.32,-1.55,-1.65,0.00,-0.34,0.67,9.37,0.04,0.33,-0.06,0.00
2026-06-26 19:45:43.166,994.34,994.32,-1.55,-1.65,0.00,-0.34,0.67,9.37,0.04,0.33,-0.06,0.00
2026-06-26 19:45:43.169,994.34,994.32,-1.55,-1.65,0.00,-0.34,0.67,9.37,0.04,0.33,-0.06,0.00
2026-06-26 19:45:43.173,994.34,994.32,-1.55,-1.65,0.00,-0.34,0.67,9.37,0.04,0.31,-0.06,0.00
2026-06-26 19:45:43.174,994.34,994.32,-1.55,-1.65,0.00,-0.45,0.75,9.53,0.04,0.31,-0.06,0.00
2026-06-26 19:45:43.176,994.34,994.32,-1.55,-1.65,0.00,-0.45,0.75,9.53,0.04,0.31,-0.06,0.00
2026-06-26 19:45:43.180,994.34,994.32,-1.55,-1.65,0.00,-0.45,0.75,9.53,0.04,0.31,-0.06,0.00
2026-06-26 19:45:43.183,994.34,994.32,-1.55,-1.65,0.00,-0.45,0.75,9.53,0.04,0.30,-0.06,0.00
2026-06-26 19:45:43.184,994.34,994.32,-1.55,-1.65,0.00,-0.59,0.77,9.52,0.04,0.30,-0.06,0.00
2026-06-26 19:45:43.186,994.34,994.32,-1.55,-1.65,0.00,-0.59,0.77,9.52,0.04,0.30,-0.06,0.00
2026-06-26 19:45:43.187,994.34,994.32,-1.55,-1.65,0.00,-0.59,0.77,9.52,0.04,0.30,-0.06,0.00
2026-06-26 19:45:43.189,994.34,994.32,-1.55,-1.65,0.00,-0.59,0.77,9.52,0.04,0.30,-0.06,0.00
2026-06-26 19:45:43.190,994.34,994.32,-1.55,-1.65,0.00,-0.59,0.77,9.52,0.04,0.30,-0.06,0.00
2026-06-26 19:45:43.192,994.34,994.32,-1.55,-1.65,0.00,-0.59,0.77,9.52,0.04,0.29,-0.07,0.00
2026-06-26 19:45:43.194,994.34,994.32,-1.55,-1.65,0.00,-0.43,0.52,9.36,0.04,0.29,-0.07,0.00
2026-06-26 19:45:43.195,994.34,994.32,-1.55,-1.65,0.00,-0.43,0.52,9.36,0.04,0.29,-0.07,0.00
2026-06-26 19:45:43.333,994.35,994.31,-3.42,-2.45,0.00,-0.03,1.66,11.78,-0.13,-0.06,-0.05,0.00
2026-06-26 19:45:43.335,994.35,994.31,-3.42,-2.45,0.00,-0.03,1.66,11.78,-0.13,-0.06,-0.05,0.00
2026-06-26 19:45:43.337,994.35,994.31,-3.42,-2.45,0.00,-0.03,1.66,11.78,-0.13,-0.06,-0.05,0.00
2026-06-26 19:45:43.339,994.35,994.31,-3.42,-2.45,0.00,-0.03,1.66,11.78,-0.13,-0.06,-0.05,0.00
2026-06-26 19:45:43.341,994.35,994.31,-3.42,-2.45,0.00,-0.03,1.66,11.78,-0.13,-0.06,-0.05,0.00
2026-06-26 19:45:43.343,994.35,994.31,-3.42,-2.45,0.00,-0.03,1.66,11.78,-0.14,-0.08,-0.07,0.00
2026-06-26 19:45:43.347,994.35,994.31,-3.42,-2.45,0.00,0.50,1.89,11.54,-0.14,-0.08,-0.07,0.00
2026-06-26 19:45:43.350,994.35,994.31,-3.42,-2.45,0.00,0.50,1.89,11.54,-0.14,-0.08,-0.07,0.00
2026-06-26 19:45:43.353,994.35,994.31,-3.42,-2.45,0.00,0.50,1.89,11.54,-0.14,-0.08,-0.07,0.00
2026-06-26 19:45:43.354,994.35,994.31,-3.42,-2.45,0.00,-0.08,1.61,11.42,-0.14,-0.09,-0.09,0.00
2026-06-26 19:45:43.356,994.35,994.31,-3.42,-2.45,0.00,-0.08,1.61,11.42,-0.14,-0.09,-0.09,0.00
2026-06-26 19:45:43.358,994.35,994.31,-3.42,-2.45,0.00,-0.08,1.61,11.42,-0.14,-0.09,-0.09,0.00
2026-06-26 19:45:43.363,994.35,994.31,-3.42,-2.45,0.00,-0.08,1.61,11.42,-0.14,-0.11,-0.10,0.00
2026-06-26 19:45:43.365,994.35,994.31,-3.42,-2.45,0.00,-0.17,1.62,11.23,-0.14,-0.11,-0.10,0.00
2026-06-26 19:45:43.370,994.35,994.31,-3.42,-2.45,0.00,-0.17,1.62,11.23,-0.14,-0.11,-0.10,0.00
2026-06-26 19:45:43.513,994.33,994.32,-0.41,-0.85,0.16,-0.14,1.01,8.43,-0.11,-0.03,-0.25,0.00
2026-06-26 19:45:43.515,994.33,994.32,-0.41,-0.85,0.16,-0.33,0.93,8.43,-0.11,-0.03,-0.25,0.00
2026-06-26 19:45:43.516,994.33,994.32,-0.41,-0.85,0.16,-0.33,0.93,8.43,-0.11,-0.03,-0.25,0.00
2026-06-26 19:45:43.523,994.33,994.32,-0.41,-0.85,0.16,-0.33,0.93,8.43,-0.12,-0.01,-0.26,0.00
2026-06-26 19:45:43.525,994.33,994.32,-0.41,-0.85,0.16,-0.22,0.97,8.43,-0.12,-0.01,-0.26,0.00
2026-06-26 19:45:43.527,994.33,994.32,-0.41,-0.85,0.16,-0.22,0.97,8.43,-0.12,-0.01,-0.26,0.00
2026-06-26 19:45:43.533,994.33,994.32,-0.41,-0.85,0.16,-0.22,0.97,8.43,-0.12,-0.01,-0.26,0.00
2026-06-26 19:45:43.535,994.33,994.32,-0.41,-0.85,0.16,-0.10,0.81,8.46,-0.12,0.01,-0.26,0.00
2026-06-26 19:45:43.537,994.33,994.32,-0.41,-0.85,0.16,-0.10,0.81,8.46,-0.12,0.01,-0.26,0.00
2026-06-26 19:45:43.538,994.33,994.32,-0.41,-0.85,0.16,-0.10,0.81,8.46,-0.12,0.01,-0.26,0.00
2026-06-26 19:45:43.540,994.33,994.32,-0.41,-0.85,0.16,-0.10,0.81,8.46,-0.12,0.01,-0.26,0.00
2026-06-26 19:45:43.542,994.33,994.32,-0.41,-0.85,0.16,-0.10,0.81,8.46,-0.12,0.01,-0.26,0.00
2026-06-26 19:45:43.544,994.33,994.32,-0.41,-0.85,0.16,-0.23,0.85,8.39,-0.12,0.02,-0.26,0.00
2026-06-26 19:45:43.546,994.33,994.32,-0.41,-0.85,0.16,-0.23,0.85,8.39,-0.12,0.02,-0.26,0.00
2026-06-26 19:45:43.689,994.32,994.31,-1.54,-1.64,0.16,-0.22,0.36,8.61,-0.13,0.10,-0.34,0.00
2026-06-26 19:45:43.690,994.32,994.31,-1.54,-1.64,0.16,-0.22,0.36,8.61,-0.13,0.10,-0.34,0.00
2026-06-26 19:45:43.692,994.32,994.31,-1.54,-1.64,0.16,-0.22,0.36,8.61,-0.13,0.10,-0.34,0.00
2026-06-26 19:45:43.694,994.32,994.31,-1.54,-1.64,0.16,-0.22,0.35,8.62,-0.13,0.10,-0.34,0.00
2026-06-26 19:45:43.696,994.32,994.31,-1.54,-1.64,0.16,-0.22,0.35,8.62,-0.13,0.10,-0.34,0.00
2026-06-26 19:45:43.700,994.32,994.31,-1.54,-1.64,0.16,-0.22,0.35,8.62,-0.13,0.10,-0.34,0.00
2026-06-26 19:45:43.704,994.32,994.31,-1.54,-1.64,0.16,-0.22,0.35,8.62,-0.13,0.10,-0.34,0.00
2026-06-26 19:45:43.706,994.32,994.31,-1.54,-1.64,0.16,-0.24,0.31,8.64,-0.13,0.10,-0.34,0.00
2026-06-26 19:45:43.707,994.32,994.31,-1.54,-1.64,0.16,-0.24,0.31,8.64,-0.13,0.10,-0.34,0.00
2026-06-26 19:45:43.709,994.32,994.31,-1.54,-1.64,0.16,-0.24,0.31,8.64,-0.13,0.10,-0.34,0.00
2026-06-26 19:45:43.711,994.32,994.31,-1.54,-1.64,0.16,-0.24,0.31,8.64,-0.13,0.10,-0.34,0.00
2026-06-26 19:45:43.713,994.32,994.31,-1.54,-1.64,0.16,-0.24,0.31,8.64,-0.13,0.10,-0.34,0.00
2026-06-26 19:45:43.715,994.32,994.31,-1.54,-1.64,0.16,-0.22,0.21,8.66,-0.13,0.10,-0.34,0.00
2026-06-26 19:45:43.717,994.32,994.31,-1.54,-1.64,0.16,-0.22,0.21,8.66,-0.13,0.10,-0.34,0.00
2026-06-26 19:45:43.718,994.32,994.31,-1.54,-1.64,0.16,-0.22,0.21,8.66,-0.13,0.10,-0.34,0.00
2026-06-26 19:45:43.723,994.32,994.31,-1.54,-1.64,0.16,-0.22,0.21,8.66,-0.13,0.10,-0.34,0.00
2026-06-26 19:45:43.866,994.34,994.30,-3.96,-2.63,0.16,-0.29,-0.22,9.49,-0.16,0.03,-0.31,0.00
2026-06-26 19:45:43.873,994.34,994.30,-3.96,-2.63,0.16,-0.29,-0.22,9.49,-0.16,0.03,-0.31,0.00
2026-06-26 19:45:43.876,994.34,994.30,-3.96,-2.63,0.16,-0.20,-0.23,9.67,-0.16,0.02,-0.32,0.00
2026-06-26 19:45:43.877,994.34,994.30,-3.96,-2.63,0.16,-0.20,-0.23,9.67,-0.16,0.02,-0.32,0.00
2026-06-26 19:45:43.884,994.34,994.30,-3.96,-2.63,0.16,-0.20,-0.23,9.67,-0.16,0.02,-0.32,0.00
2026-06-26 19:45:43.885,994.34,994.30,-3.96,-2.63,0.16,-0.25,-0.27,9.69,-0.16,0.02,-0.32,0.00
2026-06-26 19:45:43.887,994.34,994.30,-3.96,-2.63,0.16,-0.25,-0.27,9.69,-0.16,0.02,-0.32,0.00
2026-06-26 19:45:43.889,994.34,994.30,-3.96,-2.63,0.16,-0.25,-0.27,9.69,-0.16,0.02,-0.32,0.00
2026-06-26 19:45:43.895,994.34,994.30,-3.96,-2.63,0.16,-0.25,-0.27,9.69,-0.16,0.02,-0.32,0.00
2026-06-26 19:45:43.897,994.34,994.30,-3.96,-2.63,0.16,-0.30,-0.30,9.59,-0.16,0.02,-0.32,0.00
2026-06-26 19:45:43.899,994.34,994.30,-3.96,-2.63,0.16,-0.30,-0.30,9.59,-0.16,0.02,-0.32,0.00
2026-06-26 19:45:43.900,994.34,994.30,-3.96,-2.63,0.16,-0.30,-0.30,9.59,-0.16,0.02,-0.32,0.00
2026-06-26 19:45:44.040,994.33,994.33,0.60,1.03,0.16,-0.27,-0.95,9.49,-0.05,0.02,-0.36,0.00
2026-06-26 19:45:44.041,994.33,994.33,0.60,1.03,0.16,-0.27,-0.95,9.49,-0.05,0.02,-0.36,0.00
2026-06-26 19:45:44.043,994.33,994.33,0.60,1.03,0.16,-0.27,-0.95,9.49,-0.05,0.02,-0.36,0.00
2026-06-26 19:45:44.045,994.33,994.33,0.60,1.03,0.16,-0.23,-1.02,9.51,-0.04,0.02,-0.36,0.00
2026-06-26 19:45:44.046,994.33,994.33,0.60,1.03,0.16,-0.23,-1.02,9.51,-0.04,0.02,-0.36,0.00
2026-06-26 19:45:44.048,994.33,994.33,0.60,1.03,0.16,-0.23,-1.02,9.51,-0.04,0.02,-0.36,0.00
2026-06-26 19:45:44.049,994.33,994.33,0.60,1.03,0.16,-0.23,-1.02,9.51,-0.04,0.02,-0.36,0.00
2026-06-26 19:45:44.051,994.33,994.33,0.60,1.03,0.16,-0.23,-1.02,9.51,-0.04,0.02,-0.36,0.00
2026-06-26 19:45:44.052,994.33,994.33,0.60,1.03,0.16,-0.23,-1.02,9.51,-0.04,0.02,-0.36,0.00
2026-06-26 19:45:44.054,994.33,994.33,0.60,1.03,0.16,-0.23,-1.02,9.51,-0.04,0.02,-0.36,0.00
2026-06-26 19:45:44.055,994.33,994.33,0.60,1.03,0.16,-0.27,-1.11,9.49,-0.03,0.01,-0.35,0.00
2026-06-26 19:45:44.057,994.33,994.33,0.60,1.03,0.16,-0.27,-1.11,9.49,-0.03,0.01,-0.35,0.00
2026-06-26 19:45:44.058,994.33,994.33,0.60,1.03,0.16,-0.27,-1.11,9.49,-0.03,0.01,-0.35,0.00
2026-06-26 19:45:44.060,994.33,994.33,0.60,1.03,0.16,-0.27,-1.11,9.49,-0.03,0.01,-0.35,0.00
2026-06-26 19:45:44.061,994.33,994.33,0.60,1.03,0.16,-0.27,-1.11,9.49,-0.03,0.01,-0.35,0.00
2026-06-26 19:45:44.063,994.33,994.33,0.60,1.03,0.16,-0.27,-1.11,9.49,-0.03,0.01,-0.35,0.00
2026-06-26 19:45:44.065,994.33,994.33,0.60,1.03,0.16,-0.27,-1.11,9.49,-0.02,0.01,-0.35,0.00
2026-06-26 19:45:44.072,994.33,994.33,0.60,1.03,0.16,-0.24,-1.15,9.52,-0.02,0.01,-0.35,0.00
2026-06-26 19:45:44.075,994.33,994.33,0.60,1.03,0.16,-0.25,-1.21,9.54,-0.01,0.01,-0.34,0.00
2026-06-26 19:45:44.218,994.34,994.30,-3.34,-2.42,0.16,-0.27,-1.26,8.42,0.22,-0.05,-0.28,0.00
2026-06-26 19:45:44.224,994.34,994.30,-3.34,-2.42,0.16,-0.27,-1.26,8.42,0.22,-0.05,-0.28,0.00
2026-06-26 19:45:44.226,994.34,994.30,-3.34,-2.42,0.16,-0.24,-1.23,8.37,0.23,-0.06,-0.28,0.00
2026-06-26 19:45:44.228,994.34,994.30,-3.34,-2.42,0.16,-0.24,-1.23,8.37,0.23,-0.06,-0.28,0.00
2026-06-26 19:45:44.231,994.34,994.30,-3.34,-2.42,0.16,-0.24,-1.23,8.37,0.23,-0.06,-0.28,0.00
2026-06-26 19:45:44.235,994.34,994.30,-3.34,-2.42,0.16,-0.24,-1.23,8.37,0.24,-0.07,-0.27,0.00
2026-06-26 19:45:44.237,994.34,994.30,-3.34,-2.42,0.16,-0.22,-1.17,8.29,0.24,-0.07,-0.27,0.00
2026-06-26 19:45:44.238,994.34,994.30,-3.34,-2.42,0.16,-0.22,-1.17,8.29,0.24,-0.07,-0.27,0.00
2026-06-26 19:45:44.240,994.34,994.30,-3.34,-2.42,0.16,-0.22,-1.17,8.29,0.24,-0.07,-0.27,0.00
2026-06-26 19:45:44.241,994.34,994.30,-3.34,-2.42,0.16,-0.22,-1.17,8.29,0.24,-0.07,-0.27,0.00
2026-06-26 19:45:44.243,994.34,994.30,-3.34,-2.42,0.16,-0.22,-1.17,8.29,0.24,-0.07,-0.27,0.00
2026-06-26 19:45:44.245,994.34,994.30,-3.34,-2.42,0.16,-0.22,-1.17,8.29,0.26,-0.07,-0.27,0.00
2026-06-26 19:45:44.246,994.34,994.30,-3.34,-2.42,0.16,-0.21,-1.11,8.24,0.26,-0.07,-0.27,0.00
2026-06-26 19:45:44.248,994.34,994.30,-3.34,-2.42,0.16,-0.21,-1.11,8.24,0.26,-0.07,-0.27,0.00
2026-06-26 19:45:44.249,994.34,994.30,-3.34,-2.42,0.16,-0.21,-1.11,8.24,0.26,-0.07,-0.27,0.00
2026-06-26 19:45:44.251,994.34,994.30,-3.34,-2.42,0.16,-0.21,-1.11,8.24,0.26,-0.07,-0.27,0.00
2026-06-26 19:45:44.389,994.32,994.30,-1.71,-1.73,0.16,0.29,-0.27,9.30,0.30,-0.09,-0.18,0.00
2026-06-26 19:45:44.391,994.32,994.30,-1.71,-1.73,0.16,0.29,-0.27,9.30,0.30,-0.09,-0.18,0.00
2026-06-26 19:45:44.392,994.32,994.30,-1.71,-1.73,0.16,0.29,-0.27,9.30,0.30,-0.09,-0.18,0.00
2026-06-26 19:45:44.394,994.32,994.30,-1.71,-1.73,0.16,0.29,-0.27,9.30,0.30,-0.09,-0.18,0.00
2026-06-26 19:45:44.397,994.32,994.30,-1.71,-1.73,0.16,0.38,-0.23,9.61,0.27,-0.12,-0.18,0.00
2026-06-26 19:45:44.399,994.32,994.30,-1.71,-1.73,0.16,0.38,-0.23,9.61,0.27,-0.12,-0.18,0.00
2026-06-26 19:45:44.402,994.32,994.30,-1.71,-1.73,0.16,0.38,-0.23,9.61,0.27,-0.12,-0.18,0.00
2026-06-26 19:45:44.404,994.32,994.30,-1.71,-1.73,0.16,0.38,-0.23,9.61,0.27,-0.12,-0.18,0.00
2026-06-26 19:45:44.406,994.32,994.30,-1.71,-1.73,0.16,0.43,-0.24,9.99,0.27,-0.12,-0.18,0.00
2026-06-26 19:45:44.407,994.32,994.30,-1.71,-1.73,0.16,0.43,-0.24,9.99,0.27,-0.12,-0.18,0.00
2026-06-26 19:45:44.415,994.32,994.30,-1.71,-1.73,0.16,0.43,-0.24,9.99,0.27,-0.12,-0.18,0.00
2026-06-26 19:45:44.416,994.32,994.30,-1.71,-1.73,0.16,0.58,-0.19,10.74,0.25,-0.13,-0.17,0.00
2026-06-26 19:45:44.418,994.32,994.30,-1.71,-1.73,0.16,0.58,-0.19,10.74,0.25,-0.13,-0.17,0.00
2026-06-26 19:45:44.421,994.32,994.30,-1.71,-1.73,0.16,0.58,-0.19,10.74,0.25,-0.13,-0.17,0.00
2026-06-26 19:45:44.425,994.32,994.30,-1.71,-1.73,0.16,0.58,-0.19,10.74,0.23,-0.13,-0.17,0.00
