timestamp,pressure_bag,pressure_bme,diff_pressure,v_wind_est,speed,accel_x,accel_y,accel_z,gyro_x,gyro_y,gyro_z,power
2026-06-26 19:00:20.049,994.17,994.12,-4.88,-2.93,0.00,2.86,0.02,8.86,-0.00,0.00,0.00,0.00
2026-06-26 19:00:20.050,994.17,994.12,-4.88,-2.93,0.00,2.86,0.02,8.86,-0.00,0.00,0.00,0.00
2026-06-26 19:00:20.051,994.17,994.12,-4.88,-2.93,0.00,2.86,0.02,8.86,-0.00,0.00,0.00,0.00
2026-06-26 19:00:20.053,994.17,994.12,-4.88,-2.93,0.00,2.86,0.02,8.86,-0.00,0.00,0.00,0.00
2026-06-26 19:00:20.057,994.17,994.12,-4.88,-2.93,0.00,2.86,0.02,8.86,-0.00,0.00,0.00,0.00
2026-06-26 19:00:20.059,994.17,994.12,-4.88,-2.93,0.00,2.86,0.05,8.85,0.00,0.00,-0.00,0.00
2026-06-26 19:00:20.060,994.17,994.12,-4.88,-2.93,0.00,2.86,0.05,8.85,0.00,0.00,-0.00,0.00
2026-06-26 19:00:20.061,994.17,994.12,-4.88,-2.93,0.00,2.86,0.05,8.85,0.00,0.00,-0.00,0.00
2026-06-26 19:00:20.062,994.17,994.12,-4.88,-2.93,0.00,2.86,0.05,8.85,0.00,0.00,-0.00,0.00
2026-06-26 19:00:20.067,994.17,994.12,-4.88,-2.93,0.00,2.86,0.05,8.85,0.00,0.00,-0.00,0.00
2026-06-26 19:00:20.069,994.17,994.12,-4.88,-2.93,0.00,2.86,0.02,8.84,0.00,0.00,0.00,0.00
2026-06-26 19:00:20.070,994.17,994.12,-4.88,-2.93,0.00,2.86,0.02,8.84,0.00,0.00,0.00,0.00
2026-06-26 19:00:20.071,994.17,994.12,-4.88,-2.93,0.00,2.86,0.02,8.84,0.00,0.00,0.00,0.00
2026-06-26 19:00:20.073,994.17,994.12,-4.88,-2.93,0.00,2.86,0.02,8.84,0.00,0.00,0.00,0.00
2026-06-26 19:00:20.077,994.17,994.12,-4.88,-2.93,0.00,2.86,0.02,8.84,0.00,0.00,0.00,0.00
2026-06-26 19:00:20.080,994.17,994.12,-4.88,-2.93,0.00,2.86,0.02,8.87,-0.00,0.00,0.00,0.00
2026-06-26 19:00:20.082,994.17,994.12,-4.88,-2.93,0.00,2.86,0.02,8.87,-0.00,0.00,0.00,0.00
2026-06-26 19:00:20.083,994.17,994.12,-4.88,-2.93,0.00,2.86,0.02,8.87,-0.00,0.00,0.00,0.00
2026-06-26 19:00:20.087,994.17,994.12,-4.88,-2.93,0.00,2.86,0.02,8.87,-0.00,0.00,0.00,0.00
2026-06-26 19:00:20.089,994.17,994.12,-4.88,-2.93,0.00,2.85,0.03,8.87,-0.00,0.00,0.00,0.00
2026-06-26 19:00:20.091,994.17,994.12,-4.88,-2.93,0.00,2.85,0.03,8.87,-0.00,0.00,0.00,0.00
2026-06-26 19:00:20.098,994.17,994.12,-4.88,-2.93,0.00,2.85,0.03,8.87,-0.00,0.00,0.00,0.00
2026-06-26 19:00:20.101,994.17,994.12,-4.88,-2.93,0.00,2.85,0.01,8.89,0.00,0.00,0.00,0.00
2026-06-26 19:00:20.104,994.17,994.12,-4.88,-2.93,0.00,2.85,0.01,8.89,0.00,0.00,0.00,0.00
2026-06-26 19:00:20.149,994.17,994.12,-5.06,-2.98,0.00,2.86,0.04,8.85,-0.00,-0.00,0.00,0.00
2026-06-26 19:00:20.192,994.17,994.12,-4.91,-2.93,0.00,2.87,0.01,8.87,-0.00,-0.00,0.00,0.00
2026-06-26 19:00:20.198,994.17,994.12,-4.91,-2.93,0.00,2.87,0.01,8.87,-0.00,-0.00,0.00,0.00
2026-06-26 19:00:20.200,994.17,994.12,-4.91,-2.93,0.00,2.86,0.04,8.88,-0.00,-0.00,0.00,0.00
2026-06-26 19:00:20.201,994.17,994.12,-4.91,-2.93,0.00,2.86,0.04,8.88,-0.00,-0.00,0.00,0.00
2026-06-26 19:00:20.204,994.17,994.12,-4.91,-2.93,0.00,2.86,0.04,8.88,-0.00,-0.00,0.00,0.00
2026-06-26 19:00:20.210,994.17,994.12,-4.91,-2.93,0.00,2.86,0.04,8.88,0.00,0.00,-0.00,0.00
2026-06-26 19:00:20.212,994.17,994.12,-4.91,-2.93,0.00,2.83,0.03,8.86,0.00,0.00,-0.00,0.00
2026-06-26 19:00:20.216,994.17,994.12,-4.91,-2.93,0.00,2.83,0.03,8.86,0.00,0.00,-0.00,0.00
2026-06-26 19:00:20.219,994.17,994.12,-4.91,-2.93,0.00,2.84,0.01,8.85,0.00,0.00,0.00,0.00
2026-06-26 19:00:20.220,994.17,994.12,-4.91,-2.93,0.00,2.84,0.01,8.85,0.00,0.00,0.00,0.00
2026-06-26 19:00:20.222,994.17,994.12,-4.91,-2.93,0.00,2.84,0.01,8.85,0.00,0.00,0.00,0.00
2026-06-26 19:00:20.223,994.17,994.12,-4.91,-2.93,0.00,2.84,0.01,8.85,0.00,0.00,0.00,0.00
2026-06-26 19:00:20.228,994.17,994.12,-4.91,-2.93,0.00,2.84,0.01,8.85,0.00,0.00,0.00,0.00
2026-06-26 19:00:20.230,994.17,994.12,-4.91,-2.93,0.00,2.85,0.02,8.88,-0.00,-0.00,0.00,0.00
2026-06-26 19:00:20.232,994.17,994.12,-4.91,-2.93,0.00,2.85,0.02,8.88,-0.00,-0.00,0.00,0.00
2026-06-26 19:00:20.234,994.17,994.12,-4.91,-2.93,0.00,2.85,0.02,8.88,-0.00,-0.00,0.00,0.00
2026-06-26 19:00:20.235,994.17,994.12,-4.91,-2.93,0.00,2.85,0.02,8.88,-0.00,-0.00,0.00,0.00
2026-06-26 19:00:20.238,994.17,994.12,-4.91,-2.93,0.00,2.85,0.02,8.88,0.00,0.00,0.00,0.00
2026-06-26 19:00:20.240,994.17,994.12,-4.91,-2.93,0.00,2.87,0.01,8.85,0.00,0.00,0.00,0.00
2026-06-26 19:00:20.241,994.17,994.12,-4.91,-2.93,0.00,2.87,0.01,8.85,0.00,0.00,0.00,0.00
2026-06-26 19:00:20.242,994.17,994.12,-4.91,-2.93,0.00,2.87,0.01,8.85,0.00,0.00,0.00,0.00
2026-06-26 19:00:20.245,994.17,994.12,-4.91,-2.93,0.00,2.87,0.01,8.85,0.00,0.00,0.00,0.00
2026-06-26 19:00:20.249,994.17,994.12,-4.91,-2.93,0.00,2.87,0.01,8.85,-0.00,0.00,0.00,0.00
2026-06-26 19:00:20.290,994.17,994.12,-5.02,-2.97,0.00,2.87,0.02,8.86,0.00,-0.00,0.00,0.00
2026-06-26 19:00:20.331,994.16,994.12,-4.76,-2.89,0.00,2.84,0.02,8.84,0.00,0.00,0.00,0.00
2026-06-26 19:00:20.333,994.16,994.12,-4.76,-2.89,0.00,2.84,0.02,8.84,0.00,0.00,0.00,0.00
2026-06-26 19:00:20.334,994.16,994.12,-4.76,-2.89,0.00,2.84,0.02,8.84,0.00,0.00,0.00,0.00
2026-06-26 19:00:20.335,994.16,994.12,-4.76,-2.89,0.00,2.84,0.02,8.84,0.00,0.00,0.00,0.00
2026-06-26 19:00:20.339,994.16,994.12,-4.76,-2.89,0.00,2.84,0.02,8.84,-0.00,0.00,-0.00,0.00
2026-06-26 19:00:20.341,994.16,994.12,-4.76,-2.89,0.00,2.87,0.02,8.85,-0.00,0.00,-0.00,0.00
2026-06-26 19:00:20.342,994.16,994.12,-4.76,-2.89,0.00,2.87,0.02,8.85,-0.00,0.00,-0.00,0.00
2026-06-26 19:00:20.343,994.16,994.12,-4.76,-2.89,0.00,2.87,0.02,8.85,-0.00,0.00,-0.00,0.00
2026-06-26 19:00:20.348,994.16,994.12,-4.76,-2.89,0.00,2.87,0.02,8.85,-0.00,0.00,-0.00,0.00
2026-06-26 19:00:20.350,994.16,994.12,-4.76,-2.89,0.00,2.85,0.02,8.88,0.00,0.00,0.00,0.00
2026-06-26 19:00:20.351,994.16,994.12,-4.76,-2.89,0.00,2.85,0.02,8.88,0.00,0.00,0.00,0.00
2026-06-26 19:00:20.352,994.16,994.12,-4.76,-2.89,0.00,2.85,0.02,8.88,0.00,0.00,0.00,0.00
2026-06-26 19:00:20.353,994.16,994.12,-4.76,-2.89,0.00,2.85,0.02,8.88,0.00,0.00,0.00,0.00
2026-06-26 19:00:20.358,994.16,994.12,-4.76,-2.89,0.00,2.85,0.02,8.88,0.00,0.00,0.00,0.00
2026-06-26 19:00:20.360,994.16,994.12,-4.76,-2.89,0.00,2.85,0.03,8.83,-0.00,0.00,-0.00,0.00
2026-06-26 19:00:20.361,994.16,994.12,-4.76,-2.89,0.00,2.85,0.03,8.83,-0.00,0.00,-0.00,0.00
2026-06-26 19:00:20.362,994.16,994.12,-4.76,-2.89,0.00,2.85,0.03,8.83,-0.00,0.00,-0.00,0.00
2026-06-26 19:00:20.365,994.16,994.12,-4.76,-2.89,0.00,2.85,0.03,8.83,-0.00,0.00,-0.00,0.00
2026-06-26 19:00:20.369,994.16,994.12,-4.76,-2.89,0.00,2.85,0.03,8.83,0.00,0.00,-0.00,0.00
2026-06-26 19:00:20.370,994.16,994.12,-4.76,-2.89,0.00,2.86,0.02,8.86,0.00,0.00,-0.00,0.00
2026-06-26 19:00:20.372,994.16,994.12,-4.76,-2.89,0.00,2.86,0.02,8.86,0.00,0.00,-0.00,0.00
2026-06-26 19:00:20.373,994.16,994.12,-4.76,-2.89,0.00,2.86,0.02,8.86,0.00,0.00,-0.00,0.00
2026-06-26 19:00:20.376,994.16,994.12,-4.76,-2.89,0.00,2.86,0.02,8.86,0.00,0.00,-0.00,0.00
2026-06-26 19:00:20.380,994.16,994.12,-4.76,-2.89,0.00,2.86,0.02,8.86,0.00,0.00,0.00,0.00
2026-06-26 19:00:20.382,994.16,994.12,-4.76,-2.89,0.00,2.85,0.02,8.83,0.00,0.00,0.00,0.00
2026-06-26 19:00:20.383,994.16,994.12,-4.76,-2.89,0.00,2.85,0.02,8.83,0.00,0.00,0.00,0.00
2026-06-26 19:00:20.384,994.16,994.12,-4.76,-2.89,0.00,2.85,0.02,8.83,0.00,0.00,0.00,0.00
2026-06-26 19:00:20.385,994.16,994.12,-4.76,-2.89,0.00,2.85,0.02,8.83,0.00,0.00,0.00,0.00
2026-06-26 19:00:20.389,994.16,994.12,-4.76,-2.89,0.00,2.85,0.02,8.83,0.00,0.00,0.00,0.00
2026-06-26 19:00:20.430,994.16,994.12,-4.55,-2.83,0.00,2.84,0.03,8.85,-0.00,-0.00,0.00,0.00
2026-06-26 19:00:20.480,994.16,994.12,-4.49,-2.81,0.00,2.87,0.01,8.87,-0.00,0.00,0.00,0.00
2026-06-26 19:00:20.482,994.16,994.12,-4.49,-2.81,0.00,2.86,0.03,8.88,-0.00,0.00,0.00,0.00
2026-06-26 19:00:20.484,994.16,994.12,-4.49,-2.81,0.00,2.86,0.03,8.88,-0.00,0.00,0.00,0.00
2026-06-26 19:00:20.485,994.16,994.12,-4.49,-2.81,0.00,2.86,0.03,8.88,-0.00,0.00,0.00,0.00
2026-06-26 19:00:20.487,994.16,994.12,-4.49,-2.81,0.00,2.86,0.03,8.88,-0.00,0.00,0.00,0.00
2026-06-26 19:00:20.489,994.16,994.12,-4.49,-2.81,0.00,2.86,0.03,8.88,0.00,0.00,-0.00,0.00
2026-06-26 19:00:20.491,994.16,994.12,-4.49,-2.81,0.00,2.85,0.04,8.87,0.00,0.00,-0.00,0.00
2026-06-26 19:00:20.492,994.16,994.12,-4.49,-2.81,0.00,2.85,0.04,8.87,0.00,0.00,-0.00,0.00
2026-06-26 19:00:20.497,994.16,994.12,-4.49,-2.81,0.00,2.85,0.04,8.87,0.00,0.00,-0.00,0.00
2026-06-26 19:00:20.500,994.16,994.12,-4.49,-2.81,0.00,2.85,0.04,8.87,0.00,0.00,-0.00,0.00
2026-06-26 19:00:20.502,994.16,994.12,-4.49,-2.81,0.00,2.85,0.02,8.83,0.00,0.00,-0.00,0.00
2026-06-26 19:00:20.506,994.16,994.12,-4.49,-2.81,0.00,2.85,0.02,8.83,0.00,0.00,-0.00,0.00
2026-06-26 19:00:20.509,994.16,994.12,-4.49,-2.81,0.00,2.85,0.02,8.83,-0.00,0.00,0.00,0.00
2026-06-26 19:00:20.511,994.16,994.12,-4.49,-2.81,0.00,2.86,0.04,8.86,-0.00,0.00,0.00,0.00
2026-06-26 19:00:20.513,994.16,994.12,-4.49,-2.81,0.00,2.86,0.04,8.86,-0.00,0.00,0.00,0.00
2026-06-26 19:00:20.516,994.16,994.12,-4.49,-2.81,0.00,2.86,0.04,8.86,-0.00,0.00,0.00,0.00
2026-06-26 19:00:20.519,994.16,994.12,-4.49,-2.81,0.00,2.86,0.04,8.86,-0.00,-0.00,0.00,0.00
2026-06-26 19:00:20.521,994.16,994.12,-4.49,-2.81,0.00,2.86,0.02,8.86,-0.00,-0.00,0.00,0.00
2026-06-26 19:00:20.522,994.16,994.12,-4.49,-2.81,0.00,2.86,0.02,8.86,-0.00,-0.00,0.00,0.00
2026-06-26 19:00:20.523,994.16,994.12,-4.49,-2.81,0.00,2.86,0.02,8.86,-0.00,-0.00,0.00,0.00
2026-06-26 19:00:20.527,994.16,994.12,-4.49,-2.81,0.00,2.86,0.02,8.86,-0.00,-0.00,0.00,0.00
2026-06-26 19:00:20.530,994.16,994.12,-4.49,-2.81,0.00,2.86,0.02,8.86,0.00,-0.00,0.00,0.00
2026-06-26 19:00:20.570,994.16,994.12,-4.06,-2.67,0.00,2.87,0.04,8.83,-0.00,0.00,0.00,0.00
2026-06-26 19:00:20.572,994.16,994.12,-4.06,-2.67,0.00,2.86,0.02,8.84,-0.00,0.00,0.00,0.00
2026-06-26 19:00:20.574,994.16,994.12,-4.06,-2.67,0.00,2.86,0.02,8.84,-0.00,0.00,0.00,0.00
2026-06-26 19:00:20.612,994.16,994.12,-3.97,-2.64,0.00,2.86,0.04,8.85,-0.00,-0.00,0.00,0.00
2026-06-26 19:00:20.613,994.16,994.12,-3.97,-2.64,0.00,2.86,0.04,8.85,-0.00,-0.00,0.00,0.00
2026-06-26 19:00:20.618,994.16,994.12,-3.97,-2.64,0.00,2.86,0.04,8.85,-0.00,-0.00,0.00,0.00
2026-06-26 19:00:20.620,994.16,994.12,-3.97,-2.64,0.00,2.85,0.04,8.84,-0.00,0.00,0.00,0.00
2026-06-26 19:00:20.621,994.16,994.12,-3.97,-2.64,0.00,2.85,0.04,8.84,-0.00,0.00,0.00,0.00
2026-06-26 19:00:20.622,994.16,994.12,-3.97,-2.64,0.00,2.85,0.04,8.84,-0.00,0.00,0.00,0.00
2026-06-26 19:00:20.623,994.16,994.12,-3.97,-2.64,0.00,2.85,0.04,8.84,-0.00,0.00,0.00,0.00
2026-06-26 19:00:20.627,994.16,994.12,-3.97,-2.64,0.00,2.85,0.04,8.84,-0.00,0.00,0.00,0.00
2026-06-26 19:00:20.630,994.16,994.12,-3.97,-2.64,0.00,2.85,0.04,8.84,0.00,0.00,-0.00,0.00
2026-06-26 19:00:20.631,994.16,994.12,-3.97,-2.64,0.00,2.83,0.05,8.86,0.00,0.00,-0.00,0.00
2026-06-26 19:00:20.632,994.16,994.12,-3.97,-2.64,0.00,2.83,0.05,8.86,0.00,0.00,-0.00,0.00
2026-06-26 19:00:20.633,994.16,994.12,-3.97,-2.64,0.00,2.83,0.05,8.86,0.00,0.00,-0.00,0.00
2026-06-26 19:00:20.634,994.16,994.12,-3.97,-2.64,0.00,2.83,0.05,8.86,0.00,0.00,-0.00,0.00
2026-06-26 19:00:20.636,994.16,994.12,-3.97,-2.64,0.00,2.83,0.05,8.86,0.00,0.00,-0.00,0.00
2026-06-26 19:00:20.637,994.16,994.12,-3.97,-2.64,0.00,2.83,0.05,8.86,0.00,0.00,-0.00,0.00
2026-06-26 19:00:20.639,994.16,994.12,-3.97,-2.64,0.00,2.83,0.05,8.86,0.00,0.00,-0.00,0.00
2026-06-26 19:00:20.640,994.16,994.12,-3.97,-2.64,0.00,2.84,0.05,8.87,0.00,0.01,-0.00,0.00
2026-06-26 19:00:20.641,994.16,994.12,-3.97,-2.64,0.00,2.84,0.05,8.87,0.00,0.01,-0.00,0.00
2026-06-26 19:00:20.642,994.16,994.12,-3.97,-2.64,0.00,2.84,0.05,8.87,0.00,0.01,-0.00,0.00
2026-06-26 19:00:20.644,994.16,994.12,-3.97,-2.64,0.00,2.84,0.05,8.87,0.00,0.01,-0.00,0.00
2026-06-26 19:00:20.647,994.16,994.12,-3.97,-2.64,0.00,2.84,0.05,8.87,0.00,0.01,-0.00,0.00
2026-06-26 19:00:20.650,994.16,994.12,-3.97,-2.64,0.00,2.84,0.05,8.87,0.00,0.00,-0.00,0.00
2026-06-26 19:00:20.651,994.16,994.12,-3.97,-2.64,0.00,2.85,0.05,8.87,0.00,0.00,-0.00,0.00
2026-06-26 19:00:20.652,994.16,994.12,-3.97,-2.64,0.00,2.85,0.05,8.87,0.00,0.00,-0.00,0.00
2026-06-26 19:00:20.653,994.16,994.12,-3.97,-2.64,0.00,2.85,0.05,8.87,0.00,0.00,-0.00,0.00
2026-06-26 19:00:20.655,994.16,994.12,-3.97,-2.64,0.00,2.85,0.05,8.87,0.00,0.00,-0.00,0.00
2026-06-26 19:00:20.659,994.16,994.12,-3.97,-2.64,0.00,2.85,0.05,8.87,0.00,0.00,0.00,0.00
2026-06-26 19:00:20.661,994.16,994.12,-3.97,-2.64,0.00,2.86,0.03,8.86,0.00,0.00,0.00,0.00
2026-06-26 19:00:20.662,994.16,994.12,-3.97,-2.64,0.00,2.86,0.03,8.86,0.00,0.00,0.00,0.00
2026-06-26 19:00:20.663,994.16,994.12,-3.97,-2.64,0.00,2.86,0.03,8.86,0.00,0.00,0.00,0.00
2026-06-26 19:00:20.664,994.16,994.12,-3.97,-2.64,0.00,2.86,0.03,8.86,0.00,0.00,0.00,0.00
2026-06-26 19:00:20.669,994.16,994.12,-3.97,-2.64,0.00,2.86,0.03,8.86,0.00,0.00,0.00,0.00
2026-06-26 19:00:20.753,994.16,994.12,-4.34,-2.76,0.00,2.85,0.01,8.86,-0.00,-0.00,0.00,0.00
2026-06-26 19:00:20.756,994.16,994.12,-4.34,-2.76,0.00,2.85,0.01,8.86,-0.00,-0.00,0.00,0.00
2026-06-26 19:00:20.760,994.16,994.12,-4.34,-2.76,0.00,2.85,0.01,8.86,0.00,-0.00,0.00,0.00
2026-06-26 19:00:20.761,994.16,994.12,-4.34,-2.76,0.00,2.86,0.03,8.87,0.00,-0.00,0.00,0.00
2026-06-26 19:00:20.762,994.16,994.12,-4.34,-2.76,0.00,2.86,0.03,8.87,0.00,-0.00,0.00,0.00
2026-06-26 19:00:20.763,994.16,994.12,-4.34,-2.76,0.00,2.86,0.03,8.87,0.00,-0.00,0.00,0.00
2026-06-26 19:00:20.765,994.16,994.12,-4.34,-2.76,0.00,2.86,0.03,8.87,0.00,-0.00,0.00,0.00
2026-06-26 19:00:20.769,994.16,994.12,-4.34,-2.76,0.00,2.86,0.03,8.87,0.00,-0.00,0.00,0.00
2026-06-26 19:00:20.770,994.16,994.12,-4.34,-2.76,0.00,2.85,0.01,8.88,-0.00,-0.00,0.00,0.00
2026-06-26 19:00:20.772,994.16,994.12,-4.34,-2.76,0.00,2.85,0.01,8.88,-0.00,-0.00,0.00,0.00
2026-06-26 19:00:20.773,994.16,994.12,-4.34,-2.76,0.00,2.85,0.01,8.88,-0.00,-0.00,0.00,0.00
2026-06-26 19:00:20.774,994.16,994.12,-4.34,-2.76,0.00,2.85,0.01,8.88,-0.00,-0.00,0.00,0.00
2026-06-26 19:00:20.778,994.16,994.12,-4.34,-2.76,0.00,2.85,0.01,8.88,-0.00,-0.00,0.00,0.00
2026-06-26 19:00:20.780,994.16,994.12,-4.34,-2.76,0.00,2.85,0.01,8.88,0.00,-0.00,0.00,0.00
2026-06-26 19:00:20.781,994.16,994.12,-4.34,-2.76,0.00,2.86,0.02,8.85,0.00,-0.00,0.00,0.00
2026-06-26 19:00:20.783,994.16,994.12,-4.34,-2.76,0.00,2.86,0.02,8.85,0.00,-0.00,0.00,0.00
2026-06-26 19:00:20.784,994.16,994.12,-4.34,-2.76,0.00,2.86,0.02,8.85,0.00,-0.00,0.00,0.00
2026-06-26 19:00:20.785,994.16,994.12,-4.34,-2.76,0.00,2.86,0.02,8.85,0.00,-0.00,0.00,0.00
2026-06-26 19:00:20.788,994.16,994.12,-4.34,-2.76,0.00,2.86,0.02,8.85,0.00,-0.00,0.00,0.00
2026-06-26 19:00:20.790,994.16,994.12,-4.34,-2.76,0.00,2.86,0.02,8.85,0.00,0.00,-0.00,0.00
2026-06-26 19:00:20.791,994.16,994.12,-4.34,-2.76,0.00,2.86,0.04,8.87,0.00,0.00,-0.00,0.00
2026-06-26 19:00:20.792,994.16,994.12,-4.34,-2.76,0.00,2.86,0.04,8.87,0.00,0.00,-0.00,0.00
2026-06-26 19:00:20.794,994.16,994.12,-4.34,-2.76,0.00,2.86,0.04,8.87,0.00,0.00,-0.00,0.00
2026-06-26 19:00:20.795,994.16,994.12,-4.34,-2.76,0.00,2.86,0.04,8.87,0.00,0.00,-0.00,0.00
2026-06-26 19:00:20.801,994.16,994.12,-4.34,-2.76,0.00,2.86,0.04,8.87,0.00,0.00,0.00,0.00
2026-06-26 19:00:20.802,994.16,994.12,-4.34,-2.76,0.00,2.85,0.02,8.83,0.00,0.00,0.00,0.00
2026-06-26 19:00:20.804,994.16,994.12,-4.34,-2.76,0.00,2.85,0.02,8.83,0.00,0.00,0.00,0.00
2026-06-26 19:00:20.807,994.16,994.12,-4.34,-2.76,0.00,2.85,0.02,8.83,0.00,0.00,0.00,0.00
2026-06-26 19:00:20.810,994.16,994.12,-4.34,-2.76,0.00,2.85,0.02,8.83,0.00,-0.00,0.00,0.00
2026-06-26 19:00:20.811,994.16,994.12,-4.34,-2.76,0.00,2.86,0.06,8.84,0.00,-0.00,0.00,0.00
2026-06-26 19:00:20.893,994.16,994.12,-3.68,-2.54,0.00,2.84,0.03,8.84,0.00,-0.00,0.00,0.00
2026-06-26 19:00:20.894,994.16,994.12,-3.68,-2.54,0.00,2.84,0.03,8.84,0.00,-0.00,0.00,0.00
2026-06-26 19:00:20.900,994.16,994.12,-3.68,-2.54,0.00,2.84,0.03,8.84,0.00,-0.00,0.00,0.00
2026-06-26 19:00:20.901,994.16,994.12,-3.68,-2.54,0.00,2.86,0.02,8.85,0.00,-0.00,-0.00,0.00
2026-06-26 19:00:20.902,994.16,994.12,-3.68,-2.54,0.00,2.86,0.02,8.85,0.00,-0.00,-0.00,0.00
2026-06-26 19:00:20.903,994.16,994.12,-3.68,-2.54,0.00,2.86,0.02,8.85,0.00,-0.00,-0.00,0.00
2026-06-26 19:00:20.905,994.16,994.12,-3.68,-2.54,0.00,2.86,0.02,8.85,0.00,-0.00,-0.00,0.00
2026-06-26 19:00:20.910,994.16,994.12,-3.68,-2.54,0.00,2.86,0.02,8.85,0.00,-0.00,-0.00,0.00
2026-06-26 19:00:20.911,994.16,994.12,-3.68,-2.54,0.00,2.86,0.03,8.83,0.00,-0.00,0.00,0.00
2026-06-26 19:00:20.912,994.16,994.12,-3.68,-2.54,0.00,2.86,0.03,8.83,0.00,-0.00,0.00,0.00
2026-06-26 19:00:20.914,994.16,994.12,-3.68,-2.54,0.00,2.86,0.03,8.83,0.00,-0.00,0.00,0.00
2026-06-26 19:00:20.920,994.16,994.12,-3.68,-2.54,0.00,2.86,0.03,8.83,0.00,-0.00,0.00,0.00
2026-06-26 19:00:20.921,994.16,994.12,-3.68,-2.54,0.00,2.86,0.01,8.86,-0.00,-0.00,0.00,0.00
2026-06-26 19:00:20.922,994.16,994.12,-3.68,-2.54,0.00,2.86,0.01,8.86,-0.00,-0.00,0.00,0.00
2026-06-26 19:00:20.923,994.16,994.12,-3.68,-2.54,0.00,2.86,0.01,8.86,-0.00,-0.00,0.00,0.00
2026-06-26 19:00:20.925,994.16,994.12,-3.68,-2.54,0.00,2.86,0.01,8.86,-0.00,-0.00,0.00,0.00
2026-06-26 19:00:20.930,994.16,994.12,-3.68,-2.54,0.00,2.86,0.01,8.86,-0.00,-0.00,0.00,0.00
2026-06-26 19:00:20.931,994.16,994.12,-3.68,-2.54,0.00,2.84,0.04,8.86,0.00,-0.00,0.00,0.00
2026-06-26 19:00:20.932,994.16,994.12,-3.68,-2.54,0.00,2.84,0.04,8.86,0.00,-0.00,0.00,0.00
2026-06-26 19:00:20.933,994.16,994.12,-3.68,-2.54,0.00,2.84,0.04,8.86,0.00,-0.00,0.00,0.00
2026-06-26 19:00:20.935,994.16,994.12,-3.68,-2.54,0.00,2.84,0.04,8.86,0.00,-0.00,0.00,0.00
2026-06-26 19:00:20.936,994.16,994.12,-3.68,-2.54,0.00,2.84,0.04,8.86,0.00,-0.00,0.00,0.00
2026-06-26 19:00:20.937,994.16,994.12,-3.68,-2.54,0.00,2.84,0.04,8.86,0.00,-0.00,0.00,0.00
2026-06-26 19:00:20.938,994.16,994.12,-3.68,-2.54,0.00,2.84,0.04,8.86,0.00,-0.00,0.00,0.00
2026-06-26 19:00:20.940,994.16,994.12,-3.68,-2.54,0.00,2.84,0.00,8.90,-0.00,-0.00,0.00,0.00
2026-06-26 19:00:20.942,994.16,994.12,-3.68,-2.54,0.00,2.84,0.00,8.90,-0.00,-0.00,0.00,0.00
2026-06-26 19:00:20.944,994.16,994.12,-3.68,-2.54,0.00,2.84,0.00,8.90,-0.00,-0.00,0.00,0.00
2026-06-26 19:00:20.948,994.16,994.12,-3.68,-2.54,0.00,2.84,0.00,8.90,-0.00,-0.00,0.00,0.00
2026-06-26 19:00:20.950,994.16,994.12,-3.68,-2.54,0.00,2.84,0.00,8.90,0.00,-0.00,0.00,0.00
2026-06-26 19:00:20.952,994.16,994.12,-3.68,-2.54,0.00,2.86,0.03,8.87,0.00,-0.00,0.00,0.00
2026-06-26 19:00:21.033,994.16,994.12,-3.27,-2.39,0.00,2.85,0.03,8.86,0.00,-0.00,0.00,0.00
2026-06-26 19:00:21.034,994.16,994.12,-3.27,-2.39,0.00,2.85,0.03,8.86,0.00,-0.00,0.00,0.00
2026-06-26 19:00:21.036,994.16,994.12,-3.27,-2.39,0.00,2.85,0.03,8.86,0.00,-0.00,0.00,0.00
2026-06-26 19:00:21.037,994.16,994.12,-3.27,-2.39,0.00,2.85,0.03,8.86,0.00,-0.00,0.00,0.00
2026-06-26 19:00:21.040,994.16,994.12,-3.27,-2.39,0.00,2.85,0.03,8.86,0.00,-0.00,0.00,0.00
2026-06-26 19:00:21.041,994.16,994.12,-3.27,-2.39,0.00,2.87,0.04,8.88,0.00,0.00,0.00,0.00
2026-06-26 19:00:21.042,994.16,994.12,-3.27,-2.39,0.00,2.87,0.04,8.88,0.00,0.00,0.00,0.00
2026-06-26 19:00:21.044,994.16,994.12,-3.27,-2.39,0.00,2.87,0.04,8.88,0.00,0.00,0.00,0.00
2026-06-26 19:00:21.045,994.16,994.12,-3.27,-2.39,0.00,2.87,0.04,8.88,0.00,0.00,0.00,0.00
2026-06-26 19:00:21.050,994.16,994.12,-3.27,-2.39,0.00,2.87,0.04,8.88,0.00,0.00,0.00,0.00
2026-06-26 19:00:21.051,994.16,994.12,-3.27,-2.39,0.00,2.84,0.00,8.87,0.00,-0.00,-0.00,0.00
2026-06-26 19:00:21.052,994.16,994.12,-3.27,-2.39,0.00,2.84,0.00,8.87,0.00,-0.00,-0.00,0.00
2026-06-26 19:00:21.054,994.16,994.12,-3.27,-2.39,0.00,2.84,0.00,8.87,0.00,-0.00,-0.00,0.00
2026-06-26 19:00:21.057,994.16,994.12,-3.27,-2.39,0.00,2.84,0.00,8.87,0.00,-0.00,-0.00,0.00
2026-06-26 19:00:21.061,994.16,994.12,-3.27,-2.39,0.00,2.84,0.00,8.87,0.00,-0.00,0.00,0.00
2026-06-26 19:00:21.062,994.16,994.12,-3.27,-2.39,0.00,2.86,0.01,8.86,0.00,-0.00,0.00,0.00
2026-06-26 19:00:21.063,994.16,994.12,-3.27,-2.39,0.00,2.86,0.01,8.86,0.00,-0.00,0.00,0.00
2026-06-26 19:00:21.064,994.16,994.12,-3.27,-2.39,0.00,2.86,0.01,8.86,0.00,-0.00,0.00,0.00
2026-06-26 19:00:21.068,994.16,994.12,-3.27,-2.39,0.00,2.86,0.01,8.86,0.00,-0.00,0.00,0.00
2026-06-26 19:00:21.071,994.16,994.12,-3.27,-2.39,0.00,2.86,0.01,8.86,-0.00,-0.00,0.00,0.00
2026-06-26 19:00:21.072,994.16,994.12,-3.27,-2.39,0.00,2.83,0.03,8.88,-0.00,-0.00,0.00,0.00
2026-06-26 19:00:21.073,994.16,994.12,-3.27,-2.39,0.00,2.83,0.03,8.88,-0.00,-0.00,0.00,0.00
2026-06-26 19:00:21.080,994.16,994.12,-3.27,-2.39,0.00,2.83,0.03,8.88,-0.00,-0.00,0.00,0.00
2026-06-26 19:00:21.081,994.16,994.12,-3.27,-2.39,0.00,2.86,0.02,8.88,0.00,0.00,0.00,0.00
2026-06-26 19:00:21.084,994.16,994.12,-3.27,-2.39,0.00,2.86,0.02,8.88,0.00,0.00,0.00,0.00
2026-06-26 19:00:21.085,994.16,994.12,-3.27,-2.39,0.00,2.86,0.02,8.88,0.00,0.00,0.00,0.00
2026-06-26 19:00:21.086,994.16,994.12,-3.27,-2.39,0.00,2.86,0.02,8.88,0.00,0.00,0.00,0.00
2026-06-26 19:00:21.088,994.16,994.12,-3.27,-2.39,0.00,2.86,0.02,8.88,0.00,0.00,0.00,0.00
2026-06-26 19:00:21.090,994.16,994.12,-3.27,-2.39,0.00,2.86,0.02,8.88,-0.00,-0.00,0.00,0.00
2026-06-26 19:00:21.092,994.16,994.12,-3.27,-2.39,0.00,2.86,0.00,8.87,-0.00,-0.00,0.00,0.00
2026-06-26 19:00:21.173,994.15,994.13,-2.18,-1.96,0.00,2.98,0.03,9.31,0.00,0.00,0.00,0.00
2026-06-26 19:00:21.179,994.15,994.13,-2.18,-1.96,0.00,2.98,0.03,9.31,0.00,0.00,0.00,0.00
2026-06-26 19:00:21.181,994.15,994.13,-2.18,-1.96,0.00,2.98,0.05,9.31,0.00,-0.00,0.00,0.00
2026-06-26 19:00:21.184,994.15,994.13,-2.18,-1.96,0.00,2.98,0.05,9.31,0.00,-0.00,0.00,0.00
2026-06-26 19:00:21.185,994.15,994.13,-2.18,-1.96,0.00,2.98,0.05,9.31,0.00,-0.00,0.00,0.00
2026-06-26 19:00:21.187,994.15,994.13,-2.18,-1.96,0.00,2.98,0.05,9.31,0.00,-0.00,0.00,0.00
2026-06-26 19:00:21.188,994.15,994.13,-2.18,-1.96,0.00,2.98,0.05,9.31,0.00,-0.00,0.00,0.00
2026-06-26 19:00:21.191,994.15,994.13,-2.18,-1.96,0.00,3.00,0.04,9.30,-0.00,0.00,0.00,0.00
2026-06-26 19:00:21.192,994.15,994.13,-2.18,-1.96,0.00,3.00,0.04,9.30,-0.00,0.00,0.00,0.00
2026-06-26 19:00:21.194,994.15,994.13,-2.18,-1.96,0.00,3.00,0.04,9.30,-0.00,0.00,0.00,0.00
2026-06-26 19:00:21.195,994.15,994.13,-2.18,-1.96,0.00,3.00,0.04,9.30,-0.00,0.00,0.00,0.00
2026-06-26 19:00:21.200,994.15,994.13,-2.18,-1.96,0.00,3.00,0.04,9.30,-0.00,0.00,0.00,0.00
2026-06-26 19:00:21.201,994.15,994.13,-2.18,-1.96,0.00,2.98,0.02,9.29,-0.00,-0.00,-0.00,0.00
2026-06-26 19:00:21.203,994.15,994.13,-2.18,-1.96,0.00,2.98,0.02,9.29,-0.00,-0.00,-0.00,0.00
2026-06-26 19:00:21.204,994.15,994.13,-2.18,-1.96,0.00,2.98,0.02,9.29,-0.00,-0.00,-0.00,0.00
2026-06-26 19:00:21.206,994.15,994.13,-2.18,-1.96,0.00,2.98,0.02,9.29,-0.00,-0.00,-0.00,0.00
2026-06-26 19:00:21.210,994.15,994.13,-2.18,-1.96,0.00,2.98,0.02,9.29,-0.00,-0.00,-0.00,0.00
2026-06-26 19:00:21.212,994.15,994.13,-2.18,-1.96,0.00,2.99,0.03,9.29,0.00,0.00,-0.00,0.00
2026-06-26 19:00:21.213,994.15,994.13,-2.18,-1.96,0.00,2.99,0.03,9.29,0.00,0.00,-0.00,0.00
2026-06-26 19:00:21.214,994.15,994.13,-2.18,-1.96,0.00,2.99,0.03,9.29,0.00,0.00,-0.00,0.00
2026-06-26 19:00:21.215,994.15,994.13,-2.18,-1.96,0.00,2.99,0.03,9.29,0.00,0.00,-0.00,0.00
2026-06-26 19:00:21.218,994.15,994.13,-2.18,-1.96,0.00,2.99,0.03,9.29,0.00,0.00,-0.00,0.00
2026-06-26 19:00:21.221,994.15,994.13,-2.18,-1.96,0.00,2.99,0.03,9.29,0.00,-0.00,0.00,0.00
2026-06-26 19:00:21.222,994.15,994.13,-2.18,-1.96,0.00,3.00,0.02,9.30,0.00,-0.00,0.00,0.00
2026-06-26 19:00:21.223,994.15,994.13,-2.18,-1.96,0.00,3.00,0.02,9.30,0.00,-0.00,0.00,0.00
2026-06-26 19:00:21.225,994.15,994.13,-2.18,-1.96,0.00,3.00,0.02,9.30,0.00,-0.00,0.00,0.00
2026-06-26 19:00:21.229,994.15,994.13,-2.18,-1.96,0.00,3.00,0.02,9.30,0.00,-0.00,0.00,0.00
2026-06-26 19:00:21.231,994.15,994.13,-2.18,-1.96,0.00,3.00,0.02,9.30,0.00,-0.00,0.00,0.00
2026-06-26 19:00:21.233,994.15,994.13,-2.18,-1.96,0.00,3.01,0.01,9.29,0.00,-0.00,0.00,0.00
2026-06-26 19:00:21.312,994.15,994.13,-1.57,-1.66,0.00,2.97,0.05,9.29,-0.00,0.00,0.00,0.00
2026-06-26 19:00:21.315,994.15,994.13,-1.57,-1.66,0.00,2.97,0.05,9.29,-0.00,0.00,0.00,0.00
2026-06-26 19:00:21.321,994.15,994.13,-1.57,-1.66,0.00,2.97,0.05,9.29,-0.00,0.00,0.00,0.00
2026-06-26 19:00:21.322,994.15,994.13,-1.57,-1.66,0.00,3.00,0.02,9.31,0.00,0.00,-0.00,0.00
2026-06-26 19:00:21.324,994.15,994.13,-1.57,-1.66,0.00,3.00,0.02,9.31,0.00,0.00,-0.00,0.00
2026-06-26 19:00:21.328,994.15,994.13,-1.57,-1.66,0.00,3.00,0.02,9.31,0.00,0.00,-0.00,0.00
2026-06-26 19:00:21.332,994.15,994.13,-1.57,-1.66,0.00,2.98,0.02,9.32,0.00,0.00,-0.00,0.00
2026-06-26 19:00:21.334,994.15,994.13,-1.57,-1.66,0.00,2.98,0.02,9.32,0.00,0.00,-0.00,0.00
2026-06-26 19:00:21.336,994.15,994.13,-1.57,-1.66,0.00,2.98,0.02,9.32,0.00,0.00,-0.00,0.00
2026-06-26 19:00:21.338,994.15,994.13,-1.57,-1.66,0.00,2.98,0.02,9.32,0.00,0.00,-0.00,0.00
2026-06-26 19:00:21.342,994.15,994.13,-1.57,-1.66,0.00,2.99,0.02,9.30,0.00,0.00,-0.00,0.00
2026-06-26 19:00:21.344,994.15,994.13,-1.57,-1.66,0.00,2.99,0.02,9.30,0.00,0.00,-0.00,0.00
2026-06-26 19:00:21.351,994.15,994.13,-1.57,-1.66,0.00,2.99,0.02,9.30,0.00,0.00,-0.00,0.00
2026-06-26 19:00:21.353,994.15,994.13,-1.57,-1.66,0.00,3.00,0.04,9.30,0.00,-0.00,0.00,0.00
2026-06-26 19:00:21.357,994.15,994.13,-1.57,-1.66,0.00,3.00,0.04,9.30,0.00,-0.00,0.00,0.00
2026-06-26 19:00:21.361,994.15,994.13,-1.57,-1.66,0.00,3.00,0.04,9.30,0.00,0.00,0.00,0.00
2026-06-26 19:00:21.363,994.15,994.13,-1.57,-1.66,0.00,3.00,0.03,9.28,0.00,0.00,0.00,0.00
2026-06-26 19:00:21.365,994.15,994.13,-1.57,-1.66,0.00,3.00,0.03,9.28,0.00,0.00,0.00,0.00
2026-06-26 19:00:21.371,994.15,994.13,-1.57,-1.66,0.00,3.00,0.03,9.28,0.00,0.00,0.00,0.00
2026-06-26 19:00:21.461,994.15,994.13,-1.47,-1.61,0.00,2.99,0.04,9.29,-0.00,-0.00,0.00,0.00
2026-06-26 19:00:21.464,994.15,994.13,-1.47,-1.61,0.00,3.00,0.03,9.25,0.00,-0.00,0.00,0.00
2026-06-26 19:00:21.467,994.15,994.13,-1.47,-1.61,0.00,3.00,0.03,9.25,0.00,-0.00,0.00,0.00
2026-06-26 19:00:21.471,994.15,994.13,-1.47,-1.61,0.00,3.00,0.03,9.25,0.00,-0.00,0.00,0.00
2026-06-26 19:00:21.473,994.15,994.13,-1.47,-1.61,0.00,3.00,0.02,9.29,0.00,-0.00,0.00,0.00
2026-06-26 19:00:21.475,994.15,994.13,-1.47,-1.61,0.00,3.00,0.02,9.29,0.00,-0.00,0.00,0.00
2026-06-26 19:00:21.480,994.15,994.13,-1.47,-1.61,0.00,3.00,0.02,9.29,0.00,-0.00,0.00,0.00
2026-06-26 19:00:21.482,994.15,994.13,-1.47,-1.61,0.00,2.98,0.04,9.28,0.00,0.00,0.00,0.00
2026-06-26 19:00:21.484,994.15,994.13,-1.47,-1.61,0.00,2.98,0.04,9.28,0.00,0.00,0.00,0.00
2026-06-26 19:00:21.486,994.15,994.13,-1.47,-1.61,0.00,2.98,0.04,9.28,0.00,0.00,0.00,0.00
2026-06-26 19:00:21.487,994.15,994.13,-1.47,-1.61,0.00,2.98,0.04,9.28,0.00,0.00,0.00,0.00
2026-06-26 19:00:21.490,994.15,994.13,-1.47,-1.61,0.00,2.98,0.04,9.28,0.00,0.00,0.00,0.00
2026-06-26 19:00:21.492,994.15,994.13,-1.47,-1.61,0.00,2.99,0.01,9.30,0.00,-0.00,0.00,0.00
2026-06-26 19:00:21.494,994.15,994.13,-1.47,-1.61,0.00,2.99,0.01,9.30,0.00,-0.00,0.00,0.00
2026-06-26 19:00:21.501,994.15,994.13,-1.47,-1.61,0.00,2.99,0.01,9.30,0.00,-0.00,0.00,0.00
2026-06-26 19:00:21.503,994.15,994.13,-1.47,-1.61,0.00,3.00,0.02,9.29,0.00,-0.00,-0.00,0.00
2026-06-26 19:00:21.505,994.15,994.13,-1.47,-1.61,0.00,3.00,0.02,9.29,0.00,-0.00,-0.00,0.00
2026-06-26 19:00:21.510,994.15,994.13,-1.47,-1.61,0.00,3.00,0.02,9.29,0.00,-0.00,-0.00,0.00
2026-06-26 19:00:21.512,994.15,994.13,-1.47,-1.61,0.00,2.99,0.05,9.30,0.00,0.00,0.00,0.00
2026-06-26 19:00:21.514,994.15,994.13,-1.47,-1.61,0.00,2.99,0.05,9.30,0.00,0.00,0.00,0.00
2026-06-26 19:00:21.515,994.15,994.13,-1.47,-1.61,0.00,2.99,0.05,9.30,0.00,0.00,0.00,0.00
2026-06-26 19:00:21.602,994.15,994.14,-1.31,-1.51,0.00,2.98,0.03,9.29,0.00,0.00,0.00,0.00
2026-06-26 19:00:21.604,994.15,994.14,-1.31,-1.51,0.00,2.98,0.03,9.29,0.00,0.00,0.00,0.00
2026-06-26 19:00:21.605,994.15,994.14,-1.31,-1.51,0.00,2.98,0.03,9.29,0.00,0.00,0.00,0.00
2026-06-26 19:00:21.611,994.15,994.14,-1.31,-1.51,0.00,2.98,0.03,9.29,0.00,0.00,0.00,0.00
2026-06-26 19:00:21.614,994.15,994.14,-1.31,-1.51,0.00,2.98,0.05,9.28,-0.00,0.00,-0.00,0.00
2026-06-26 19:00:21.619,994.15,994.14,-1.31,-1.51,0.00,2.98,0.05,9.28,-0.00,0.00,-0.00,0.00
2026-06-26 19:00:21.624,994.15,994.14,-1.31,-1.51,0.00,3.00,0.04,9.29,-0.00,0.00,0.00,0.00
2026-06-26 19:00:21.627,994.15,994.14,-1.31,-1.51,0.00,3.00,0.04,9.29,-0.00,0.00,0.00,0.00
2026-06-26 19:00:21.632,994.15,994.14,-1.31,-1.51,0.00,3.00,0.04,9.29,-0.00,0.00,0.00,0.00
2026-06-26 19:00:21.633,994.15,994.14,-1.31,-1.51,0.00,3.01,0.04,9.30,0.00,0.00,-0.00,0.00
2026-06-26 19:00:21.635,994.15,994.14,-1.31,-1.51,0.00,3.01,0.04,9.30,0.00,0.00,-0.00,0.00
2026-06-26 19:00:21.637,994.15,994.14,-1.31,-1.51,0.00,3.01,0.04,9.30,0.00,0.00,-0.00,0.00
2026-06-26 19:00:21.638,994.15,994.14,-1.31,-1.51,0.00,3.01,0.04,9.30,0.00,0.00,-0.00,0.00
2026-06-26 19:00:21.642,994.15,994.14,-1.31,-1.51,0.00,3.01,0.04,9.30,0.00,-0.00,0.00,0.00
2026-06-26 19:00:21.643,994.15,994.14,-1.31,-1.51,0.00,2.98,0.00,9.30,0.00,-0.00,0.00,0.00
2026-06-26 19:00:21.645,994.15,994.14,-1.31,-1.51,0.00,2.98,0.00,9.30,0.00,-0.00,0.00,0.00
2026-06-26 19:00:21.650,994.15,994.14,-1.31,-1.51,0.00,2.98,0.00,9.30,0.00,-0.00,0.00,0.00
2026-06-26 19:00:21.652,994.15,994.14,-1.31,-1.51,0.00,3.00,0.02,9.30,-0.00,-0.00,-0.00,0.00
2026-06-26 19:00:21.654,994.15,994.14,-1.31,-1.51,0.00,3.00,0.02,9.30,-0.00,-0.00,-0.00,0.00
2026-06-26 19:00:21.656,994.15,994.14,-1.31,-1.51,0.00,3.00,0.02,9.30,-0.00,-0.00,-0.00,0.00
2026-06-26 19:00:21.661,994.15,994.14,-1.31,-1.51,0.00,3.00,0.02,9.30,-0.00,-0.00,-0.00,0.00
2026-06-26 19:00:21.742,994.14,994.13,-0.70,-1.11,0.00,3.01,0.02,9.29,0.00,-0.00,-0.00,0.00
2026-06-26 19:00:21.744,994.14,994.13,-0.70,-1.11,0.00,3.01,0.01,9.30,0.00,-0.00,-0.00,0.00
2026-06-26 19:00:21.746,994.14,994.13,-0.70,-1.11,0.00,3.01,0.01,9.30,0.00,-0.00,-0.00,0.00
2026-06-26 19:00:21.751,994.14,994.13,-0.70,-1.11,0.00,3.01,0.01,9.30,0.00,-0.00,-0.00,0.00
2026-06-26 19:00:21.753,994.14,994.13,-0.70,-1.11,0.00,3.00,0.05,9.29,-0.00,-0.00,0.00,0.00
2026-06-26 19:00:21.755,994.14,994.13,-0.70,-1.11,0.00,3.00,0.05,9.29,-0.00,-0.00,0.00,0.00
2026-06-26 19:00:21.758,994.14,994.13,-0.70,-1.11,0.00,3.00,0.05,9.29,-0.00,-0.00,0.00,0.00
2026-06-26 19:00:21.762,994.14,994.13,-0.70,-1.11,0.00,3.00,0.05,9.29,0.00,0.00,0.00,0.00
2026-06-26 19:00:21.764,994.14,994.13,-0.70,-1.11,0.00,3.00,0.02,9.29,0.00,0.00,0.00,0.00
2026-06-26 19:00:21.766,994.14,994.13,-0.70,-1.11,0.00,3.00,0.02,9.29,0.00,0.00,0.00,0.00
2026-06-26 19:00:21.771,994.14,994.13,-0.70,-1.11,0.00,3.00,0.02,9.29,0.00,0.00,0.00,0.00
2026-06-26 19:00:21.773,994.14,994.13,-0.70,-1.11,0.00,2.99,0.03,9.29,0.00,0.00,0.00,0.00
2026-06-26 19:00:21.774,994.14,994.13,-0.70,-1.11,0.00,2.99,0.03,9.29,0.00,0.00,0.00,0.00
2026-06-26 19:00:21.776,994.14,994.13,-0.70,-1.11,0.00,2.99,0.03,9.29,0.00,0.00,0.00,0.00
2026-06-26 19:00:21.782,994.14,994.13,-0.70,-1.11,0.00,2.99,0.03,9.29,0.00,0.00,0.00,0.00
2026-06-26 19:00:21.783,994.14,994.13,-0.70,-1.11,0.00,2.99,0.02,9.30,0.00,-0.00,-0.00,0.00
2026-06-26 19:00:21.785,994.14,994.13,-0.70,-1.11,0.00,2.99,0.02,9.30,0.00,-0.00,-0.00,0.00
2026-06-26 19:00:21.787,994.14,994.13,-0.70,-1.11,0.00,2.99,0.02,9.30,0.00,-0.00,-0.00,0.00
2026-06-26 19:00:21.789,994.14,994.13,-0.70,-1.11,0.00,2.99,0.02,9.30,0.00,-0.00,-0.00,0.00
2026-06-26 19:00:21.808,994.14,994.13,-0.70,-1.11,0.00,3.00,0.04,9.32,0.00,0.00,0.00,0.00
2026-06-26 19:00:21.893,994.15,994.13,-1.29,-1.51,0.00,2.99,0.04,9.30,0.00,0.00,0.00,0.00
2026-06-26 19:00:21.895,994.15,994.13,-1.29,-1.51,0.00,2.99,0.04,9.30,0.00,0.00,0.00,0.00
2026-06-26 19:00:21.896,994.15,994.13,-1.29,-1.51,0.00,2.99,0.04,9.30,0.00,0.00,0.00,0.00
2026-06-26 19:00:21.902,994.15,994.13,-1.29,-1.51,0.00,2.99,0.04,9.30,0.00,0.00,0.00,0.00
2026-06-26 19:00:21.903,994.15,994.13,-1.29,-1.51,0.00,3.00,0.01,9.28,0.00,0.00,0.00,0.00
2026-06-26 19:00:21.905,994.15,994.13,-1.29,-1.51,0.00,3.00,0.01,9.28,0.00,0.00,0.00,0.00
2026-06-26 19:00:21.907,994.15,994.13,-1.29,-1.51,0.00,3.00,0.01,9.28,0.00,0.00,0.00,0.00
2026-06-26 19:00:21.912,994.15,994.13,-1.29,-1.51,0.00,3.00,0.01,9.28,0.00,0.00,0.00,0.00
2026-06-26 19:00:21.914,994.15,994.13,-1.29,-1.51,0.00,2.99,0.03,9.25,-0.00,0.00,0.00,0.00
2026-06-26 19:00:21.915,994.15,994.13,-1.29,-1.51,0.00,2.99,0.03,9.25,-0.00,0.00,0.00,0.00
2026-06-26 19:00:21.917,994.15,994.13,-1.29,-1.51,0.00,2.99,0.03,9.25,-0.00,0.00,0.00,0.00
2026-06-26 19:00:21.920,994.15,994.13,-1.29,-1.51,0.00,2.99,0.03,9.25,-0.00,0.00,0.00,0.00
2026-06-26 19:00:21.923,994.15,994.13,-1.29,-1.51,0.00,2.99,0.03,9.25,0.00,-0.00,0.00,0.00
2026-06-26 19:00:21.924,994.15,994.13,-1.29,-1.51,0.00,2.99,0.04,9.26,0.00,-0.00,0.00,0.00
2026-06-26 19:00:21.926,994.15,994.13,-1.29,-1.51,0.00,2.99,0.04,9.26,0.00,-0.00,0.00,0.00
2026-06-26 19:00:21.930,994.15,994.13,-1.29,-1.51,0.00,2.99,0.04,9.26,0.00,-0.00,0.00,0.00
2026-06-26 19:00:21.933,994.15,994.13,-1.29,-1.51,0.00,2.99,0.04,9.26,-0.00,-0.00,0.00,0.00
2026-06-26 19:00:21.934,994.15,994.13,-1.29,-1.51,0.00,2.99,0.04,9.29,-0.00,-0.00,0.00,0.00
2026-06-26 19:00:21.938,994.15,994.13,-1.29,-1.51,0.00,2.99,0.04,9.29,-0.00,-0.00,0.00,0.00
2026-06-26 19:00:21.940,994.15,994.13,-1.29,-1.51,0.00,2.99,0.04,9.29,-0.00,-0.00,0.00,0.00
2026-06-26 19:00:21.943,994.15,994.13,-1.29,-1.51,0.00,2.99,0.04,9.29,0.00,-0.00,0.00,0.00
2026-06-26 19:00:21.944,994.15,994.13,-1.29,-1.51,0.00,3.00,0.03,9.29,0.00,-0.00,0.00,0.00
2026-06-26 19:00:21.946,994.15,994.13,-1.29,-1.51,0.00,3.00,0.03,9.29,0.00,-0.00,0.00,0.00
2026-06-26 19:00:21.949,994.15,994.13,-1.29,-1.51,0.00,3.00,0.03,9.29,0.00,-0.00,0.00,0.00
2026-06-26 19:00:21.953,994.15,994.13,-1.29,-1.51,0.00,3.00,0.03,9.29,0.00,0.00,0.00,0.00
2026-06-26 19:00:22.043,994.14,994.13,-1.17,-1.43,0.00,3.01,0.02,9.28,-0.00,0.00,-0.00,0.00
2026-06-26 19:00:22.046,994.14,994.13,-1.17,-1.43,0.00,2.99,0.05,9.31,0.00,0.00,0.00,0.00
2026-06-26 19:00:22.052,994.14,994.13,-1.17,-1.43,0.00,2.99,0.05,9.31,0.00,0.00,0.00,0.00
2026-06-26 19:00:22.054,994.14,994.13,-1.17,-1.43,0.00,3.01,0.05,9.31,0.00,-0.00,0.00,0.00
2026-06-26 19:00:22.060,994.14,994.13,-1.17,-1.43,0.00,3.01,0.05,9.31,0.00,-0.00,0.00,0.00
2026-06-26 19:00:22.063,994.14,994.13,-1.17,-1.43,0.00,3.01,0.05,9.31,-0.00,0.01,0.00,0.00
2026-06-26 19:00:22.065,994.14,994.13,-1.17,-1.43,0.00,3.00,0.02,9.26,-0.00,0.01,0.00,0.00
2026-06-26 19:00:22.067,994.14,994.13,-1.17,-1.43,0.00,3.00,0.02,9.26,-0.00,0.01,0.00,0.00
2026-06-26 19:00:22.072,994.14,994.13,-1.17,-1.43,0.00,3.00,0.02,9.26,-0.00,0.01,0.00,0.00
2026-06-26 19:00:22.074,994.14,994.13,-1.17,-1.43,0.00,2.98,0.02,9.29,-0.00,0.00,0.00,0.00
2026-06-26 19:00:22.075,994.14,994.13,-1.17,-1.43,0.00,2.98,0.02,9.29,-0.00,0.00,0.00,0.00
2026-06-26 19:00:22.077,994.14,994.13,-1.17,-1.43,0.00,2.98,0.02,9.29,-0.00,0.00,0.00,0.00
2026-06-26 19:00:22.083,994.14,994.13,-1.17,-1.43,0.00,2.98,0.02,9.29,-0.00,0.00,0.00,0.00
2026-06-26 19:00:22.084,994.14,994.13,-1.17,-1.43,0.00,2.99,0.01,9.31,0.00,-0.00,0.00,0.00
2026-06-26 19:00:22.085,994.14,994.13,-1.17,-1.43,0.00,2.99,0.01,9.31,0.00,-0.00,0.00,0.00
2026-06-26 19:00:22.087,994.14,994.13,-1.17,-1.43,0.00,2.99,0.01,9.31,0.00,-0.00,0.00,0.00
2026-06-26 19:00:22.088,994.14,994.13,-1.17,-1.43,0.00,2.99,0.01,9.31,0.00,-0.00,0.00,0.00
2026-06-26 19:00:22.090,994.14,994.13,-1.17,-1.43,0.00,2.99,0.01,9.31,0.00,-0.00,0.00,0.00
2026-06-26 19:00:22.094,994.14,994.13,-1.17,-1.43,0.00,2.99,0.01,9.31,0.00,0.00,0.00,0.00
2026-06-26 19:00:22.139,994.14,994.13,-1.09,-1.38,0.00,3.01,0.03,9.30,-0.00,0.00,0.00,0.00
2026-06-26 19:00:22.184,994.14,994.13,-1.41,-1.58,0.00,2.98,0.01,9.28,-0.00,0.00,0.00,0.00
2026-06-26 19:00:22.185,994.14,994.13,-1.41,-1.58,0.00,3.00,0.03,9.30,-0.00,0.00,0.00,0.00
2026-06-26 19:00:22.187,994.14,994.13,-1.41,-1.58,0.00,3.00,0.03,9.30,-0.00,0.00,0.00,0.00
2026-06-26 19:00:22.188,994.14,994.13,-1.41,-1.58,0.00,3.00,0.03,9.30,-0.00,0.00,0.00,0.00
2026-06-26 19:00:22.190,994.14,994.13,-1.41,-1.58,0.00,3.00,0.03,9.30,-0.00,0.00,0.00,0.00
2026-06-26 19:00:22.193,994.14,994.13,-1.41,-1.58,0.00,3.00,0.03,9.30,0.00,-0.00,0.00,0.00
2026-06-26 19:00:22.197,994.14,994.13,-1.41,-1.58,0.00,3.00,0.04,9.29,0.00,-0.00,0.00,0.00
2026-06-26 19:00:22.203,994.14,994.13,-1.41,-1.58,0.00,3.00,0.04,9.29,0.00,-0.00,0.00,0.00
2026-06-26 19:00:22.204,994.14,994.13,-1.41,-1.58,0.00,2.99,0.02,9.28,0.00,0.00,0.00,0.00
2026-06-26 19:00:22.206,994.14,994.13,-1.41,-1.58,0.00,2.99,0.02,9.28,0.00,0.00,0.00,0.00
2026-06-26 19:00:22.209,994.14,994.13,-1.41,-1.58,0.00,2.99,0.02,9.28,0.00,0.00,0.00,0.00
2026-06-26 19:00:22.213,994.14,994.13,-1.41,-1.58,0.00,2.99,0.02,9.28,-0.00,0.00,0.00,0.00
2026-06-26 19:00:22.215,994.14,994.13,-1.41,-1.58,0.00,3.00,0.03,9.26,-0.00,0.00,0.00,0.00
2026-06-26 19:00:22.216,994.14,994.13,-1.41,-1.58,0.00,3.00,0.03,9.26,-0.00,0.00,0.00,0.00
2026-06-26 19:00:22.218,994.14,994.13,-1.41,-1.58,0.00,3.00,0.03,9.26,-0.00,0.00,0.00,0.00
2026-06-26 19:00:22.223,994.14,994.13,-1.41,-1.58,0.00,3.00,0.03,9.26,-0.00,0.00,0.00,0.00
2026-06-26 19:00:22.225,994.14,994.13,-1.41,-1.58,0.00,3.00,0.02,9.28,0.00,0.00,0.00,0.00
2026-06-26 19:00:22.226,994.14,994.13,-1.41,-1.58,0.00,3.00,0.02,9.28,0.00,0.00,0.00,0.00
2026-06-26 19:00:22.229,994.14,994.13,-1.41,-1.58,0.00,3.00,0.02,9.28,0.00,0.00,0.00,0.00
2026-06-26 19:00:22.233,994.14,994.13,-1.41,-1.58,0.00,3.00,0.02,9.28,0.00,-0.00,0.00,0.00
2026-06-26 19:00:22.235,994.14,994.13,-1.41,-1.58,0.00,2.98,0.02,9.29,0.00,-0.00,0.00,0.00
2026-06-26 19:00:22.237,994.14,994.13,-1.41,-1.58,0.00,2.98,0.02,9.29,0.00,-0.00,0.00,0.00
2026-06-26 19:00:22.238,994.14,994.13,-1.41,-1.58,0.00,2.98,0.02,9.29,0.00,-0.00,0.00,0.00
2026-06-26 19:00:22.276,994.14,994.13,-1.54,-1.64,0.00,2.99,0.03,9.30,0.00,0.00,0.00,0.00
2026-06-26 19:00:22.283,994.14,994.13,-1.54,-1.64,0.00,2.99,0.03,9.30,0.00,0.00,0.00,0.00
2026-06-26 19:00:22.325,994.14,994.13,-1.46,-1.60,0.00,3.01,0.03,9.30,0.00,-0.00,0.00,0.00
2026-06-26 19:00:22.327,994.14,994.13,-1.46,-1.60,0.00,3.01,0.03,9.30,0.00,-0.00,0.00,0.00
2026-06-26 19:00:22.334,994.14,994.13,-1.46,-1.60,0.00,3.01,0.03,9.30,-0.00,-0.00,0.00,0.00
2026-06-26 19:00:22.336,994.14,994.13,-1.46,-1.60,0.00,2.98,0.03,9.28,-0.00,-0.00,0.00,0.00
2026-06-26 19:00:22.337,994.14,994.13,-1.46,-1.60,0.00,2.98,0.03,9.28,-0.00,-0.00,0.00,0.00
2026-06-26 19:00:22.339,994.14,994.13,-1.46,-1.60,0.00,2.98,0.03,9.28,-0.00,-0.00,0.00,0.00
2026-06-26 19:00:22.341,994.14,994.13,-1.46,-1.60,0.00,2.98,0.03,9.28,-0.00,-0.00,0.00,0.00
2026-06-26 19:00:22.344,994.14,994.13,-1.46,-1.60,0.00,2.98,0.03,9.28,0.00,-0.00,0.00,0.00
2026-06-26 19:00:22.345,994.14,994.13,-1.46,-1.60,0.00,2.98,0.01,9.29,0.00,-0.00,0.00,0.00
2026-06-26 19:00:22.347,994.14,994.13,-1.46,-1.60,0.00,2.98,0.01,9.29,0.00,-0.00,0.00,0.00
2026-06-26 19:00:22.353,994.14,994.13,-1.46,-1.60,0.00,2.98,0.01,9.29,0.00,0.00,0.00,0.00
2026-06-26 19:00:22.355,994.14,994.13,-1.46,-1.60,0.00,3.00,0.03,9.27,0.00,0.00,0.00,0.00
2026-06-26 19:00:22.359,994.14,994.13,-1.46,-1.60,0.00,3.00,0.03,9.27,0.00,0.00,0.00,0.00
2026-06-26 19:00:22.364,994.14,994.13,-1.46,-1.60,0.00,3.00,0.03,9.27,-0.00,0.00,0.00,0.00
2026-06-26 19:00:22.366,994.14,994.13,-1.46,-1.60,0.00,3.00,0.04,9.29,-0.00,0.00,0.00,0.00
2026-06-26 19:00:22.372,994.14,994.13,-1.46,-1.60,0.00,3.00,0.04,9.29,-0.00,0.00,0.00,0.00
2026-06-26 19:00:22.374,994.14,994.13,-1.46,-1.60,0.00,3.01,0.05,9.31,0.00,-0.00,0.00,0.00
2026-06-26 19:00:22.376,994.14,994.13,-1.46,-1.60,0.00,3.01,0.05,9.31,0.00,-0.00,0.00,0.00
2026-06-26 19:00:22.421,994.14,994.13,-1.38,-1.55,0.00,2.98,0.02,9.29,0.00,0.00,0.00,0.00
2026-06-26 19:00:22.424,994.14,994.13,-1.38,-1.55,0.00,2.98,0.02,9.29,0.00,0.00,0.00,0.00
2026-06-26 19:00:22.473,994.14,994.13,-0.88,-1.24,0.00,3.01,0.02,9.26,0.00,0.00,-0.00,0.00
2026-06-26 19:00:22.475,994.14,994.13,-0.88,-1.24,0.00,3.01,0.06,9.25,0.00,0.00,-0.00,0.00
2026-06-26 19:00:22.476,994.14,994.13,-0.88,-1.24,0.00,3.01,0.06,9.25,0.00,0.00,-0.00,0.00
2026-06-26 19:00:22.478,994.14,994.13,-0.88,-1.24,0.00,3.01,0.06,9.25,0.00,0.00,-0.00,0.00
2026-06-26 19:00:22.485,994.14,994.13,-0.88,-1.24,0.00,3.01,0.06,9.25,0.00,0.00,-0.00,0.00
2026-06-26 19:00:22.487,994.14,994.13,-0.88,-1.24,0.00,2.99,0.02,9.28,0.00,-0.00,0.00,0.00
2026-06-26 19:00:22.489,994.14,994.13,-0.88,-1.24,0.00,2.99,0.02,9.28,0.00,-0.00,0.00,0.00
2026-06-26 19:00:22.490,994.14,994.13,-0.88,-1.24,0.00,2.99,0.02,9.28,0.00,-0.00,0.00,0.00
2026-06-26 19:00:22.494,994.14,994.13,-0.88,-1.24,0.00,2.99,0.02,9.28,0.00,0.00,-0.00,0.00
2026-06-26 19:00:22.496,994.14,994.13,-0.88,-1.24,0.00,2.99,0.04,9.32,0.00,0.00,-0.00,0.00
2026-06-26 19:00:22.501,994.14,994.13,-0.88,-1.24,0.00,2.99,0.04,9.32,0.00,0.00,-0.00,0.00
2026-06-26 19:00:22.504,994.14,994.13,-0.88,-1.24,0.00,2.99,0.04,9.32,0.00,0.00,0.00,0.00
2026-06-26 19:00:22.506,994.14,994.13,-0.88,-1.24,0.00,2.98,0.04,9.26,0.00,0.00,0.00,0.00
2026-06-26 19:00:22.507,994.14,994.13,-0.88,-1.24,0.00,2.98,0.04,9.26,0.00,0.00,0.00,0.00
2026-06-26 19:00:22.513,994.14,994.13,-0.88,-1.24,0.00,2.98,0.04,9.26,0.00,0.00,0.00,0.00
2026-06-26 19:00:22.515,994.14,994.13,-0.88,-1.24,0.00,3.00,0.02,9.27,0.00,-0.00,0.00,0.00
2026-06-26 19:00:22.518,994.14,994.13,-0.88,-1.24,0.00,3.00,0.02,9.27,0.00,-0.00,0.00,0.00
2026-06-26 19:00:22.564,994.14,994.13,-0.79,-1.17,0.00,2.99,0.05,9.29,0.00,0.00,0.00,0.00
2026-06-26 19:00:22.566,994.14,994.13,-0.79,-1.17,0.00,3.00,0.04,9.26,0.00,0.00,0.00,0.00
2026-06-26 19:00:22.574,994.14,994.13,-0.79,-1.17,0.00,3.00,0.04,9.26,0.00,0.00,0.00,0.00
2026-06-26 19:00:22.617,994.14,994.13,-1.11,-1.40,0.00,2.99,0.05,9.30,0.00,-0.00,0.00,0.00
2026-06-26 19:00:22.620,994.14,994.13,-1.11,-1.40,0.00,2.99,0.05,9.30,0.00,-0.00,0.00,0.00
2026-06-26 19:00:22.625,994.14,994.13,-1.11,-1.40,0.00,2.99,0.05,9.30,0.00,0.00,0.00,0.00
2026-06-26 19:00:22.631,994.14,994.13,-1.11,-1.40,0.00,2.99,0.02,9.32,0.00,0.00,0.00,0.00
2026-06-26 19:00:22.635,994.14,994.13,-1.11,-1.40,0.00,2.99,0.02,9.32,0.00,0.00,-0.00,0.00
2026-06-26 19:00:22.636,994.14,994.13,-1.11,-1.40,0.00,2.99,0.04,9.27,0.00,0.00,-0.00,0.00
2026-06-26 19:00:22.638,994.14,994.13,-1.11,-1.40,0.00,2.99,0.04,9.27,0.00,0.00,-0.00,0.00
2026-06-26 19:00:22.639,994.14,994.13,-1.11,-1.40,0.00,2.99,0.04,9.27,0.00,0.00,-0.00,0.00
2026-06-26 19:00:22.641,994.14,994.13,-1.11,-1.40,0.00,2.99,0.04,9.27,0.00,0.00,-0.00,0.00
2026-06-26 19:00:22.644,994.14,994.13,-1.11,-1.40,0.00,2.99,0.04,9.27,0.00,0.00,-0.00,0.00
2026-06-26 19:00:22.646,994.14,994.13,-1.11,-1.40,0.00,2.98,0.02,9.29,0.00,0.00,-0.00,0.00
2026-06-26 19:00:22.647,994.14,994.13,-1.11,-1.40,0.00,2.98,0.02,9.29,0.00,0.00,-0.00,0.00
2026-06-26 19:00:22.652,994.14,994.13,-1.11,-1.40,0.00,2.98,0.02,9.29,0.00,0.00,-0.00,0.00
2026-06-26 19:00:22.655,994.14,994.13,-1.11,-1.40,0.00,2.98,0.04,9.30,0.00,0.01,-0.00,0.00
2026-06-26 19:00:22.658,994.14,994.13,-1.11,-1.40,0.00,2.98,0.04,9.30,0.00,0.01,-0.00,0.00
2026-06-26 19:00:22.664,994.14,994.13,-1.11,-1.40,0.00,2.98,0.04,9.30,0.00,0.01,-0.00,0.00
2026-06-26 19:00:22.707,994.14,994.13,-1.54,-1.64,0.00,2.98,0.01,9.29,0.00,0.00,0.00,0.00
2026-06-26 19:00:22.709,994.14,994.13,-1.54,-1.64,0.00,2.98,0.01,9.29,0.00,0.00,0.00,0.00
2026-06-26 19:00:22.714,994.14,994.13,-1.54,-1.64,0.00,2.98,0.01,9.29,0.00,0.00,0.00,0.00
2026-06-26 19:00:22.715,994.14,994.13,-1.54,-1.64,0.00,3.00,0.04,9.27,0.00,0.00,-0.00,0.00
2026-06-26 19:00:22.761,994.14,994.13,-1.22,-1.46,0.00,3.00,0.03,9.29,0.00,0.00,0.00,0.00
2026-06-26 19:00:22.765,994.14,994.13,-1.22,-1.46,0.00,3.00,0.03,9.29,0.00,0.00,0.00,0.00
2026-06-26 19:00:22.768,994.14,994.13,-1.22,-1.46,0.00,2.99,0.02,9.28,0.00,0.00,0.00,0.00
2026-06-26 19:00:22.774,994.14,994.13,-1.22,-1.46,0.00,2.99,0.02,9.28,0.00,0.00,0.00,0.00
2026-06-26 19:00:22.776,994.14,994.13,-1.22,-1.46,0.00,2.99,0.04,9.27,0.00,0.00,0.00,0.00
2026-06-26 19:00:22.778,994.14,994.13,-1.22,-1.46,0.00,2.99,0.04,9.27,0.00,0.00,0.00,0.00
2026-06-26 19:00:22.787,994.14,994.13,-1.22,-1.46,0.00,2.99,0.04,9.27,0.00,0.00,0.00,0.00
2026-06-26 19:00:22.789,994.14,994.13,-1.22,-1.46,0.00,2.98,0.03,9.30,0.00,0.00,-0.00,0.00
2026-06-26 19:00:22.792,994.14,994.13,-1.22,-1.46,0.00,2.98,0.03,9.30,0.00,0.00,-0.00,0.00
2026-06-26 19:00:22.795,994.14,994.13,-1.22,-1.46,0.00,2.98,0.03,9.30,-0.00,0.00,0.00,0.00
2026-06-26 19:00:22.797,994.14,994.13,-1.22,-1.46,0.00,3.00,0.02,9.33,-0.00,0.00,0.00,0.00
2026-06-26 19:00:22.798,994.14,994.13,-1.22,-1.46,0.00,3.00,0.02,9.33,-0.00,0.00,0.00,0.00
2026-06-26 19:00:22.804,994.14,994.13,-1.22,-1.46,0.00,3.00,0.02,9.33,-0.00,0.00,0.00,0.00
2026-06-26 19:00:22.806,994.14,994.13,-1.22,-1.46,0.00,3.01,0.02,9.31,0.00,-0.00,-0.00,0.00
2026-06-26 19:00:22.846,994.14,994.13,-0.91,-1.27,0.00,3.00,0.04,9.30,0.00,-0.00,-0.00,0.00
2026-06-26 19:00:22.848,994.14,994.13,-0.91,-1.27,0.00,3.00,0.04,9.30,0.00,-0.00,-0.00,0.00
2026-06-26 19:00:22.854,994.14,994.13,-0.91,-1.27,0.00,3.00,0.04,9.30,0.00,-0.00,-0.00,0.00
2026-06-26 19:00:22.856,994.14,994.13,-0.91,-1.27,0.00,3.00,0.04,9.28,0.00,0.00,-0.00,0.00
2026-06-26 19:00:22.858,994.14,994.13,-0.91,-1.27,0.00,3.00,0.04,9.28,0.00,0.00,-0.00,0.00
2026-06-26 19:00:22.897,994.14,994.13,-1.14,-1.41,0.00,3.00,0.03,9.29,0.00,0.00,0.00,0.00
2026-06-26 19:00:22.899,994.14,994.13,-1.14,-1.41,0.00,3.00,0.03,9.29,0.00,0.00,0.00,0.00
2026-06-26 19:00:22.905,994.14,994.13,-1.14,-1.41,0.00,3.00,0.03,9.29,-0.00,0.00,0.00,0.00
2026-06-26 19:00:22.907,994.14,994.13,-1.14,-1.41,0.00,3.02,0.04,9.31,-0.00,0.00,0.00,0.00
2026-06-26 19:00:22.911,994.14,994.13,-1.14,-1.41,0.00,3.02,0.04,9.31,-0.00,0.00,0.00,0.00
2026-06-26 19:00:22.915,994.14,994.13,-1.14,-1.41,0.00,3.02,0.04,9.31,-0.00,0.00,0.00,0.00
2026-06-26 19:00:22.918,994.14,994.13,-1.14,-1.41,0.00,2.99,0.03,9.28,-0.00,0.00,0.00,0.00
2026-06-26 19:00:22.922,994.14,994.13,-1.14,-1.41,0.00,2.99,0.03,9.28,-0.00,0.00,0.00,0.00
2026-06-26 19:00:22.926,994.14,994.13,-1.14,-1.41,0.00,2.99,0.03,9.28,0.00,0.00,-0.00,0.00
2026-06-26 19:00:22.928,994.14,994.13,-1.14,-1.41,0.00,3.00,0.03,9.29,0.00,0.00,-0.00,0.00
2026-06-26 19:00:22.933,994.14,994.13,-1.14,-1.41,0.00,3.00,0.03,9.29,0.00,0.00,-0.00,0.00
2026-06-26 19:00:22.935,994.14,994.13,-1.14,-1.41,0.00,2.99,0.04,9.30,0.00,0.00,0.00,0.00
2026-06-26 19:00:22.937,994.14,994.13,-1.14,-1.41,0.00,2.99,0.04,9.30,0.00,0.00,0.00,0.00
2026-06-26 19:00:22.939,994.14,994.13,-1.14,-1.41,0.00,2.99,0.04,9.30,0.00,0.00,0.00,0.00
2026-06-26 19:00:22.940,994.14,994.13,-1.14,-1.41,0.00,2.99,0.04,9.30,0.00,0.00,0.00,0.00
2026-06-26 19:00:22.942,994.14,994.13,-1.14,-1.41,0.00,2.99,0.04,9.30,0.00,0.00,0.00,0.00
2026-06-26 19:00:22.945,994.14,994.13,-1.14,-1.41,0.00,2.99,0.04,9.30,-0.00,0.00,-0.00,0.00
2026-06-26 19:00:22.989,994.14,994.13,-1.57,-1.66,0.00,3.00,0.03,9.32,0.00,0.00,0.00,0.00
2026-06-26 19:00:22.995,994.14,994.13,-1.57,-1.66,0.00,3.00,0.03,9.32,0.00,0.00,0.00,0.00
2026-06-26 19:00:23.041,994.14,994.13,-1.79,-1.77,0.00,2.98,0.03,9.30,0.00,-0.00,0.00,0.00
2026-06-26 19:00:23.045,994.14,994.13,-1.79,-1.77,0.00,2.98,0.03,9.30,0.00,-0.00,0.00,0.00
2026-06-26 19:00:23.046,994.14,994.13,-1.79,-1.77,0.00,2.99,0.03,9.29,0.00,0.00,-0.00,0.00
2026-06-26 19:00:23.048,994.14,994.13,-1.79,-1.77,0.00,2.99,0.03,9.29,0.00,0.00,-0.00,0.00
2026-06-26 19:00:23.050,994.14,994.13,-1.79,-1.77,0.00,2.99,0.03,9.29,0.00,0.00,-0.00,0.00
2026-06-26 19:00:23.055,994.14,994.13,-1.79,-1.77,0.00,2.99,0.03,9.29,0.00,0.00,-0.00,0.00
2026-06-26 19:00:23.056,994.14,994.13,-1.79,-1.77,0.00,3.01,0.03,9.29,0.00,0.00,-0.00,0.00
2026-06-26 19:00:23.058,994.14,994.13,-1.79,-1.77,0.00,3.01,0.03,9.29,0.00,0.00,-0.00,0.00
2026-06-26 19:00:23.061,994.14,994.13,-1.79,-1.77,0.00,3.01,0.03,9.29,0.00,0.00,-0.00,0.00
2026-06-26 19:00:23.065,994.14,994.13,-1.79,-1.77,0.00,3.01,0.03,9.29,0.00,0.00,0.00,0.00
2026-06-26 19:00:23.068,994.14,994.13,-1.79,-1.77,0.00,3.00,0.04,9.28,0.00,0.00,0.00,0.00
2026-06-26 19:00:23.074,994.14,994.13,-1.79,-1.77,0.00,3.00,0.04,9.28,0.00,0.00,0.00,0.00
2026-06-26 19:00:23.076,994.14,994.13,-1.79,-1.77,0.00,3.00,0.02,9.30,0.00,0.00,0.00,0.00
2026-06-26 19:00:23.078,994.14,994.13,-1.79,-1.77,0.00,3.00,0.02,9.30,0.00,0.00,0.00,0.00
2026-06-26 19:00:23.079,994.14,994.13,-1.79,-1.77,0.00,3.00,0.02,9.30,0.00,0.00,0.00,0.00
2026-06-26 19:00:23.085,994.14,994.13,-1.79,-1.77,0.00,3.00,0.02,9.30,0.00,0.00,0.00,0.00
2026-06-26 19:00:23.087,994.14,994.13,-1.79,-1.77,0.00,3.00,0.01,9.29,0.00,0.00,0.00,0.00
2026-06-26 19:00:23.088,994.14,994.13,-1.79,-1.77,0.00,3.00,0.01,9.29,0.00,0.00,0.00,0.00
2026-06-26 19:00:23.135,994.14,994.12,-2.11,-1.93,0.00,3.00,0.02,9.31,0.00,0.00,0.00,0.00
2026-06-26 19:00:23.137,994.14,994.12,-2.11,-1.93,0.00,3.00,0.04,9.31,0.00,0.00,-0.00,0.00
2026-06-26 19:00:23.139,994.14,994.12,-2.11,-1.93,0.00,3.00,0.04,9.31,0.00,0.00,-0.00,0.00
2026-06-26 19:00:23.185,994.14,994.12,-1.76,-1.76,0.00,2.99,0.01,9.28,0.00,-0.00,-0.00,0.00
2026-06-26 19:00:23.187,994.14,994.12,-1.76,-1.76,0.00,3.00,0.02,9.32,-0.00,0.00,-0.00,0.00
2026-06-26 19:00:23.189,994.14,994.12,-1.76,-1.76,0.00,3.00,0.02,9.32,-0.00,0.00,-0.00,0.00
2026-06-26 19:00:23.190,994.14,994.12,-1.76,-1.76,0.00,3.00,0.02,9.32,-0.00,0.00,-0.00,0.00
2026-06-26 19:00:23.192,994.14,994.12,-1.76,-1.76,0.00,3.00,0.02,9.32,-0.00,0.00,-0.00,0.00
2026-06-26 19:00:23.197,994.14,994.12,-1.76,-1.76,0.00,3.00,0.02,9.32,-0.00,0.00,0.00,0.00
2026-06-26 19:00:23.199,994.14,994.12,-1.76,-1.76,0.00,2.98,0.04,9.32,-0.00,0.00,0.00,0.00
2026-06-26 19:00:23.205,994.14,994.12,-1.76,-1.76,0.00,2.98,0.04,9.32,-0.00,0.00,0.00,0.00
2026-06-26 19:00:23.207,994.14,994.12,-1.76,-1.76,0.00,3.00,0.03,9.32,0.00,0.00,-0.00,0.00
2026-06-26 19:00:23.209,994.14,994.12,-1.76,-1.76,0.00,3.00,0.03,9.32,0.00,0.00,-0.00,0.00
2026-06-26 19:00:23.215,994.14,994.12,-1.76,-1.76,0.00,3.00,0.03,9.32,0.00,0.00,-0.00,0.00
2026-06-26 19:00:23.217,994.14,994.12,-1.76,-1.76,0.00,2.97,0.01,9.28,0.00,0.00,-0.00,0.00
2026-06-26 19:00:23.218,994.14,994.12,-1.76,-1.76,0.00,2.97,0.01,9.28,0.00,0.00,-0.00,0.00
2026-06-26 19:00:23.220,994.14,994.12,-1.76,-1.76,0.00,2.97,0.01,9.28,0.00,0.00,-0.00,0.00
2026-06-26 19:00:23.225,994.14,994.12,-1.76,-1.76,0.00,2.97,0.01,9.28,0.00,0.00,-0.00,0.00
2026-06-26 19:00:23.227,994.14,994.12,-1.76,-1.76,0.00,3.00,0.04,9.29,0.00,0.01,0.00,0.00
2026-06-26 19:00:23.229,994.14,994.12,-1.76,-1.76,0.00,3.00,0.04,9.29,0.00,0.01,0.00,0.00
2026-06-26 19:00:23.233,994.14,994.12,-1.76,-1.76,0.00,3.00,0.04,9.29,0.00,0.01,0.00,0.00
2026-06-26 19:00:23.275,994.14,994.12,-1.63,-1.69,0.00,3.00,0.02,9.26,0.00,-0.00,0.00,0.00
2026-06-26 19:00:23.282,994.14,994.12,-1.63,-1.69,0.00,2.99,0.03,9.26,0.00,0.00,0.00,0.00
2026-06-26 19:00:23.326,994.14,994.12,-1.62,-1.69,0.00,3.00,0.02,9.29,0.00,-0.00,-0.00,0.00
2026-06-26 19:00:23.328,994.14,994.12,-1.62,-1.69,0.00,3.01,0.03,9.29,0.00,-0.00,-0.00,0.00
2026-06-26 19:00:23.329,994.14,994.12,-1.62,-1.69,0.00,3.01,0.03,9.29,0.00,-0.00,-0.00,0.00
2026-06-26 19:00:23.335,994.14,994.12,-1.62,-1.69,0.00,3.01,0.03,9.29,0.00,-0.00,-0.00,0.00
2026-06-26 19:00:23.337,994.14,994.12,-1.62,-1.69,0.00,3.01,0.02,9.28,0.00,0.00,0.00,0.00
2026-06-26 19:00:23.338,994.14,994.12,-1.62,-1.69,0.00,3.01,0.02,9.28,0.00,0.00,0.00,0.00
2026-06-26 19:00:23.340,994.14,994.12,-1.62,-1.69,0.00,3.01,0.02,9.28,0.00,0.00,0.00,0.00
2026-06-26 19:00:23.341,994.14,994.12,-1.62,-1.69,0.00,3.01,0.02,9.28,0.00,0.00,0.00,0.00
2026-06-26 19:00:23.343,994.14,994.12,-1.62,-1.69,0.00,3.01,0.02,9.28,0.00,0.00,0.00,0.00
2026-06-26 19:00:23.345,994.14,994.12,-1.62,-1.69,0.00,3.01,0.02,9.28,0.00,0.00,0.00,0.00
2026-06-26 19:00:23.347,994.14,994.12,-1.62,-1.69,0.00,2.99,0.03,9.32,0.00,-0.00,-0.00,0.00
2026-06-26 19:00:23.349,994.14,994.12,-1.62,-1.69,0.00,2.99,0.03,9.32,0.00,-0.00,-0.00,0.00
2026-06-26 19:00:23.351,994.14,994.12,-1.62,-1.69,0.00,2.99,0.03,9.32,0.00,-0.00,-0.00,0.00
2026-06-26 19:00:23.357,994.14,994.12,-1.62,-1.69,0.00,2.99,0.03,9.32,-0.00,-0.00,0.00,0.00
2026-06-26 19:00:23.359,994.14,994.12,-1.62,-1.69,0.00,2.98,0.02,9.29,-0.00,-0.00,0.00,0.00
2026-06-26 19:00:23.363,994.14,994.12,-1.62,-1.69,0.00,2.98,0.02,9.29,-0.00,-0.00,0.00,0.00
2026-06-26 19:00:23.366,994.14,994.12,-1.62,-1.69,0.00,2.98,0.02,9.29,-0.00,0.00,-0.00,0.00
2026-06-26 19:00:23.368,994.14,994.12,-1.62,-1.69,0.00,2.99,0.02,9.26,-0.00,0.00,-0.00,0.00
2026-06-26 19:00:23.370,994.14,994.12,-1.62,-1.69,0.00,2.99,0.02,9.26,-0.00,0.00,-0.00,0.00
2026-06-26 19:00:23.415,994.14,994.12,-1.52,-1.63,0.00,2.99,0.06,9.28,-0.00,0.00,0.00,0.00
2026-06-26 19:00:23.417,994.14,994.12,-1.52,-1.63,0.00,3.01,0.02,9.26,0.00,0.00,0.00,0.00
2026-06-26 19:00:23.418,994.14,994.12,-1.52,-1.63,0.00,3.01,0.02,9.26,0.00,0.00,0.00,0.00
2026-06-26 19:00:23.420,994.14,994.12,-1.52,-1.63,0.00,3.01,0.02,9.26,0.00,0.00,0.00,0.00
2026-06-26 19:00:23.426,994.14,994.12,-1.52,-1.63,0.00,3.01,0.02,9.26,0.00,-0.00,-0.00,0.00
2026-06-26 19:00:23.468,994.14,994.12,-1.61,-1.68,0.00,3.00,0.03,9.25,0.00,0.00,-0.00,0.00
2026-06-26 19:00:23.471,994.14,994.12,-1.61,-1.68,0.00,3.00,0.03,9.25,0.00,0.00,-0.00,0.00
2026-06-26 19:00:23.476,994.14,994.12,-1.61,-1.68,0.00,3.00,0.03,9.25,0.00,0.00,-0.00,0.00
2026-06-26 19:00:23.477,994.14,994.12,-1.61,-1.68,0.00,2.98,0.01,9.28,-0.00,0.00,0.00,0.00
2026-06-26 19:00:23.479,994.14,994.12,-1.61,-1.68,0.00,2.98,0.01,9.28,-0.00,0.00,0.00,0.00
2026-06-26 19:00:23.483,994.14,994.12,-1.61,-1.68,0.00,2.98,0.01,9.28,-0.00,0.00,0.00,0.00
2026-06-26 19:00:23.487,994.14,994.12,-1.61,-1.68,0.00,2.98,0.01,9.28,-0.00,-0.00,-0.00,0.00
2026-06-26 19:00:23.488,994.14,994.12,-1.61,-1.68,0.00,3.00,0.04,9.29,-0.00,-0.00,-0.00,0.00
2026-06-26 19:00:23.490,994.14,994.12,-1.61,-1.68,0.00,3.00,0.04,9.29,-0.00,-0.00,-0.00,0.00
2026-06-26 19:00:23.492,994.14,994.12,-1.61,-1.68,0.00,3.00,0.04,9.29,-0.00,-0.00,-0.00,0.00
2026-06-26 19:00:23.493,994.14,994.12,-1.61,-1.68,0.00,3.00,0.04,9.29,-0.00,-0.00,-0.00,0.00
2026-06-26 19:00:23.496,994.14,994.12,-1.61,-1.68,0.00,3.00,0.04,9.29,-0.00,-0.00,-0.00,0.00
2026-06-26 19:00:23.498,994.14,994.12,-1.61,-1.68,0.00,2.98,0.06,9.29,-0.00,-0.00,-0.00,0.00
2026-06-26 19:00:23.500,994.14,994.12,-1.61,-1.68,0.00,2.98,0.06,9.29,-0.00,-0.00,-0.00,0.00
2026-06-26 19:00:23.506,994.14,994.12,-1.61,-1.68,0.00,2.98,0.06,9.29,-0.00,-0.00,-0.00,0.00
2026-06-26 19:00:23.508,994.14,994.12,-1.61,-1.68,0.00,3.00,0.03,9.32,-0.00,0.00,0.00,0.00
2026-06-26 19:00:23.511,994.14,994.12,-1.61,-1.68,0.00,3.00,0.03,9.32,-0.00,0.00,0.00,0.00
2026-06-26 19:00:23.559,994.14,994.12,-1.93,-1.84,0.00,2.98,0.00,9.29,-0.00,0.00,0.00,0.00
2026-06-26 19:00:23.563,994.14,994.12,-1.93,-1.84,0.00,2.98,0.00,9.29,-0.00,0.00,0.00,0.00
2026-06-26 19:00:23.567,994.14,994.12,-1.93,-1.84,0.00,2.98,0.00,9.29,0.00,0.00,0.00,0.00
2026-06-26 19:00:23.568,994.14,994.12,-1.93,-1.84,0.00,3.00,0.04,9.28,0.00,0.00,0.00,0.00
2026-06-26 19:00:23.616,994.14,994.12,-1.48,-1.61,0.00,2.99,0.06,9.29,-0.00,-0.00,-0.00,0.00
2026-06-26 19:00:23.618,994.14,994.12,-1.48,-1.61,0.00,2.99,0.05,9.28,-0.00,-0.00,-0.00,0.00
2026-06-26 19:00:23.620,994.14,994.12,-1.48,-1.61,0.00,2.99,0.05,9.28,-0.00,-0.00,-0.00,0.00
2026-06-26 19:00:23.626,994.14,994.12,-1.48,-1.61,0.00,2.99,0.05,9.28,-0.00,-0.00,-0.00,0.00
2026-06-26 19:00:23.628,994.14,994.12,-1.48,-1.61,0.00,2.99,0.05,9.29,-0.00,-0.00,0.00,0.00
2026-06-26 19:00:23.630,994.14,994.12,-1.48,-1.61,0.00,2.99,0.05,9.29,-0.00,-0.00,0.00,0.00
2026-06-26 19:00:23.636,994.14,994.12,-1.48,-1.61,0.00,2.99,0.05,9.29,-0.00,-0.00,0.00,0.00
2026-06-26 19:00:23.638,994.14,994.12,-1.48,-1.61,0.00,2.98,0.04,9.29,-0.00,-0.00,0.00,0.00
2026-06-26 19:00:23.639,994.14,994.12,-1.48,-1.61,0.00,2.98,0.04,9.29,-0.00,-0.00,0.00,0.00
2026-06-26 19:00:23.641,994.14,994.12,-1.48,-1.61,0.00,2.98,0.04,9.29,-0.00,-0.00,0.00,0.00
2026-06-26 19:00:23.644,994.14,994.12,-1.48,-1.61,0.00,2.98,0.04,9.29,-0.00,-0.00,0.00,0.00
2026-06-26 19:00:23.648,994.14,994.12,-1.48,-1.61,0.00,2.97,0.01,9.29,-0.00,0.00,0.00,0.00
2026-06-26 19:00:23.654,994.14,994.12,-1.48,-1.61,0.00,2.97,0.01,9.29,-0.00,0.00,0.00,0.00
2026-06-26 19:00:23.697,994.14,994.12,-1.24,-1.48,0.00,2.98,0.04,9.29,0.00,-0.00,-0.00,0.00
2026-06-26 19:00:23.699,994.14,994.12,-1.24,-1.48,0.00,2.98,0.04,9.29,0.00,-0.00,-0.00,0.00
2026-06-26 19:00:23.700,994.14,994.12,-1.24,-1.48,0.00,2.98,0.04,9.29,0.00,-0.00,-0.00,0.00
2026-06-26 19:00:23.706,994.14,994.12,-1.24,-1.48,0.00,2.98,0.04,9.29,0.00,-0.00,-0.00,0.00
2026-06-26 19:00:23.709,994.14,994.12,-1.24,-1.48,0.00,2.99,0.03,9.29,0.00,0.00,0.00,0.00
2026-06-26 19:00:23.715,994.14,994.12,-1.24,-1.48,0.00,2.99,0.03,9.29,0.00,0.00,0.00,0.00
2026-06-26 19:00:23.757,994.14,994.12,-1.26,-1.49,0.00,3.00,0.04,9.28,-0.00,-0.00,0.00,0.00
2026-06-26 19:00:23.759,994.14,994.12,-1.26,-1.49,0.00,3.00,0.04,9.28,-0.00,-0.00,0.00,0.00
2026-06-26 19:00:23.761,994.14,994.12,-1.26,-1.49,0.00,3.00,0.04,9.28,-0.00,-0.00,0.00,0.00
2026-06-26 19:00:23.766,994.14,994.12,-1.26,-1.49,0.00,3.00,0.04,9.28,-0.00,-0.00,0.00,0.00
2026-06-26 19:00:23.768,994.14,994.12,-1.26,-1.49,0.00,2.99,0.01,9.30,0.00,0.00,0.00,0.00
2026-06-26 19:00:23.769,994.14,994.12,-1.26,-1.49,0.00,2.99,0.01,9.30,0.00,0.00,0.00,0.00
2026-06-26 19:00:23.771,994.14,994.12,-1.26,-1.49,0.00,2.99,0.01,9.30,0.00,0.00,0.00,0.00
2026-06-26 19:00:23.776,994.14,994.12,-1.26,-1.49,0.00,2.99,0.01,9.30,0.00,0.00,0.00,0.00
2026-06-26 19:00:23.778,994.14,994.12,-1.26,-1.49,0.00,2.98,0.02,9.29,-0.00,0.00,0.00,0.00
2026-06-26 19:00:23.780,994.14,994.12,-1.26,-1.49,0.00,2.98,0.02,9.29,-0.00,0.00,0.00,0.00
2026-06-26 19:00:23.784,994.14,994.12,-1.26,-1.49,0.00,2.98,0.02,9.29,-0.00,0.00,0.00,0.00
2026-06-26 19:00:23.787,994.14,994.12,-1.26,-1.49,0.00,2.98,0.02,9.29,-0.00,-0.00,0.00,0.00
2026-06-26 19:00:23.789,994.14,994.12,-1.26,-1.49,0.00,2.99,0.03,9.29,-0.00,-0.00,0.00,0.00
2026-06-26 19:00:23.791,994.14,994.12,-1.26,-1.49,0.00,2.99,0.03,9.29,-0.00,-0.00,0.00,0.00
2026-06-26 19:00:23.792,994.14,994.12,-1.26,-1.49,0.00,2.99,0.03,9.29,-0.00,-0.00,0.00,0.00
2026-06-26 19:00:23.794,994.14,994.12,-1.26,-1.49,0.00,2.99,0.03,9.29,-0.00,-0.00,0.00,0.00
2026-06-26 19:00:23.797,994.14,994.12,-1.26,-1.49,0.00,2.99,0.03,9.29,-0.00,-0.00,-0.00,0.00
2026-06-26 19:00:23.838,994.14,994.12,-1.37,-1.55,0.00,3.00,0.04,9.30,0.00,0.00,-0.00,0.00
2026-06-26 19:00:23.840,994.14,994.12,-1.37,-1.55,0.00,3.00,0.04,9.30,0.00,0.00,-0.00,0.00
2026-06-26 19:00:23.841,994.14,994.12,-1.37,-1.55,0.00,3.00,0.04,9.30,0.00,0.00,-0.00,0.00
2026-06-26 19:00:23.843,994.14,994.12,-1.37,-1.55,0.00,3.00,0.04,9.30,0.00,0.00,-0.00,0.00
2026-06-26 19:00:23.846,994.14,994.12,-1.37,-1.55,0.00,3.00,0.04,9.30,0.00,0.00,-0.00,0.00
2026-06-26 19:00:23.848,994.14,994.12,-1.37,-1.55,0.00,3.01,0.02,9.30,-0.00,0.00,-0.00,0.00
2026-06-26 19:00:23.851,994.14,994.12,-1.37,-1.55,0.00,3.01,0.02,9.30,-0.00,0.00,-0.00,0.00
2026-06-26 19:00:23.857,994.14,994.12,-1.37,-1.55,0.00,3.01,0.02,9.30,-0.00,0.00,-0.00,0.00
2026-06-26 19:00:23.900,994.14,994.12,-1.46,-1.60,0.00,2.98,0.01,9.29,0.00,0.00,0.00,0.00
2026-06-26 19:00:23.905,994.14,994.12,-1.46,-1.60,0.00,2.98,0.01,9.29,0.00,0.00,0.00,0.00
2026-06-26 19:00:23.908,994.14,994.12,-1.46,-1.60,0.00,2.99,0.02,9.31,0.00,0.00,0.00,0.00
2026-06-26 19:00:23.909,994.14,994.12,-1.46,-1.60,0.00,2.99,0.02,9.31,0.00,0.00,0.00,0.00
2026-06-26 19:00:23.911,994.14,994.12,-1.46,-1.60,0.00,2.99,0.02,9.31,0.00,0.00,0.00,0.00
2026-06-26 19:00:23.918,994.14,994.12,-1.46,-1.60,0.00,2.99,0.02,9.31,0.00,0.00,-0.00,0.00
2026-06-26 19:00:23.919,994.14,994.12,-1.46,-1.60,0.00,3.01,0.01,9.30,0.00,0.00,-0.00,0.00
2026-06-26 19:00:23.921,994.14,994.12,-1.46,-1.60,0.00,3.01,0.01,9.30,0.00,0.00,-0.00,0.00
2026-06-26 19:00:23.927,994.14,994.12,-1.46,-1.60,0.00,3.01,0.01,9.30,0.00,-0.00,0.00,0.00
2026-06-26 19:00:23.929,994.14,994.12,-1.46,-1.60,0.00,2.99,0.02,9.27,0.00,-0.00,0.00,0.00
2026-06-26 19:00:23.931,994.14,994.12,-1.46,-1.60,0.00,2.99,0.02,9.27,0.00,-0.00,0.00,0.00
2026-06-26 19:00:23.937,994.14,994.12,-1.46,-1.60,0.00,2.99,0.02,9.27,0.00,-0.00,0.00,0.00
2026-06-26 19:00:23.980,994.14,994.12,-1.29,-1.50,0.00,3.01,0.05,9.27,0.00,-0.00,0.00,0.00
2026-06-26 19:00:23.983,994.14,994.12,-1.29,-1.50,0.00,3.01,0.05,9.27,0.00,-0.00,0.00,0.00
2026-06-26 19:00:23.988,994.14,994.12,-1.29,-1.50,0.00,3.01,0.05,9.27,0.00,-0.00,-0.00,0.00
2026-06-26 19:00:23.989,994.14,994.12,-1.29,-1.50,0.00,3.00,0.03,9.30,0.00,-0.00,-0.00,0.00
2026-06-26 19:00:23.991,994.14,994.12,-1.29,-1.50,0.00,3.00,0.03,9.30,0.00,-0.00,-0.00,0.00
2026-06-26 19:00:23.992,994.14,994.12,-1.29,-1.50,0.00,3.00,0.03,9.30,0.00,-0.00,-0.00,0.00
2026-06-26 19:00:23.994,994.14,994.12,-1.29,-1.50,0.00,3.00,0.03,9.30,0.00,-0.00,-0.00,0.00
2026-06-26 19:00:23.997,994.14,994.12,-1.29,-1.50,0.00,3.00,0.03,9.30,0.00,-0.00,-0.00,0.00
2026-06-26 19:00:23.998,994.14,994.12,-1.29,-1.50,0.00,2.99,0.02,9.31,0.00,0.00,0.00,0.00
2026-06-26 19:00:24.041,994.14,994.12,-1.21,-1.46,0.00,2.97,0.05,9.29,0.00,-0.00,0.00,0.00
2026-06-26 19:00:24.043,994.14,994.12,-1.21,-1.46,0.00,2.97,0.05,9.29,0.00,-0.00,0.00,0.00
2026-06-26 19:00:24.047,994.14,994.12,-1.21,-1.46,0.00,2.97,0.05,9.29,0.00,-0.00,0.00,0.00
2026-06-26 19:00:24.049,994.14,994.12,-1.21,-1.46,0.00,2.99,0.03,9.29,0.00,-0.00,0.00,0.00
2026-06-26 19:00:24.050,994.14,994.12,-1.21,-1.46,0.00,2.99,0.03,9.29,0.00,-0.00,0.00,0.00
2026-06-26 19:00:24.054,994.14,994.12,-1.21,-1.46,0.00,2.99,0.03,9.29,0.00,-0.00,0.00,0.00
2026-06-26 19:00:24.057,994.14,994.12,-1.21,-1.46,0.00,2.99,0.03,9.29,0.00,-0.00,0.00,0.00
2026-06-26 19:00:24.059,994.14,994.12,-1.21,-1.46,0.00,2.98,0.03,9.29,0.00,-0.00,0.00,0.00
2026-06-26 19:00:24.061,994.14,994.12,-1.21,-1.46,0.00,2.98,0.03,9.29,0.00,-0.00,0.00,0.00
2026-06-26 19:00:24.065,994.14,994.12,-1.21,-1.46,0.00,2.98,0.03,9.29,0.00,-0.00,0.00,0.00
2026-06-26 19:00:24.068,994.14,994.12,-1.21,-1.46,0.00,2.98,0.03,9.29,0.00,0.00,0.00,0.00
2026-06-26 19:00:24.070,994.14,994.12,-1.21,-1.46,0.00,3.01,0.03,9.27,0.00,0.00,0.00,0.00
2026-06-26 19:00:24.071,994.14,994.12,-1.21,-1.46,0.00,3.01,0.03,9.27,0.00,0.00,0.00,0.00
2026-06-26 19:00:24.077,994.14,994.12,-1.21,-1.46,0.00,3.01,0.03,9.27,0.00,0.00,0.00,0.00
2026-06-26 19:00:24.079,994.14,994.12,-1.21,-1.46,0.00,2.99,0.04,9.29,0.00,0.00,0.00,0.00
2026-06-26 19:00:24.122,994.14,994.12,-1.58,-1.66,0.00,2.98,0.00,9.28,0.00,0.00,-0.00,0.00
2026-06-26 19:00:24.127,994.14,994.12,-1.58,-1.66,0.00,2.98,0.00,9.28,0.00,0.00,-0.00,0.00
2026-06-26 19:00:24.129,994.14,994.12,-1.58,-1.66,0.00,3.00,0.03,9.28,0.00,0.00,0.00,0.00
2026-06-26 19:00:24.130,994.14,994.12,-1.58,-1.66,0.00,3.00,0.03,9.28,0.00,0.00,0.00,0.00
2026-06-26 19:00:24.133,994.14,994.12,-1.58,-1.66,0.00,3.00,0.03,9.28,0.00,0.00,0.00,0.00
2026-06-26 19:00:24.139,994.14,994.12,-1.58,-1.66,0.00,3.00,0.03,9.28,0.00,0.00,0.00,0.00
2026-06-26 19:00:24.141,994.14,994.12,-1.58,-1.66,0.00,3.01,0.04,9.30,0.00,0.00,0.00,0.00
2026-06-26 19:00:24.189,994.14,994.12,-1.64,-1.70,0.00,2.99,0.02,9.27,0.00,0.00,-0.00,0.00
2026-06-26 19:00:24.193,994.14,994.12,-1.64,-1.70,0.00,2.98,0.03,9.31,0.00,0.00,-0.00,0.00
2026-06-26 19:00:24.198,994.14,994.12,-1.64,-1.70,0.00,2.98,0.03,9.31,-0.00,0.00,0.00,0.00
2026-06-26 19:00:24.200,994.14,994.12,-1.64,-1.70,0.00,2.98,0.01,9.30,-0.00,0.00,0.00,0.00
2026-06-26 19:00:24.202,994.14,994.12,-1.64,-1.70,0.00,2.98,0.01,9.30,-0.00,0.00,0.00,0.00
2026-06-26 19:00:24.207,994.14,994.12,-1.64,-1.70,0.00,2.98,0.01,9.30,-0.00,0.00,0.00,0.00
2026-06-26 19:00:24.209,994.14,994.12,-1.64,-1.70,0.00,3.01,0.01,9.30,0.00,0.00,-0.00,0.00
2026-06-26 19:00:24.210,994.14,994.12,-1.64,-1.70,0.00,3.01,0.01,9.30,0.00,0.00,-0.00,0.00
2026-06-26 19:00:24.213,994.14,994.12,-1.64,-1.70,0.00,3.01,0.01,9.30,0.00,0.00,-0.00,0.00
2026-06-26 19:00:24.218,994.14,994.12,-1.64,-1.70,0.00,3.01,0.01,9.30,-0.00,0.00,0.00,0.00
2026-06-26 19:00:24.219,994.14,994.12,-1.64,-1.70,0.00,2.99,0.02,9.29,-0.00,0.00,0.00,0.00
2026-06-26 19:00:24.221,994.14,994.12,-1.64,-1.70,0.00,2.99,0.02,9.29,-0.00,0.00,0.00,0.00
2026-06-26 19:00:24.259,994.14,994.12,-1.54,-1.64,0.00,3.01,0.05,9.26,0.00,0.00,-0.00,0.00
2026-06-26 19:00:24.260,994.14,994.12,-1.54,-1.64,0.00,3.01,0.05,9.26,0.00,0.00,-0.00,0.00
2026-06-26 19:00:24.262,994.14,994.12,-1.54,-1.64,0.00,3.01,0.05,9.26,0.00,0.00,-0.00,0.00
2026-06-26 19:00:24.268,994.14,994.12,-1.54,-1.64,0.00,3.01,0.05,9.26,0.00,0.00,-0.00,0.00
2026-06-26 19:00:24.269,994.14,994.12,-1.54,-1.64,0.00,2.99,0.03,9.29,0.00,-0.01,0.00,0.00
2026-06-26 19:00:24.271,994.14,994.12,-1.54,-1.64,0.00,2.99,0.03,9.29,0.00,-0.01,0.00,0.00
2026-06-26 19:00:24.275,994.14,994.12,-1.54,-1.64,0.00,2.99,0.03,9.29,0.00,-0.01,0.00,0.00
2026-06-26 19:00:24.278,994.14,994.12,-1.54,-1.64,0.00,2.99,0.03,9.29,0.00,-0.00,0.00,0.00
2026-06-26 19:00:24.280,994.14,994.12,-1.54,-1.64,0.00,3.00,0.02,9.31,0.00,-0.00,0.00,0.00
2026-06-26 19:00:24.281,994.14,994.12,-1.54,-1.64,0.00,3.00,0.02,9.31,0.00,-0.00,0.00,0.00
2026-06-26 19:00:24.287,994.14,994.12,-1.54,-1.64,0.00,3.00,0.02,9.31,0.00,-0.00,0.00,0.00
2026-06-26 19:00:24.330,994.14,994.12,-1.74,-1.75,0.00,2.99,0.01,9.28,0.00,0.00,0.00,0.00
2026-06-26 19:00:24.331,994.14,994.12,-1.74,-1.75,0.00,3.00,0.03,9.27,0.00,0.00,0.00,0.00
2026-06-26 19:00:24.337,994.14,994.12,-1.74,-1.75,0.00,3.00,0.03,9.27,0.00,0.00,0.00,0.00
2026-06-26 19:00:24.339,994.14,994.12,-1.74,-1.75,0.00,3.00,0.03,9.30,0.00,-0.00,-0.00,0.00
2026-06-26 19:00:24.340,994.14,994.12,-1.74,-1.75,0.00,3.00,0.03,9.30,0.00,-0.00,-0.00,0.00
2026-06-26 19:00:24.342,994.14,994.12,-1.74,-1.75,0.00,3.00,0.03,9.30,0.00,-0.00,-0.00,0.00
2026-06-26 19:00:24.344,994.14,994.12,-1.74,-1.75,0.00,3.00,0.03,9.30,0.00,-0.00,-0.00,0.00
2026-06-26 19:00:24.345,994.14,994.12,-1.74,-1.75,0.00,3.00,0.03,9.30,0.00,-0.00,-0.00,0.00
2026-06-26 19:00:24.348,994.14,994.12,-1.74,-1.75,0.00,3.00,0.03,9.30,0.00,-0.00,0.00,0.00
2026-06-26 19:00:24.356,994.14,994.12,-1.74,-1.75,0.00,3.00,0.02,9.31,0.00,-0.00,0.00,0.00
2026-06-26 19:00:24.359,994.14,994.12,-1.74,-1.75,0.00,2.99,0.02,9.35,0.00,0.00,0.00,0.00
2026-06-26 19:00:24.404,994.14,994.12,-1.71,-1.73,0.00,3.01,0.02,9.32,-0.00,-0.00,0.00,0.00
2026-06-26 19:00:24.408,994.14,994.12,-1.71,-1.73,0.00,3.01,0.02,9.32,0.00,-0.00,0.00,0.00
2026-06-26 19:00:24.410,994.14,994.12,-1.71,-1.73,0.00,2.99,0.05,9.27,0.00,-0.00,0.00,0.00
2026-06-26 19:00:24.411,994.14,994.12,-1.71,-1.73,0.00,2.99,0.05,9.27,0.00,-0.00,0.00,0.00
2026-06-26 19:00:24.414,994.14,994.12,-1.71,-1.73,0.00,2.99,0.05,9.27,0.00,-0.00,0.00,0.00
2026-06-26 19:00:24.418,994.14,994.12,-1.71,-1.73,0.00,2.99,0.05,9.27,0.00,-0.00,-0.00,0.00
2026-06-26 19:00:24.420,994.14,994.12,-1.71,-1.73,0.00,2.99,0.02,9.28,0.00,-0.00,-0.00,0.00
2026-06-26 19:00:24.421,994.14,994.12,-1.71,-1.73,0.00,2.99,0.02,9.28,0.00,-0.00,-0.00,0.00
2026-06-26 19:00:24.423,994.14,994.12,-1.71,-1.73,0.00,2.99,0.02,9.28,0.00,-0.00,-0.00,0.00
2026-06-26 19:00:24.429,994.14,994.12,-1.71,-1.73,0.00,2.99,0.02,9.28,0.00,0.00,0.00,0.00
2026-06-26 19:00:24.476,994.13,994.12,-1.11,-1.40,0.00,2.99,0.00,9.27,-0.00,0.00,0.00,0.00
2026-06-26 19:00:24.479,994.13,994.12,-1.11,-1.40,0.00,2.99,0.00,9.27,-0.00,0.00,0.00,0.00
2026-06-26 19:00:24.480,994.13,994.12,-1.11,-1.40,0.00,3.00,0.04,9.30,-0.00,0.00,0.00,0.00
2026-06-26 19:00:24.482,994.13,994.12,-1.11,-1.40,0.00,3.00,0.04,9.30,-0.00,0.00,0.00,0.00
2026-06-26 19:00:24.487,994.13,994.12,-1.11,-1.40,0.00,3.00,0.04,9.30,-0.00,0.00,0.00,0.00
2026-06-26 19:00:24.489,994.13,994.12,-1.11,-1.40,0.00,3.01,0.02,9.30,0.00,0.00,-0.00,0.00
2026-06-26 19:00:24.491,994.13,994.12,-1.11,-1.40,0.00,3.01,0.02,9.30,0.00,0.00,-0.00,0.00
2026-06-26 19:00:24.492,994.13,994.12,-1.11,-1.40,0.00,3.01,0.02,9.30,0.00,0.00,-0.00,0.00
2026-06-26 19:00:24.494,994.13,994.12,-1.11,-1.40,0.00,3.01,0.02,9.30,0.00,0.00,-0.00,0.00
2026-06-26 19:00:24.495,994.13,994.12,-1.11,-1.40,0.00,3.01,0.02,9.30,0.00,0.00,-0.00,0.00
2026-06-26 19:00:24.499,994.13,994.12,-1.11,-1.40,0.00,3.01,0.02,9.30,0.00,0.00,0.00,0.00
2026-06-26 19:00:24.500,994.13,994.12,-1.11,-1.40,0.00,3.00,0.03,9.28,0.00,0.00,0.00,0.00
2026-06-26 19:00:24.539,994.13,994.12,-1.34,-1.53,0.00,2.98,0.05,9.29,0.00,0.00,0.00,0.00
2026-06-26 19:00:24.541,994.13,994.12,-1.34,-1.53,0.00,2.98,0.05,9.29,0.00,0.00,0.00,0.00
2026-06-26 19:00:24.542,994.13,994.12,-1.34,-1.53,0.00,2.98,0.05,9.29,0.00,0.00,0.00,0.00
2026-06-26 19:00:24.544,994.13,994.12,-1.34,-1.53,0.00,2.98,0.05,9.29,0.00,0.00,0.00,0.00
2026-06-26 19:00:24.546,994.13,994.12,-1.34,-1.53,0.00,2.98,0.05,9.29,0.00,0.00,0.00,0.00
2026-06-26 19:00:24.549,994.13,994.12,-1.34,-1.53,0.00,2.98,0.05,9.29,-0.00,0.00,0.00,0.00
2026-06-26 19:00:24.550,994.13,994.12,-1.34,-1.53,0.00,2.98,0.05,9.30,-0.00,0.00,0.00,0.00
2026-06-26 19:00:24.552,994.13,994.12,-1.34,-1.53,0.00,2.98,0.05,9.30,-0.00,0.00,0.00,0.00
2026-06-26 19:00:24.557,994.13,994.12,-1.34,-1.53,0.00,2.98,0.05,9.30,-0.00,0.00,0.00,0.00
2026-06-26 19:00:24.559,994.13,994.12,-1.34,-1.53,0.00,2.99,0.02,9.28,0.00,-0.00,0.00,0.00
2026-06-26 19:00:24.561,994.13,994.12,-1.34,-1.53,0.00,2.99,0.02,9.28,0.00,-0.00,0.00,0.00
2026-06-26 19:00:24.562,994.13,994.12,-1.34,-1.53,0.00,2.99,0.02,9.28,0.00,-0.00,0.00,0.00
2026-06-26 19:00:24.569,994.13,994.12,-1.34,-1.53,0.00,2.99,0.02,9.28,0.00,-0.00,0.00,0.00
2026-06-26 19:00:24.571,994.13,994.12,-1.34,-1.53,0.00,2.97,0.03,9.28,-0.00,0.00,-0.00,0.00
2026-06-26 19:00:24.609,994.13,994.12,-1.23,-1.47,0.00,3.00,0.03,9.27,0.00,-0.00,0.00,0.00
2026-06-26 19:00:24.611,994.13,994.12,-1.23,-1.47,0.00,3.00,0.03,9.27,0.00,-0.00,0.00,0.00
2026-06-26 19:00:24.613,994.13,994.12,-1.23,-1.47,0.00,3.00,0.03,9.27,0.00,-0.00,0.00,0.00
2026-06-26 19:00:24.618,994.13,994.12,-1.23,-1.47,0.00,3.00,0.03,9.27,0.00,-0.00,0.00,0.00
2026-06-26 19:00:24.620,994.13,994.12,-1.23,-1.47,0.00,2.99,0.02,9.25,-0.00,-0.00,0.00,0.00
2026-06-26 19:00:24.622,994.13,994.12,-1.23,-1.47,0.00,2.99,0.02,9.25,-0.00,-0.00,0.00,0.00
2026-06-26 19:00:24.623,994.13,994.12,-1.23,-1.47,0.00,2.99,0.02,9.25,-0.00,-0.00,0.00,0.00
2026-06-26 19:00:24.628,994.13,994.12,-1.23,-1.47,0.00,2.99,0.02,9.25,-0.00,-0.00,0.00,0.00
2026-06-26 19:00:24.630,994.13,994.12,-1.23,-1.47,0.00,2.99,0.04,9.30,-0.00,0.00,0.00,0.00
2026-06-26 19:00:24.636,994.13,994.12,-1.23,-1.47,0.00,2.99,0.04,9.30,-0.00,0.00,0.00,0.00
2026-06-26 19:00:24.639,994.13,994.12,-1.23,-1.47,0.00,2.99,0.04,9.30,0.00,-0.00,0.00,0.00
2026-06-26 19:00:24.679,994.13,994.12,-1.13,-1.41,0.00,3.01,0.03,9.28,0.00,-0.00,-0.00,0.00
2026-06-26 19:00:24.681,994.13,994.12,-1.13,-1.41,0.00,3.00,0.03,9.29,0.00,-0.00,-0.00,0.00
2026-06-26 19:00:24.683,994.13,994.12,-1.13,-1.41,0.00,3.00,0.03,9.29,0.00,-0.00,-0.00,0.00
2026-06-26 19:00:24.689,994.13,994.12,-1.13,-1.41,0.00,3.00,0.03,9.29,0.00,-0.00,-0.00,0.00
2026-06-26 19:00:24.690,994.13,994.12,-1.13,-1.41,0.00,2.99,0.04,9.33,-0.00,-0.00,0.00,0.00
2026-06-26 19:00:24.692,994.13,994.12,-1.13,-1.41,0.00,2.99,0.04,9.33,-0.00,-0.00,0.00,0.00
2026-06-26 19:00:24.694,994.13,994.12,-1.13,-1.41,0.00,2.99,0.04,9.33,-0.00,-0.00,0.00,0.00
2026-06-26 19:00:24.695,994.13,994.12,-1.13,-1.41,0.00,2.99,0.04,9.33,-0.00,-0.00,0.00,0.00
2026-06-26 19:00:24.699,994.13,994.12,-1.13,-1.41,0.00,2.99,0.04,9.33,-0.00,-0.00,0.00,0.00
2026-06-26 19:00:24.701,994.13,994.12,-1.13,-1.41,0.00,2.99,0.01,9.29,-0.00,-0.00,0.00,0.00
2026-06-26 19:00:24.702,994.13,994.12,-1.13,-1.41,0.00,2.99,0.01,9.29,-0.00,-0.00,0.00,0.00
2026-06-26 19:00:24.707,994.13,994.12,-1.13,-1.41,0.00,2.99,0.01,9.29,-0.00,-0.00,0.00,0.00
2026-06-26 19:00:24.709,994.13,994.12,-1.13,-1.41,0.00,2.99,0.01,9.29,0.00,0.00,-0.00,0.00
2026-06-26 19:00:24.749,994.13,994.12,-1.26,-1.48,0.00,3.00,0.02,9.31,-0.00,-0.00,-0.00,0.00
2026-06-26 19:00:24.751,994.13,994.12,-1.26,-1.48,0.00,2.99,0.03,9.33,-0.00,-0.00,-0.00,0.00
2026-06-26 19:00:24.753,994.13,994.12,-1.26,-1.48,0.00,2.99,0.03,9.33,-0.00,-0.00,-0.00,0.00
2026-06-26 19:00:24.759,994.13,994.12,-1.26,-1.48,0.00,2.99,0.03,9.33,-0.00,-0.00,-0.00,0.00
2026-06-26 19:00:24.760,994.13,994.12,-1.26,-1.48,0.00,3.00,0.02,9.29,0.00,-0.00,-0.00,0.00
2026-06-26 19:00:24.762,994.13,994.12,-1.26,-1.48,0.00,3.00,0.02,9.29,0.00,-0.00,-0.00,0.00
2026-06-26 19:00:24.766,994.13,994.12,-1.26,-1.48,0.00,3.00,0.02,9.29,0.00,-0.00,-0.00,0.00
2026-06-26 19:00:24.769,994.13,994.12,-1.26,-1.48,0.00,3.00,0.02,9.29,-0.00,-0.00,-0.00,0.00
2026-06-26 19:00:24.771,994.13,994.12,-1.26,-1.48,0.00,3.00,0.03,9.28,-0.00,-0.00,-0.00,0.00
2026-06-26 19:00:24.773,994.13,994.12,-1.26,-1.48,0.00,3.00,0.03,9.28,-0.00,-0.00,-0.00,0.00
2026-06-26 19:00:24.779,994.13,994.12,-1.26,-1.48,0.00,3.00,0.03,9.28,-0.00,-0.00,-0.00,0.00
2026-06-26 19:00:24.822,994.13,994.12,-0.97,-1.30,0.00,2.99,0.02,9.26,-0.00,0.00,0.00,0.00
2026-06-26 19:00:24.829,994.13,994.12,-0.97,-1.30,0.00,2.99,0.02,9.26,-0.00,0.00,0.00,0.00
2026-06-26 19:00:24.831,994.13,994.12,-0.97,-1.30,0.00,3.00,0.01,9.28,0.00,-0.00,0.00,0.00
2026-06-26 19:00:24.833,994.13,994.12,-0.97,-1.30,0.00,3.00,0.01,9.28,0.00,-0.00,0.00,0.00
2026-06-26 19:00:24.840,994.13,994.12,-0.97,-1.30,0.00,3.00,0.01,9.28,0.00,-0.00,0.00,0.00
2026-06-26 19:00:24.842,994.13,994.12,-0.97,-1.30,0.00,2.99,0.04,9.32,-0.00,-0.00,0.00,0.00
2026-06-26 19:00:24.844,994.13,994.12,-0.97,-1.30,0.00,2.99,0.04,9.32,-0.00,-0.00,0.00,0.00
2026-06-26 19:00:24.846,994.13,994.12,-0.97,-1.30,0.00,2.99,0.04,9.32,-0.00,-0.00,0.00,0.00
2026-06-26 19:00:24.849,994.13,994.12,-0.97,-1.30,0.00,2.99,0.04,9.32,-0.00,-0.00,-0.00,0.00
2026-06-26 19:00:24.892,994.13,994.12,-0.51,-0.95,0.00,2.99,0.03,9.27,0.00,-0.00,0.00,0.00
2026-06-26 19:00:24.893,994.13,994.12,-0.51,-0.95,0.00,2.99,0.03,9.27,0.00,-0.00,0.00,0.00
2026-06-26 19:00:24.899,994.13,994.12,-0.51,-0.95,0.00,2.99,0.03,9.27,0.00,-0.00,0.00,0.00
2026-06-26 19:00:24.901,994.13,994.12,-0.51,-0.95,0.00,2.99,0.02,9.34,0.00,-0.00,0.00,0.00
2026-06-26 19:00:24.902,994.13,994.12,-0.51,-0.95,0.00,2.99,0.02,9.34,0.00,-0.00,0.00,0.00
2026-06-26 19:00:24.906,994.13,994.12,-0.51,-0.95,0.00,2.99,0.02,9.34,0.00,-0.00,0.00,0.00
2026-06-26 19:00:24.910,994.13,994.12,-0.51,-0.95,0.00,2.99,0.02,9.34,0.00,0.00,-0.00,0.00
2026-06-26 19:00:24.911,994.13,994.12,-0.51,-0.95,0.00,2.97,0.05,9.28,0.00,0.00,-0.00,0.00
2026-06-26 19:00:24.913,994.13,994.12,-0.51,-0.95,0.00,2.97,0.05,9.28,0.00,0.00,-0.00,0.00
2026-06-26 19:00:24.918,994.13,994.12,-0.51,-0.95,0.00,2.97,0.05,9.28,0.00,0.00,-0.00,0.00
2026-06-26 19:00:24.920,994.13,994.12,-0.51,-0.95,0.00,2.99,0.01,9.26,0.00,0.00,0.00,0.00
2026-06-26 19:00:24.921,994.13,994.12,-0.51,-0.95,0.00,2.99,0.01,9.26,0.00,0.00,0.00,0.00
2026-06-26 19:00:24.971,994.13,994.12,-0.63,-1.05,0.00,3.00,0.03,9.29,0.00,0.00,0.00,0.00
2026-06-26 19:00:24.975,994.13,994.12,-0.63,-1.05,0.00,3.00,0.03,9.28,0.00,0.00,0.00,0.00
2026-06-26 19:00:24.980,994.13,994.12,-0.63,-1.05,0.00,3.00,0.03,9.28,-0.00,0.00,0.00,0.00
2026-06-26 19:00:24.981,994.13,994.12,-0.63,-1.05,0.00,2.99,0.02,9.30,-0.00,0.00,0.00,0.00
2026-06-26 19:00:24.983,994.13,994.12,-0.63,-1.05,0.00,2.99,0.02,9.30,-0.00,0.00,0.00,0.00
2026-06-26 19:00:24.989,994.13,994.12,-0.63,-1.05,0.00,2.99,0.02,9.30,-0.00,0.00,0.00,0.00
2026-06-26 19:00:24.992,994.13,994.12,-0.63,-1.05,0.00,3.01,0.04,9.28,0.00,0.00,0.00,0.00
2026-06-26 19:00:25.037,994.13,994.12,-0.72,-1.12,0.00,3.00,0.04,9.31,-0.00,0.00,0.00,0.00
2026-06-26 19:00:25.040,994.13,994.12,-0.72,-1.12,0.00,3.00,0.04,9.31,0.00,0.00,0.00,0.00
2026-06-26 19:00:25.042,994.13,994.12,-0.72,-1.12,0.00,3.00,0.02,9.32,0.00,0.00,0.00,0.00
2026-06-26 19:00:25.043,994.13,994.12,-0.72,-1.12,0.00,3.00,0.02,9.32,0.00,0.00,0.00,0.00
2026-06-26 19:00:25.045,994.13,994.12,-0.72,-1.12,0.00,3.00,0.02,9.32,0.00,0.00,0.00,0.00
2026-06-26 19:00:25.046,994.13,994.12,-0.72,-1.12,0.00,3.00,0.02,9.32,0.00,0.00,0.00,0.00
2026-06-26 19:00:25.049,994.13,994.12,-0.72,-1.12,0.00,3.00,0.02,9.32,0.00,0.00,0.00,0.00
2026-06-26 19:00:25.051,994.13,994.12,-0.72,-1.12,0.00,2.99,0.03,9.29,0.00,0.00,0.00,0.00
2026-06-26 19:00:25.052,994.13,994.12,-0.72,-1.12,0.00,2.99,0.03,9.29,0.00,0.00,0.00,0.00
2026-06-26 19:00:25.054,994.13,994.12,-0.72,-1.12,0.00,2.99,0.03,9.29,0.00,0.00,0.00,0.00
2026-06-26 19:00:25.060,994.13,994.12,-0.72,-1.12,0.00,2.99,0.03,9.29,0.00,0.00,-0.00,0.00
2026-06-26 19:00:25.063,994.13,994.12,-0.72,-1.12,0.00,3.01,0.03,9.28,0.00,0.00,-0.00,0.00
2026-06-26 19:00:25.109,994.13,994.12,-0.78,-1.17,0.00,3.00,0.03,9.29,0.00,0.00,0.00,0.00
2026-06-26 19:00:25.111,994.13,994.12,-0.78,-1.17,0.00,3.01,0.03,9.28,0.00,0.00,-0.00,0.00
2026-06-26 19:00:25.114,994.13,994.12,-0.78,-1.17,0.00,3.01,0.03,9.28,0.00,0.00,-0.00,0.00
2026-06-26 19:00:25.119,994.13,994.12,-0.78,-1.17,0.00,3.01,0.03,9.28,0.00,0.00,-0.00,0.00
2026-06-26 19:00:25.121,994.13,994.12,-0.78,-1.17,0.00,3.00,0.02,9.26,-0.00,0.00,-0.00,0.00
2026-06-26 19:00:25.123,994.13,994.12,-0.78,-1.17,0.00,3.00,0.02,9.26,-0.00,0.00,-0.00,0.00
2026-06-26 19:00:25.125,994.13,994.12,-0.78,-1.17,0.00,3.00,0.02,9.26,-0.00,0.00,-0.00,0.00
2026-06-26 19:00:25.130,994.13,994.12,-0.78,-1.17,0.00,3.00,0.02,9.26,0.00,0.00,-0.00,0.00
2026-06-26 19:00:25.131,994.13,994.12,-0.78,-1.17,0.00,2.98,0.02,9.27,0.00,0.00,-0.00,0.00
2026-06-26 19:00:25.133,994.13,994.12,-0.78,-1.17,0.00,2.98,0.02,9.27,0.00,0.00,-0.00,0.00
2026-06-26 19:00:25.179,994.13,994.12,-1.12,-1.40,0.00,3.00,0.03,9.26,0.00,0.00,0.00,0.00
2026-06-26 19:00:25.181,994.13,994.12,-1.12,-1.40,0.00,2.99,0.02,9.28,0.00,0.00,0.00,0.00
2026-06-26 19:00:25.182,994.13,994.12,-1.12,-1.40,0.00,2.99,0.02,9.28,0.00,0.00,0.00,0.00
2026-06-26 19:00:25.185,994.13,994.12,-1.12,-1.40,0.00,2.99,0.02,9.28,0.00,0.00,0.00,0.00
2026-06-26 19:00:25.190,994.13,994.12,-1.12,-1.40,0.00,2.99,0.02,9.28,0.00,0.00,0.00,0.00
2026-06-26 19:00:25.192,994.13,994.12,-1.12,-1.40,0.00,3.01,0.02,9.29,0.00,-0.00,0.00,0.00
2026-06-26 19:00:25.193,994.13,994.12,-1.12,-1.40,0.00,3.01,0.02,9.29,0.00,-0.00,0.00,0.00
2026-06-26 19:00:25.195,994.13,994.12,-1.12,-1.40,0.00,3.01,0.02,9.29,0.00,-0.00,0.00,0.00
2026-06-26 19:00:25.197,994.13,994.12,-1.12,-1.40,0.00,3.01,0.02,9.29,0.00,-0.00,0.00,0.00
2026-06-26 19:00:25.200,994.13,994.12,-1.12,-1.40,0.00,3.01,0.02,9.29,0.00,0.01,0.00,0.00
2026-06-26 19:00:25.201,994.13,994.12,-1.12,-1.40,0.00,2.99,0.00,9.32,0.00,0.01,0.00,0.00
2026-06-26 19:00:25.203,994.13,994.12,-1.12,-1.40,0.00,2.99,0.00,9.32,0.00,0.01,0.00,0.00
2026-06-26 19:00:25.207,994.13,994.12,-1.12,-1.40,0.00,2.99,0.00,9.32,0.00,0.01,0.00,0.00
2026-06-26 19:00:25.252,994.13,994.12,-0.94,-1.29,0.00,3.01,0.03,9.30,-0.00,0.00,-0.00,0.00
2026-06-26 19:00:25.257,994.13,994.12,-0.94,-1.29,0.00,3.01,0.03,9.30,-0.00,0.00,-0.00,0.00
2026-06-26 19:00:25.260,994.13,994.12,-0.94,-1.29,0.00,3.01,0.03,9.30,0.00,0.00,0.00,0.00
2026-06-26 19:00:25.262,994.13,994.12,-0.94,-1.29,0.00,2.98,0.04,9.29,0.00,0.00,0.00,0.00
2026-06-26 19:00:25.264,994.13,994.12,-0.94,-1.29,0.00,2.98,0.04,9.29,0.00,0.00,0.00,0.00
2026-06-26 19:00:25.270,994.13,994.12,-0.94,-1.29,0.00,2.98,0.04,9.29,0.00,0.00,0.00,0.00
2026-06-26 19:00:25.272,994.13,994.12,-0.94,-1.29,0.00,2.99,0.04,9.27,-0.00,-0.00,-0.00,0.00
2026-06-26 19:00:25.274,994.13,994.12,-0.94,-1.29,0.00,2.99,0.04,9.27,-0.00,-0.00,-0.00,0.00
2026-06-26 19:00:25.320,994.13,994.12,-0.80,-1.18,0.00,2.97,0.04,9.30,-0.00,0.00,0.00,0.00
2026-06-26 19:00:25.322,994.13,994.12,-0.80,-1.18,0.00,3.01,0.02,9.28,0.00,0.00,0.00,0.00
2026-06-26 19:00:25.323,994.13,994.12,-0.80,-1.18,0.00,3.01,0.02,9.28,0.00,0.00,0.00,0.00
2026-06-26 19:00:25.328,994.13,994.12,-0.80,-1.18,0.00,3.01,0.02,9.28,0.00,0.00,0.00,0.00
2026-06-26 19:00:25.331,994.13,994.12,-0.80,-1.18,0.00,2.99,0.02,9.29,0.00,-0.00,0.00,0.00
2026-06-26 19:00:25.333,994.13,994.12,-0.80,-1.18,0.00,2.99,0.02,9.29,0.00,-0.00,0.00,0.00
2026-06-26 19:00:25.334,994.13,994.12,-0.80,-1.18,0.00,2.99,0.02,9.29,0.00,-0.00,0.00,0.00
2026-06-26 19:00:25.340,994.13,994.12,-0.80,-1.18,0.00,2.99,0.02,9.29,0.00,-0.00,0.00,0.00
2026-06-26 19:00:25.342,994.13,994.12,-0.80,-1.18,0.00,2.97,0.02,9.30,0.00,-0.00,0.00,0.00
2026-06-26 19:00:25.343,994.13,994.12,-0.80,-1.18,0.00,2.97,0.02,9.30,0.00,-0.00,0.00,0.00
2026-06-26 19:00:25.345,994.13,994.12,-0.80,-1.18,0.00,2.97,0.02,9.30,0.00,-0.00,0.00,0.00
2026-06-26 19:00:25.346,994.13,994.12,-0.80,-1.18,0.00,2.97,0.02,9.30,0.00,-0.00,0.00,0.00
2026-06-26 19:00:25.348,994.13,994.12,-0.80,-1.18,0.00,2.97,0.02,9.30,0.00,-0.00,0.00,0.00
2026-06-26 19:00:25.351,994.13,994.12,-0.80,-1.18,0.00,2.97,0.02,9.30,0.00,0.00,0.00,0.00
2026-06-26 19:00:25.393,994.13,994.12,-0.91,-1.26,0.00,3.00,0.04,9.29,-0.00,0.00,0.00,0.00
2026-06-26 19:00:25.397,994.13,994.12,-0.91,-1.26,0.00,3.00,0.04,9.29,-0.00,0.00,0.00,0.00
2026-06-26 19:00:25.401,994.13,994.12,-0.91,-1.26,0.00,3.00,0.04,9.29,0.00,0.00,0.00,0.00
2026-06-26 19:00:25.403,994.13,994.12,-0.91,-1.26,0.00,3.01,0.03,9.31,0.00,0.00,0.00,0.00
2026-06-26 19:00:25.404,994.13,994.12,-0.91,-1.26,0.00,3.01,0.03,9.31,0.00,0.00,0.00,0.00
2026-06-26 19:00:25.410,994.13,994.12,-0.91,-1.26,0.00,3.01,0.03,9.31,0.00,0.00,0.00,0.00
2026-06-26 19:00:25.412,994.13,994.12,-0.91,-1.26,0.00,3.00,0.03,9.31,0.00,-0.00,0.00,0.00
2026-06-26 19:00:25.413,994.13,994.12,-0.91,-1.26,0.00,3.00,0.03,9.31,0.00,-0.00,0.00,0.00
2026-06-26 19:00:25.417,994.13,994.12,-0.91,-1.26,0.00,3.00,0.03,9.31,0.00,-0.00,0.00,0.00
2026-06-26 19:00:25.461,994.13,994.12,-1.17,-1.44,0.00,2.97,0.02,9.29,0.00,-0.00,0.00,0.00
2026-06-26 19:00:25.470,994.13,994.12,-1.17,-1.44,0.00,3.00,0.01,9.29,0.00,-0.00,0.00,0.00
2026-06-26 19:00:25.472,994.13,994.12,-1.17,-1.44,0.00,3.00,0.04,9.30,0.00,-0.00,0.00,0.00
2026-06-26 19:00:25.474,994.13,994.12,-1.17,-1.44,0.00,3.00,0.04,9.30,0.00,-0.00,0.00,0.00
2026-06-26 19:00:25.478,994.13,994.12,-1.17,-1.44,0.00,3.00,0.04,9.30,0.00,-0.00,0.00,0.00
2026-06-26 19:00:25.481,994.13,994.12,-1.17,-1.44,0.00,3.00,0.04,9.30,0.00,-0.00,0.00,0.00
2026-06-26 19:00:25.483,994.13,994.12,-1.17,-1.44,0.00,3.00,0.02,9.31,0.00,-0.00,0.00,0.00
2026-06-26 19:00:25.484,994.13,994.12,-1.17,-1.44,0.00,3.00,0.02,9.31,0.00,-0.00,0.00,0.00
2026-06-26 19:00:25.490,994.13,994.12,-1.17,-1.44,0.00,3.00,0.02,9.31,0.00,-0.00,0.00,0.00
2026-06-26 19:00:25.492,994.13,994.12,-1.17,-1.44,0.00,2.99,0.02,9.32,0.00,-0.00,0.00,0.00
2026-06-26 19:00:25.535,994.13,994.12,-1.14,-1.42,0.00,2.99,0.02,9.29,0.00,-0.00,-0.00,0.00
2026-06-26 19:00:25.541,994.13,994.12,-1.14,-1.42,0.00,2.99,0.02,9.29,0.00,-0.00,-0.00,0.00
2026-06-26 19:00:25.542,994.13,994.12,-1.14,-1.42,0.00,2.99,0.05,9.28,0.00,-0.00,0.00,0.00
2026-06-26 19:00:25.544,994.13,994.12,-1.14,-1.42,0.00,2.99,0.05,9.28,0.00,-0.00,0.00,0.00
2026-06-26 19:00:25.545,994.13,994.12,-1.14,-1.42,0.00,2.99,0.05,9.28,0.00,-0.00,0.00,0.00
2026-06-26 19:00:25.547,994.13,994.12,-1.14,-1.42,0.00,2.99,0.05,9.28,0.00,-0.00,0.00,0.00
2026-06-26 19:00:25.550,994.13,994.12,-1.14,-1.42,0.00,2.99,0.05,9.28,0.00,-0.00,0.00,0.00
2026-06-26 19:00:25.552,994.13,994.12,-1.14,-1.42,0.00,2.98,0.02,9.29,-0.00,0.00,0.00,0.00
2026-06-26 19:00:25.553,994.13,994.12,-1.14,-1.42,0.00,2.98,0.02,9.29,-0.00,0.00,0.00,0.00
2026-06-26 19:00:25.555,994.13,994.12,-1.14,-1.42,0.00,2.98,0.02,9.29,-0.00,0.00,0.00,0.00
2026-06-26 19:00:25.561,994.13,994.12,-1.14,-1.42,0.00,2.98,0.02,9.29,-0.00,0.00,0.00,0.00
2026-06-26 19:00:25.603,994.13,994.12,-1.20,-1.45,0.00,2.99,0.02,9.30,0.00,0.00,0.00,0.00
2026-06-26 19:00:25.605,994.13,994.12,-1.20,-1.45,0.00,2.99,0.02,9.30,0.00,0.00,0.00,0.00
2026-06-26 19:00:25.611,994.13,994.12,-1.20,-1.45,0.00,2.99,0.02,9.30,0.00,0.00,0.00,0.00
2026-06-26 19:00:25.612,994.13,994.12,-1.20,-1.45,0.00,3.01,0.04,9.29,0.00,-0.00,0.00,0.00
2026-06-26 19:00:25.614,994.13,994.12,-1.20,-1.45,0.00,3.01,0.04,9.29,0.00,-0.00,0.00,0.00
2026-06-26 19:00:25.618,994.13,994.12,-1.20,-1.45,0.00,3.01,0.04,9.29,0.00,-0.00,0.00,0.00
2026-06-26 19:00:25.621,994.13,994.12,-1.20,-1.45,0.00,3.01,0.04,9.29,0.00,-0.00,0.00,0.00
2026-06-26 19:00:25.623,994.13,994.12,-1.20,-1.45,0.00,3.00,0.02,9.27,0.00,-0.00,0.00,0.00
2026-06-26 19:00:25.625,994.13,994.12,-1.20,-1.45,0.00,3.00,0.02,9.27,0.00,-0.00,0.00,0.00
2026-06-26 19:00:25.631,994.13,994.12,-1.20,-1.45,0.00,3.00,0.02,9.27,-0.00,0.00,0.00,0.00
2026-06-26 19:00:25.633,994.13,994.12,-1.20,-1.45,0.00,3.00,0.01,9.29,-0.00,0.00,0.00,0.00
2026-06-26 19:00:25.641,994.13,994.12,-1.20,-1.45,0.00,3.00,0.01,9.29,-0.00,0.00,0.00,0.00
2026-06-26 19:00:25.683,994.13,994.12,-1.41,-1.57,0.00,2.99,0.03,9.28,0.00,0.00,0.00,0.00
2026-06-26 19:00:25.686,994.13,994.12,-1.41,-1.57,0.00,2.99,0.03,9.28,0.00,0.00,0.00,0.00
2026-06-26 19:00:25.692,994.13,994.12,-1.41,-1.57,0.00,2.99,0.03,9.28,0.00,0.00,0.00,0.00
2026-06-26 19:00:25.693,994.13,994.12,-1.41,-1.57,0.00,3.01,0.02,9.28,0.00,0.00,0.00,0.00
2026-06-26 19:00:25.695,994.13,994.12,-1.41,-1.57,0.00,3.01,0.02,9.28,0.00,0.00,0.00,0.00
2026-06-26 19:00:25.697,994.13,994.12,-1.41,-1.57,0.00,3.01,0.02,9.28,0.00,0.00,0.00,0.00
2026-06-26 19:00:25.700,994.13,994.12,-1.41,-1.57,0.00,3.01,0.02,9.28,0.00,0.00,0.00,0.00
2026-06-26 19:00:25.702,994.13,994.12,-1.41,-1.57,0.00,2.99,0.04,9.31,0.00,0.00,0.00,0.00
2026-06-26 19:00:25.744,994.14,994.12,-1.44,-1.59,0.00,3.00,0.04,9.29,-0.00,0.00,0.00,0.00
2026-06-26 19:00:25.746,994.14,994.12,-1.44,-1.59,0.00,3.00,0.04,9.29,-0.00,0.00,0.00,0.00
2026-06-26 19:00:25.747,994.14,994.12,-1.44,-1.59,0.00,3.00,0.04,9.29,-0.00,0.00,0.00,0.00
2026-06-26 19:00:25.751,994.14,994.12,-1.44,-1.59,0.00,3.00,0.04,9.29,-0.00,0.00,0.00,0.00
2026-06-26 19:00:25.752,994.14,994.12,-1.44,-1.59,0.00,3.01,0.05,9.31,0.00,0.00,-0.00,0.00
2026-06-26 19:00:25.754,994.14,994.12,-1.44,-1.59,0.00,3.01,0.05,9.31,0.00,0.00,-0.00,0.00
2026-06-26 19:00:25.755,994.14,994.12,-1.44,-1.59,0.00,3.01,0.05,9.31,0.00,0.00,-0.00,0.00
2026-06-26 19:00:25.761,994.14,994.12,-1.44,-1.59,0.00,3.01,0.05,9.31,0.00,0.00,-0.00,0.00
2026-06-26 19:00:25.762,994.14,994.12,-1.44,-1.59,0.00,2.98,0.05,9.32,0.00,0.00,0.00,0.00
2026-06-26 19:00:25.764,994.14,994.12,-1.44,-1.59,0.00,2.98,0.05,9.32,0.00,0.00,0.00,0.00
2026-06-26 19:00:25.765,994.14,994.12,-1.44,-1.59,0.00,2.98,0.05,9.32,0.00,0.00,0.00,0.00
2026-06-26 19:00:25.771,994.14,994.12,-1.44,-1.59,0.00,2.98,0.05,9.32,0.00,0.00,0.00,0.00
2026-06-26 19:00:25.773,994.14,994.12,-1.44,-1.59,0.00,2.99,0.02,9.27,0.00,0.00,-0.00,0.00
2026-06-26 19:00:25.780,994.14,994.12,-1.44,-1.59,0.00,2.99,0.02,9.27,0.00,0.00,-0.00,0.00
2026-06-26 19:00:25.782,994.14,994.12,-1.44,-1.59,0.00,3.01,0.03,9.27,0.00,0.00,0.00,0.00
2026-06-26 19:00:25.825,994.14,994.12,-1.26,-1.49,0.00,2.98,0.02,9.28,-0.00,-0.00,0.00,0.00
2026-06-26 19:00:25.830,994.14,994.12,-1.26,-1.49,0.00,2.98,0.02,9.28,-0.00,-0.00,0.00,0.00
2026-06-26 19:00:25.833,994.14,994.12,-1.26,-1.49,0.00,2.99,0.02,9.30,0.00,-0.00,0.00,0.00
2026-06-26 19:00:25.835,994.14,994.12,-1.26,-1.49,0.00,2.99,0.02,9.30,0.00,-0.00,0.00,0.00
2026-06-26 19:00:25.840,994.14,994.12,-1.26,-1.49,0.00,2.99,0.02,9.30,0.00,-0.00,0.00,0.00
2026-06-26 19:00:25.842,994.14,994.12,-1.26,-1.49,0.00,2.99,0.02,9.30,-0.00,-0.00,0.00,0.00
2026-06-26 19:00:25.844,994.14,994.12,-1.26,-1.49,0.00,2.99,0.02,9.30,-0.00,-0.00,0.00,0.00
2026-06-26 19:00:25.883,994.14,994.12,-1.32,-1.52,0.00,2.98,0.02,9.31,0.00,-0.00,0.00,0.00
2026-06-26 19:00:25.885,994.14,994.12,-1.32,-1.52,0.00,2.98,0.02,9.31,0.00,-0.00,0.00,0.00
2026-06-26 19:00:25.889,994.14,994.12,-1.32,-1.52,0.00,2.98,0.02,9.31,0.00,-0.00,0.00,0.00
2026-06-26 19:00:25.892,994.14,994.12,-1.32,-1.52,0.00,2.98,0.02,9.31,0.00,0.00,0.00,0.00
2026-06-26 19:00:25.894,994.14,994.12,-1.32,-1.52,0.00,3.01,0.03,9.29,0.00,0.00,0.00,0.00
2026-06-26 19:00:25.895,994.14,994.12,-1.32,-1.52,0.00,3.01,0.03,9.29,0.00,0.00,0.00,0.00
2026-06-26 19:00:25.897,994.14,994.12,-1.32,-1.52,0.00,3.01,0.03,9.29,0.00,0.00,0.00,0.00
2026-06-26 19:00:25.898,994.14,994.12,-1.32,-1.52,0.00,3.01,0.03,9.29,0.00,0.00,0.00,0.00
2026-06-26 19:00:25.903,994.14,994.12,-1.32,-1.52,0.00,3.01,0.03,9.29,0.00,0.00,0.00,0.00
2026-06-26 19:00:25.905,994.14,994.12,-1.32,-1.52,0.00,2.99,0.02,9.33,0.00,0.00,0.00,0.00
2026-06-26 19:00:25.911,994.14,994.12,-1.32,-1.52,0.00,2.99,0.02,9.33,0.00,0.00,0.00,0.00
2026-06-26 19:00:25.913,994.14,994.12,-1.32,-1.52,0.00,2.98,0.04,9.31,-0.00,0.00,0.00,0.00
2026-06-26 19:00:25.914,994.14,994.12,-1.32,-1.52,0.00,2.98,0.04,9.31,-0.00,0.00,0.00,0.00
2026-06-26 19:00:25.917,994.14,994.12,-1.32,-1.52,0.00,2.98,0.04,9.31,-0.00,0.00,0.00,0.00
2026-06-26 19:00:25.921,994.14,994.12,-1.32,-1.52,0.00,2.98,0.04,9.31,-0.00,0.00,0.00,0.00
2026-06-26 19:00:25.923,994.14,994.12,-1.32,-1.52,0.00,2.98,0.03,9.27,0.00,0.00,0.00,0.00
2026-06-26 19:00:25.962,994.14,994.12,-1.14,-1.42,0.00,3.01,0.02,9.28,0.00,0.00,0.00,0.00
2026-06-26 19:00:25.964,994.14,994.12,-1.14,-1.42,0.00,3.01,0.02,9.30,0.00,0.00,0.00,0.00
2026-06-26 19:00:25.965,994.14,994.12,-1.14,-1.42,0.00,3.01,0.02,9.30,0.00,0.00,0.00,0.00
2026-06-26 19:00:25.971,994.14,994.12,-1.14,-1.42,0.00,3.01,0.02,9.30,0.00,0.00,0.00,0.00
2026-06-26 19:00:25.973,994.14,994.12,-1.14,-1.42,0.00,2.99,0.04,9.30,0.00,0.00,-0.00,0.00
2026-06-26 19:00:25.975,994.14,994.12,-1.14,-1.42,0.00,2.99,0.04,9.30,0.00,0.00,-0.00,0.00
2026-06-26 19:00:25.979,994.14,994.12,-1.14,-1.42,0.00,2.99,0.04,9.30,0.00,0.00,-0.00,0.00
2026-06-26 19:00:25.982,994.14,994.12,-1.14,-1.42,0.00,2.99,0.04,9.30,0.00,0.00,-0.00,0.00
2026-06-26 19:00:26.026,994.13,994.12,-1.06,-1.37,0.00,3.01,0.01,9.29,0.00,0.00,0.00,0.00
2026-06-26 19:00:26.031,994.13,994.12,-1.06,-1.37,0.00,3.01,0.01,9.29,0.00,0.00,0.00,0.00
2026-06-26 19:00:26.033,994.13,994.12,-1.06,-1.37,0.00,3.00,0.03,9.30,0.00,0.00,-0.00,0.00
2026-06-26 19:00:26.035,994.13,994.12,-1.06,-1.37,0.00,3.00,0.03,9.30,0.00,0.00,-0.00,0.00
2026-06-26 19:00:26.037,994.13,994.12,-1.06,-1.37,0.00,3.00,0.03,9.30,0.00,0.00,-0.00,0.00
2026-06-26 19:00:26.042,994.13,994.12,-1.06,-1.37,0.00,3.00,0.03,9.30,0.00,0.00,-0.00,0.00
2026-06-26 19:00:26.043,994.13,994.12,-1.06,-1.37,0.00,2.99,0.03,9.29,0.00,-0.00,0.00,0.00
2026-06-26 19:00:26.045,994.13,994.12,-1.06,-1.37,0.00,2.99,0.03,9.29,0.00,-0.00,0.00,0.00
2026-06-26 19:00:26.047,994.13,994.12,-1.06,-1.37,0.00,2.99,0.03,9.29,0.00,-0.00,0.00,0.00
2026-06-26 19:00:26.048,994.13,994.12,-1.06,-1.37,0.00,2.99,0.03,9.29,0.00,-0.00,0.00,0.00
2026-06-26 19:00:26.052,994.13,994.12,-1.06,-1.37,0.00,2.99,0.03,9.29,0.00,-0.00,0.00,0.00
2026-06-26 19:00:26.054,994.13,994.12,-1.06,-1.37,0.00,2.99,0.03,9.28,0.00,-0.00,0.00,0.00
2026-06-26 19:00:26.055,994.13,994.12,-1.06,-1.37,0.00,2.99,0.03,9.28,0.00,-0.00,0.00,0.00
2026-06-26 19:00:26.061,994.13,994.12,-1.06,-1.37,0.00,2.99,0.03,9.28,0.00,-0.00,0.00,0.00
2026-06-26 19:00:26.104,994.13,994.12,-1.21,-1.46,0.00,2.98,0.03,9.30,-0.00,0.00,0.00,0.00
2026-06-26 19:00:26.112,994.13,994.12,-1.21,-1.46,0.00,2.98,0.03,9.30,-0.00,0.00,0.00,0.00
2026-06-26 19:00:26.114,994.13,994.12,-1.21,-1.46,0.00,3.01,0.02,9.31,0.00,0.00,0.00,0.00
2026-06-26 19:00:26.116,994.13,994.12,-1.21,-1.46,0.00,3.01,0.02,9.31,0.00,0.00,0.00,0.00
2026-06-26 19:00:26.122,994.13,994.12,-1.21,-1.46,0.00,3.01,0.02,9.31,0.00,0.00,0.00,0.00
2026-06-26 19:00:26.124,994.13,994.12,-1.21,-1.46,0.00,2.99,0.04,9.29,0.00,-0.00,0.00,0.00
2026-06-26 19:00:26.125,994.13,994.12,-1.21,-1.46,0.00,2.99,0.04,9.29,0.00,-0.00,0.00,0.00
2026-06-26 19:00:26.172,994.13,994.12,-0.79,-1.18,0.00,3.01,0.04,9.30,-0.00,-0.00,0.00,0.00
2026-06-26 19:00:26.175,994.13,994.12,-0.79,-1.18,0.00,2.99,0.05,9.27,0.00,-0.00,0.00,0.00
2026-06-26 19:00:26.179,994.13,994.12,-0.79,-1.18,0.00,2.99,0.05,9.27,0.00,-0.00,0.00,0.00
2026-06-26 19:00:26.183,994.13,994.12,-0.79,-1.18,0.00,2.99,0.05,9.27,0.00,0.00,0.00,0.00
2026-06-26 19:00:26.184,994.13,994.12,-0.79,-1.18,0.00,3.00,0.04,9.29,0.00,0.00,0.00,0.00
2026-06-26 19:00:26.186,994.13,994.12,-0.79,-1.18,0.00,3.00,0.04,9.29,0.00,0.00,0.00,0.00
2026-06-26 19:00:26.191,994.13,994.12,-0.79,-1.18,0.00,3.00,0.04,9.29,0.00,0.00,0.00,0.00
2026-06-26 19:00:26.193,994.13,994.12,-0.79,-1.18,0.00,2.98,0.01,9.30,0.00,-0.00,0.00,0.00
2026-06-26 19:00:26.195,994.13,994.12,-0.79,-1.18,0.00,2.98,0.01,9.30,0.00,-0.00,0.00,0.00
2026-06-26 19:00:26.196,994.13,994.12,-0.79,-1.18,0.00,2.98,0.01,9.30,0.00,-0.00,0.00,0.00
2026-06-26 19:00:26.198,994.13,994.12,-0.79,-1.18,0.00,2.98,0.01,9.30,0.00,-0.00,0.00,0.00
2026-06-26 19:00:26.199,994.13,994.12,-0.79,-1.18,0.00,2.98,0.01,9.30,0.00,-0.00,0.00,0.00
2026-06-26 19:00:26.203,994.13,994.12,-0.79,-1.18,0.00,2.98,0.01,9.30,0.00,0.00,0.00,0.00
2026-06-26 19:00:26.243,994.13,994.12,-0.79,-1.18,0.00,3.00,0.02,9.28,0.00,0.00,0.00,0.00
2026-06-26 19:00:26.245,994.13,994.12,-0.79,-1.18,0.00,3.01,0.04,9.30,0.00,0.00,0.00,0.00
2026-06-26 19:00:26.246,994.13,994.12,-0.79,-1.18,0.00,3.01,0.04,9.30,0.00,0.00,0.00,0.00
2026-06-26 19:00:26.248,994.13,994.12,-0.79,-1.18,0.00,3.01,0.04,9.30,0.00,0.00,0.00,0.00
2026-06-26 19:00:26.252,994.13,994.12,-0.79,-1.18,0.00,3.01,0.04,9.30,0.00,-0.00,-0.00,0.00
2026-06-26 19:00:26.254,994.13,994.12,-0.79,-1.18,0.00,2.99,0.03,9.31,0.00,-0.00,-0.00,0.00
2026-06-26 19:00:26.256,994.13,994.12,-0.79,-1.18,0.00,2.99,0.03,9.31,0.00,-0.00,-0.00,0.00
2026-06-26 19:00:26.261,994.13,994.12,-0.79,-1.18,0.00,2.99,0.03,9.31,0.00,-0.00,-0.00,0.00
2026-06-26 19:00:26.263,994.13,994.12,-0.79,-1.18,0.00,2.98,0.04,9.29,0.00,0.00,0.00,0.00
2026-06-26 19:00:26.265,994.13,994.12,-0.79,-1.18,0.00,2.98,0.04,9.29,0.00,0.00,0.00,0.00
2026-06-26 19:00:26.266,994.13,994.12,-0.79,-1.18,0.00,2.98,0.04,9.29,0.00,0.00,0.00,0.00
2026-06-26 19:00:26.313,994.13,994.12,-0.88,-1.24,0.00,3.00,0.02,9.32,0.00,-0.00,0.00,0.00
2026-06-26 19:00:26.314,994.13,994.12,-0.88,-1.24,0.00,2.97,0.04,9.30,0.00,-0.00,0.00,0.00
2026-06-26 19:00:26.316,994.13,994.12,-0.88,-1.24,0.00,2.97,0.04,9.30,0.00,-0.00,0.00,0.00
2026-06-26 19:00:26.319,994.13,994.12,-0.88,-1.24,0.00,2.97,0.04,9.30,0.00,-0.00,0.00,0.00
2026-06-26 19:00:26.323,994.13,994.12,-0.88,-1.24,0.00,2.97,0.04,9.30,0.00,0.00,-0.00,0.00
2026-06-26 19:00:26.324,994.13,994.12,-0.88,-1.24,0.00,2.99,0.02,9.29,0.00,0.00,-0.00,0.00
2026-06-26 19:00:26.326,994.13,994.12,-0.88,-1.24,0.00,2.99,0.02,9.29,0.00,0.00,-0.00,0.00
2026-06-26 19:00:26.327,994.13,994.12,-0.88,-1.24,0.00,2.99,0.02,9.29,0.00,0.00,-0.00,0.00
2026-06-26 19:00:26.331,994.13,994.12,-0.88,-1.24,0.00,2.99,0.02,9.29,0.00,0.00,-0.00,0.00
2026-06-26 19:00:26.333,994.13,994.12,-0.88,-1.24,0.00,2.99,0.02,9.29,0.00,0.00,0.00,0.00
2026-06-26 19:00:26.335,994.13,994.12,-0.88,-1.24,0.00,2.99,0.02,9.29,0.00,0.00,0.00,0.00
2026-06-26 19:00:26.336,994.13,994.12,-0.88,-1.24,0.00,2.99,0.02,9.29,0.00,0.00,0.00,0.00
2026-06-26 19:00:26.340,994.13,994.12,-0.88,-1.24,0.00,2.99,0.02,9.29,0.00,0.00,0.00,0.00
2026-06-26 19:00:26.382,994.13,994.12,-0.91,-1.27,0.00,3.01,0.04,9.28,-0.00,-0.00,-0.00,0.00
2026-06-26 19:00:26.384,994.13,994.12,-0.91,-1.27,0.00,3.00,0.02,9.29,-0.00,-0.00,-0.00,0.00
2026-06-26 19:00:26.389,994.13,994.12,-0.91,-1.27,0.00,3.00,0.02,9.29,-0.00,-0.00,-0.00,0.00
2026-06-26 19:00:26.393,994.13,994.12,-0.91,-1.27,0.00,3.00,0.02,9.29,-0.00,0.00,-0.00,0.00
2026-06-26 19:00:26.397,994.13,994.12,-0.91,-1.27,0.00,3.00,0.03,9.32,-0.00,0.00,-0.00,0.00
2026-06-26 19:00:26.399,994.13,994.12,-0.91,-1.27,0.00,3.00,0.03,9.32,-0.00,0.00,-0.00,0.00
2026-06-26 19:00:26.403,994.13,994.12,-0.91,-1.27,0.00,3.00,0.03,9.32,-0.00,0.00,0.00,0.00
2026-06-26 19:00:26.405,994.13,994.12,-0.91,-1.27,0.00,3.00,0.02,9.28,-0.00,0.00,0.00,0.00
2026-06-26 19:00:26.407,994.13,994.12,-0.91,-1.27,0.00,3.00,0.02,9.28,-0.00,0.00,0.00,0.00
2026-06-26 19:00:26.413,994.13,994.12,-0.91,-1.27,0.00,3.00,0.02,9.28,-0.00,0.00,0.00,0.00
2026-06-26 19:00:26.455,994.13,994.12,-1.14,-1.42,0.00,2.99,0.01,9.30,-0.00,-0.00,0.00,0.00
2026-06-26 19:00:26.462,994.13,994.12,-1.14,-1.42,0.00,2.99,0.01,9.30,-0.00,-0.00,0.00,0.00
2026-06-26 19:00:26.464,994.13,994.12,-1.14,-1.42,0.00,2.99,0.03,9.28,-0.00,-0.00,-0.00,0.00
2026-06-26 19:00:26.466,994.13,994.12,-1.14,-1.42,0.00,2.99,0.03,9.28,-0.00,-0.00,-0.00,0.00
2026-06-26 19:00:26.473,994.13,994.12,-1.14,-1.42,0.00,2.99,0.03,9.28,-0.00,-0.00,-0.00,0.00
2026-06-26 19:00:26.475,994.13,994.12,-1.14,-1.42,0.00,3.00,0.02,9.27,-0.00,0.00,0.00,0.00
2026-06-26 19:00:26.477,994.13,994.12,-1.14,-1.42,0.00,3.00,0.02,9.27,-0.00,0.00,0.00,0.00
2026-06-26 19:00:26.523,994.13,994.12,-0.93,-1.28,0.00,3.01,0.05,9.29,-0.00,0.00,0.00,0.00
2026-06-26 19:00:26.525,994.13,994.12,-0.93,-1.28,0.00,3.00,0.00,9.29,-0.00,0.00,0.00,0.00
2026-06-26 19:00:26.526,994.13,994.12,-0.93,-1.28,0.00,3.00,0.00,9.29,-0.00,0.00,0.00,0.00
2026-06-26 19:00:26.527,994.13,994.12,-0.93,-1.28,0.00,3.00,0.00,9.29,-0.00,0.00,0.00,0.00
2026-06-26 19:00:26.532,994.13,994.12,-0.93,-1.28,0.00,3.00,0.00,9.29,-0.00,0.00,0.00,0.00
2026-06-26 19:00:26.534,994.13,994.12,-0.93,-1.28,0.00,2.99,0.04,9.27,0.00,0.00,-0.00,0.00
2026-06-26 19:00:26.535,994.13,994.12,-0.93,-1.28,0.00,2.99,0.04,9.27,0.00,0.00,-0.00,0.00
2026-06-26 19:00:26.537,994.13,994.12,-0.93,-1.28,0.00,2.99,0.04,9.27,0.00,0.00,-0.00,0.00
2026-06-26 19:00:26.543,994.13,994.12,-0.93,-1.28,0.00,2.99,0.04,9.27,0.00,0.00,-0.00,0.00
2026-06-26 19:00:26.545,994.13,994.12,-0.93,-1.28,0.00,2.98,0.04,9.29,0.00,0.00,-0.00,0.00
2026-06-26 19:00:26.546,994.13,994.12,-0.93,-1.28,0.00,2.98,0.04,9.29,0.00,0.00,-0.00,0.00
2026-06-26 19:00:26.548,994.13,994.12,-0.93,-1.28,0.00,2.98,0.04,9.29,0.00,0.00,-0.00,0.00
2026-06-26 19:00:26.549,994.13,994.12,-0.93,-1.28,0.00,2.98,0.04,9.29,0.00,0.00,-0.00,0.00
2026-06-26 19:00:26.550,994.13,994.12,-0.93,-1.28,0.00,2.98,0.04,9.29,0.00,0.00,-0.00,0.00
2026-06-26 19:00:26.553,994.13,994.12,-0.93,-1.28,0.00,2.98,0.04,9.29,-0.00,0.00,0.00,0.00
2026-06-26 19:00:26.599,994.13,994.12,-0.72,-1.13,0.00,2.99,0.05,9.28,0.00,0.00,0.00,0.00
2026-06-26 19:00:26.603,994.13,994.12,-0.72,-1.13,0.00,2.99,0.05,9.28,0.00,0.00,-0.00,0.00
2026-06-26 19:00:26.605,994.13,994.12,-0.72,-1.13,0.00,3.00,0.04,9.29,0.00,0.00,-0.00,0.00
2026-06-26 19:00:26.606,994.13,994.12,-0.72,-1.13,0.00,3.00,0.04,9.29,0.00,0.00,-0.00,0.00
2026-06-26 19:00:26.613,994.13,994.12,-0.72,-1.13,0.00,3.00,0.04,9.29,0.00,0.00,-0.00,0.00
2026-06-26 19:00:26.616,994.13,994.12,-0.72,-1.13,0.00,3.00,0.06,9.29,-0.00,0.00,0.00,0.00
2026-06-26 19:00:26.621,994.13,994.12,-0.72,-1.13,0.00,3.00,0.06,9.29,-0.00,0.00,0.00,0.00
2026-06-26 19:00:26.666,994.13,994.13,-0.60,-1.02,0.00,2.99,0.04,9.30,-0.00,0.00,0.00,0.00
2026-06-26 19:00:26.672,994.13,994.13,-0.60,-1.02,0.00,2.99,0.04,9.30,-0.00,0.00,0.00,0.00
2026-06-26 19:00:26.674,994.13,994.13,-0.60,-1.02,0.00,2.99,0.02,9.26,0.00,0.00,-0.00,0.00
2026-06-26 19:00:26.676,994.13,994.13,-0.60,-1.02,0.00,2.99,0.02,9.26,0.00,0.00,-0.00,0.00
2026-06-26 19:00:26.677,994.13,994.13,-0.60,-1.02,0.00,2.99,0.02,9.26,0.00,0.00,-0.00,0.00
2026-06-26 19:00:26.683,994.13,994.13,-0.60,-1.02,0.00,2.99,0.02,9.26,0.00,0.00,-0.00,0.00
2026-06-26 19:00:26.685,994.13,994.13,-0.60,-1.02,0.00,2.99,0.04,9.30,0.00,0.00,0.00,0.00
2026-06-26 19:00:26.687,994.13,994.13,-0.60,-1.02,0.00,2.99,0.04,9.30,0.00,0.00,0.00,0.00
2026-06-26 19:00:26.692,994.13,994.13,-0.60,-1.02,0.00,2.99,0.04,9.30,0.00,0.00,0.00,0.00
2026-06-26 19:00:26.694,994.13,994.13,-0.60,-1.02,0.00,2.99,0.04,9.27,0.00,0.00,0.00,0.00
2026-06-26 19:00:26.696,994.13,994.13,-0.60,-1.02,0.00,2.99,0.04,9.27,0.00,0.00,0.00,0.00
2026-06-26 19:00:26.697,994.13,994.13,-0.60,-1.02,0.00,2.99,0.04,9.27,0.00,0.00,0.00,0.00
2026-06-26 19:00:26.744,994.13,994.13,-0.59,-1.02,0.00,3.00,0.01,9.30,-0.00,0.00,-0.00,0.00
2026-06-26 19:00:26.745,994.13,994.13,-0.59,-1.02,0.00,3.01,0.03,9.33,-0.00,0.00,-0.00,0.00
2026-06-26 19:00:26.747,994.13,994.13,-0.59,-1.02,0.00,3.01,0.03,9.33,-0.00,0.00,-0.00,0.00
2026-06-26 19:00:26.749,994.13,994.13,-0.59,-1.02,0.00,3.01,0.03,9.33,-0.00,0.00,-0.00,0.00
2026-06-26 19:00:26.750,994.13,994.13,-0.59,-1.02,0.00,3.01,0.03,9.33,-0.00,0.00,-0.00,0.00
2026-06-26 19:00:26.753,994.13,994.13,-0.59,-1.02,0.00,3.01,0.03,9.33,-0.00,0.00,-0.00,0.00
2026-06-26 19:00:26.755,994.13,994.13,-0.59,-1.02,0.00,3.01,0.02,9.28,-0.00,-0.00,0.00,0.00
2026-06-26 19:00:26.756,994.13,994.13,-0.59,-1.02,0.00,3.01,0.02,9.28,-0.00,-0.00,0.00,0.00
2026-06-26 19:00:26.760,994.13,994.13,-0.59,-1.02,0.00,3.01,0.02,9.28,-0.00,-0.00,0.00,0.00
2026-06-26 19:00:26.764,994.13,994.13,-0.59,-1.02,0.00,3.01,0.02,9.28,-0.00,-0.00,-0.00,0.00
2026-06-26 19:00:26.765,994.13,994.13,-0.59,-1.02,0.00,3.01,0.01,9.27,-0.00,-0.00,-0.00,0.00
2026-06-26 19:00:26.813,994.13,994.13,-0.41,-0.85,0.00,3.00,0.05,9.32,-0.00,-0.00,0.00,0.00
2026-06-26 19:00:26.815,994.13,994.13,-0.41,-0.85,0.00,2.98,0.02,9.30,-0.00,0.00,-0.00,0.00
2026-06-26 19:00:26.817,994.13,994.13,-0.41,-0.85,0.00,2.98,0.02,9.30,-0.00,0.00,-0.00,0.00
2026-06-26 19:00:26.821,994.13,994.13,-0.41,-0.85,0.00,2.98,0.02,9.30,-0.00,0.00,-0.00,0.00
2026-06-26 19:00:26.825,994.13,994.13,-0.41,-0.85,0.00,2.98,0.02,9.30,0.00,0.00,0.00,0.00
2026-06-26 19:00:26.830,994.13,994.13,-0.41,-0.85,0.00,3.00,0.03,9.28,0.00,0.00,0.00,0.00
2026-06-26 19:00:26.834,994.13,994.13,-0.41,-0.85,0.00,3.00,0.03,9.28,-0.00,-0.00,0.00,0.00
2026-06-26 19:00:26.836,994.13,994.13,-0.41,-0.85,0.00,2.99,0.04,9.28,-0.00,-0.00,0.00,0.00
2026-06-26 19:00:26.838,994.13,994.13,-0.41,-0.85,0.00,2.99,0.04,9.28,-0.00,-0.00,0.00,0.00
2026-06-26 19:00:26.844,994.13,994.13,-0.41,-0.85,0.00,2.99,0.04,9.28,-0.00,-0.00,0.00,0.00
2026-06-26 19:00:26.887,994.13,994.13,-0.30,-0.73,0.00,2.99,0.00,9.30,0.00,0.00,0.00,0.00
2026-06-26 19:00:26.892,994.13,994.13,-0.30,-0.73,0.00,2.99,0.00,9.30,0.00,0.00,0.00,0.00
2026-06-26 19:00:26.895,994.13,994.13,-0.30,-0.73,0.00,2.99,0.00,9.29,0.00,0.00,0.00,0.00
2026-06-26 19:00:26.896,994.13,994.13,-0.30,-0.73,0.00,2.99,0.00,9.29,0.00,0.00,0.00,0.00
2026-06-26 19:00:26.898,994.13,994.13,-0.30,-0.73,0.00,2.99,0.00,9.29,0.00,0.00,0.00,0.00
2026-06-26 19:00:26.903,994.13,994.13,-0.30,-0.73,0.00,2.99,0.00,9.29,0.00,0.00,0.00,0.00
2026-06-26 19:00:26.905,994.13,994.13,-0.30,-0.73,0.00,2.99,0.01,9.31,0.00,-0.00,0.00,0.00
2026-06-26 19:00:26.906,994.13,994.13,-0.30,-0.73,0.00,2.99,0.01,9.31,0.00,-0.00,0.00,0.00
2026-06-26 19:00:26.945,994.13,994.13,-0.13,-0.47,0.00,2.99,0.03,9.33,0.00,-0.00,-0.00,0.00
2026-06-26 19:00:26.947,994.13,994.13,-0.13,-0.47,0.00,2.99,0.03,9.33,0.00,-0.00,-0.00,0.00
2026-06-26 19:00:26.948,994.13,994.13,-0.13,-0.47,0.00,2.99,0.03,9.33,0.00,-0.00,-0.00,0.00
2026-06-26 19:00:26.950,994.13,994.13,-0.13,-0.47,0.00,2.99,0.03,9.33,0.00,-0.00,-0.00,0.00
2026-06-26 19:00:26.952,994.13,994.13,-0.13,-0.47,0.00,2.99,0.03,9.33,0.00,-0.00,-0.00,0.00
2026-06-26 19:00:26.955,994.13,994.13,-0.13,-0.47,0.00,2.99,0.03,9.33,0.00,0.00,-0.00,0.00
2026-06-26 19:00:26.958,994.13,994.13,-0.13,-0.47,0.00,3.00,0.03,9.32,0.00,0.00,-0.00,0.00
2026-06-26 19:00:26.964,994.13,994.13,-0.13,-0.47,0.00,3.00,0.03,9.32,0.00,0.00,-0.00,0.00
2026-06-26 19:00:26.965,994.13,994.13,-0.13,-0.47,0.00,3.01,0.01,9.30,-0.00,0.00,-0.00,0.00
2026-06-26 19:00:26.967,994.13,994.13,-0.13,-0.47,0.00,3.01,0.01,9.30,-0.00,0.00,-0.00,0.00
2026-06-26 19:00:26.971,994.13,994.13,-0.13,-0.47,0.00,3.01,0.01,9.30,-0.00,0.00,-0.00,0.00
2026-06-26 19:00:26.974,994.13,994.13,-0.13,-0.47,0.00,3.01,0.01,9.30,0.00,0.00,0.00,0.00
2026-06-26 19:00:26.976,994.13,994.13,-0.13,-0.47,0.00,2.99,0.03,9.25,0.00,0.00,0.00,0.00
2026-06-26 19:00:26.977,994.13,994.13,-0.13,-0.47,0.00,2.99,0.03,9.25,0.00,0.00,0.00,0.00
2026-06-26 19:00:26.982,994.13,994.13,-0.13,-0.47,0.00,2.99,0.03,9.25,0.00,0.00,0.00,0.00
2026-06-26 19:00:26.985,994.13,994.13,-0.13,-0.47,0.00,3.00,0.01,9.30,0.00,0.00,0.00,0.00
2026-06-26 19:00:26.987,994.13,994.13,-0.13,-0.47,0.00,3.00,0.01,9.30,0.00,0.00,0.00,0.00
2026-06-26 19:00:27.034,994.13,994.13,0.22,0.62,0.00,2.99,0.04,9.28,0.00,-0.00,0.00,0.00
2026-06-26 19:00:27.036,994.13,994.13,0.22,0.62,0.00,2.98,0.02,9.30,0.00,-0.00,0.00,0.00
2026-06-26 19:00:27.037,994.13,994.13,0.22,0.62,0.00,2.98,0.02,9.30,0.00,-0.00,0.00,0.00
2026-06-26 19:00:27.041,994.13,994.13,0.22,0.62,0.00,2.98,0.02,9.30,0.00,-0.00,0.00,0.00
2026-06-26 19:00:27.045,994.13,994.13,0.22,0.62,0.00,2.98,0.02,9.30,0.00,0.00,-0.00,0.00
2026-06-26 19:00:27.087,994.13,994.13,0.57,1.00,0.00,2.98,0.01,9.29,0.00,0.00,0.00,0.00
2026-06-26 19:00:27.094,994.13,994.13,0.57,1.00,0.00,2.98,0.01,9.29,0.00,0.00,0.00,0.00
2026-06-26 19:00:27.096,994.13,994.13,0.57,1.00,0.00,2.99,0.04,9.29,0.00,0.00,-0.00,0.00
2026-06-26 19:00:27.098,994.13,994.13,0.57,1.00,0.00,2.99,0.04,9.29,0.00,0.00,-0.00,0.00
2026-06-26 19:00:27.101,994.13,994.13,0.57,1.00,0.00,2.99,0.04,9.29,0.00,0.00,-0.00,0.00
2026-06-26 19:00:27.105,994.13,994.13,0.57,1.00,0.00,2.99,0.04,9.29,0.00,-0.00,-0.00,0.00
2026-06-26 19:00:27.106,994.13,994.13,0.57,1.00,0.00,3.00,0.04,9.29,0.00,-0.00,-0.00,0.00
2026-06-26 19:00:27.108,994.13,994.13,0.57,1.00,0.00,3.00,0.04,9.29,0.00,-0.00,-0.00,0.00
2026-06-26 19:00:27.115,994.13,994.13,0.57,1.00,0.00,3.00,0.04,9.29,-0.00,0.00,0.00,0.00
2026-06-26 19:00:27.117,994.13,994.13,0.57,1.00,0.00,2.99,0.01,9.30,-0.00,0.00,0.00,0.00
2026-06-26 19:00:27.122,994.13,994.13,0.57,1.00,0.00,2.99,0.01,9.30,-0.00,0.00,0.00,0.00
2026-06-26 19:00:27.125,994.13,994.13,0.57,1.00,0.00,2.98,0.04,9.26,0.00,0.00,0.00,0.00
2026-06-26 19:00:27.127,994.13,994.13,0.57,1.00,0.00,2.98,0.04,9.26,0.00,0.00,0.00,0.00
2026-06-26 19:00:27.128,994.13,994.13,0.57,1.00,0.00,2.98,0.04,9.26,0.00,0.00,0.00,0.00
2026-06-26 19:00:27.133,994.13,994.13,0.57,1.00,0.00,2.98,0.04,9.26,0.00,0.00,0.00,0.00
2026-06-26 19:00:27.177,994.13,994.13,0.20,0.59,0.00,2.99,0.03,9.26,0.00,0.00,0.00,0.00
2026-06-26 19:00:27.181,994.13,994.13,0.20,0.59,0.00,2.99,0.03,9.26,0.00,0.00,0.00,0.00
2026-06-26 19:00:27.185,994.13,994.13,0.20,0.59,0.00,2.99,0.03,9.26,0.00,-0.00,0.00,0.00
2026-06-26 19:00:27.187,994.13,994.13,0.20,0.59,0.00,3.00,0.00,9.28,0.00,-0.00,0.00,0.00
2026-06-26 19:00:27.229,994.13,994.13,0.23,0.64,0.00,2.99,0.03,9.30,0.00,0.00,-0.00,0.00
2026-06-26 19:00:27.234,994.13,994.13,0.23,0.64,0.00,2.99,0.03,9.30,0.00,0.00,-0.00,0.00
2026-06-26 19:00:27.238,994.13,994.13,0.23,0.64,0.00,2.99,0.03,9.29,0.00,0.00,0.00,0.00
2026-06-26 19:00:27.244,994.13,994.13,0.23,0.64,0.00,2.99,0.03,9.29,0.00,0.00,0.00,0.00
2026-06-26 19:00:27.246,994.13,994.13,0.23,0.64,0.00,3.00,0.02,9.29,0.00,-0.00,-0.00,0.00
2026-06-26 19:00:27.247,994.13,994.13,0.23,0.64,0.00,3.00,0.02,9.29,0.00,-0.00,-0.00,0.00
2026-06-26 19:00:27.249,994.13,994.13,0.23,0.64,0.00,3.00,0.02,9.29,0.00,-0.00,-0.00,0.00
2026-06-26 19:00:27.250,994.13,994.13,0.23,0.64,0.00,3.00,0.02,9.29,0.00,-0.00,-0.00,0.00
2026-06-26 19:00:27.252,994.13,994.13,0.23,0.64,0.00,3.00,0.02,9.29,0.00,-0.00,-0.00,0.00
2026-06-26 19:00:27.255,994.13,994.13,0.23,0.64,0.00,3.00,0.02,9.29,-0.00,-0.00,-0.00,0.00
2026-06-26 19:00:27.258,994.13,994.13,0.23,0.64,0.00,3.01,0.02,9.28,-0.00,-0.00,-0.00,0.00
2026-06-26 19:00:27.264,994.13,994.13,0.23,0.64,0.00,3.01,0.02,9.28,-0.00,-0.00,-0.00,0.00
2026-06-26 19:00:27.270,994.13,994.13,0.23,0.64,0.00,2.99,0.01,9.29,0.00,0.00,0.00,0.00
2026-06-26 19:00:27.278,994.13,994.13,0.23,0.64,0.00,2.99,0.01,9.29,-0.00,0.00,-0.00,0.00
2026-06-26 19:00:27.318,994.13,994.13,0.16,0.54,0.00,2.99,0.03,9.28,0.00,-0.00,-0.00,0.00
2026-06-26 19:00:27.322,994.13,994.13,0.16,0.54,0.00,2.99,0.03,9.28,0.00,-0.00,-0.00,0.00
2026-06-26 19:00:27.325,994.13,994.13,0.16,0.54,0.00,2.99,0.03,9.28,0.00,0.00,0.00,0.00
2026-06-26 19:00:27.327,994.13,994.13,0.16,0.54,0.00,2.98,0.05,9.30,0.00,0.00,0.00,0.00
2026-06-26 19:00:27.328,994.13,994.13,0.16,0.54,0.00,2.98,0.05,9.30,0.00,0.00,0.00,0.00
2026-06-26 19:00:27.375,994.13,994.13,0.26,0.68,0.00,3.00,0.02,9.31,-0.00,0.00,-0.00,0.00
2026-06-26 19:00:27.376,994.13,994.13,0.26,0.68,0.00,3.00,0.04,9.29,-0.00,0.00,-0.00,0.00
2026-06-26 19:00:27.378,994.13,994.13,0.26,0.68,0.00,3.00,0.04,9.29,-0.00,0.00,-0.00,0.00
2026-06-26 19:00:27.381,994.13,994.13,0.26,0.68,0.00,3.00,0.04,9.29,-0.00,0.00,-0.00,0.00
2026-06-26 19:00:27.385,994.13,994.13,0.26,0.68,0.00,3.00,0.04,9.29,0.00,0.00,0.00,0.00
2026-06-26 19:00:27.386,994.13,994.13,0.26,0.68,0.00,3.01,0.03,9.27,0.00,0.00,0.00,0.00
2026-06-26 19:00:27.388,994.13,994.13,0.26,0.68,0.00,3.01,0.03,9.27,0.00,0.00,0.00,0.00
2026-06-26 19:00:27.392,994.13,994.13,0.26,0.68,0.00,3.01,0.03,9.27,0.00,0.00,0.00,0.00
2026-06-26 19:00:27.395,994.13,994.13,0.26,0.68,0.00,3.01,0.03,9.27,0.00,0.00,0.00,0.00
2026-06-26 19:00:27.397,994.13,994.13,0.26,0.68,0.00,3.01,0.02,9.31,0.00,0.00,0.00,0.00
2026-06-26 19:00:27.399,994.13,994.13,0.26,0.68,0.00,3.01,0.02,9.31,0.00,0.00,0.00,0.00
2026-06-26 19:00:27.400,994.13,994.13,0.26,0.68,0.00,3.01,0.02,9.31,0.00,0.00,0.00,0.00
2026-06-26 19:00:27.402,994.13,994.13,0.26,0.68,0.00,3.01,0.02,9.31,0.00,0.00,0.00,0.00
2026-06-26 19:00:27.405,994.13,994.13,0.26,0.68,0.00,3.01,0.02,9.31,0.00,-0.00,0.00,0.00
2026-06-26 19:00:27.407,994.13,994.13,0.26,0.68,0.00,3.00,0.02,9.33,0.00,-0.00,0.00,0.00
2026-06-26 19:00:27.408,994.13,994.13,0.26,0.68,0.00,3.00,0.02,9.33,0.00,-0.00,0.00,0.00
2026-06-26 19:00:27.414,994.13,994.13,0.26,0.68,0.00,3.00,0.02,9.33,0.00,-0.00,0.00,0.00
2026-06-26 19:00:27.416,994.13,994.13,0.26,0.68,0.00,3.00,0.03,9.29,-0.00,0.00,0.00,0.00
2026-06-26 19:00:27.458,994.13,994.13,0.61,1.03,0.00,3.00,0.03,9.32,0.00,-0.00,-0.00,0.00
2026-06-26 19:00:27.465,994.13,994.13,0.61,1.03,0.00,3.00,0.03,9.32,0.00,-0.00,-0.00,0.00
2026-06-26 19:00:27.467,994.13,994.13,0.61,1.03,0.00,2.98,0.01,9.29,-0.00,-0.00,0.00,0.00
2026-06-26 19:00:27.469,994.13,994.13,0.61,1.03,0.00,2.98,0.01,9.29,-0.00,-0.00,0.00,0.00
2026-06-26 19:00:27.475,994.13,994.13,0.61,1.03,0.00,2.98,0.01,9.29,-0.00,-0.00,0.00,0.00
2026-06-26 19:00:27.518,994.13,994.14,0.78,1.17,0.00,2.99,0.01,9.30,0.00,0.00,0.00,0.00
2026-06-26 19:00:27.521,994.13,994.14,0.78,1.17,0.00,2.99,0.01,9.30,0.00,0.00,0.00,0.00
2026-06-26 19:00:27.525,994.13,994.14,0.78,1.17,0.00,2.99,0.01,9.30,0.00,-0.00,-0.00,0.00
2026-06-26 19:00:27.527,994.13,994.14,0.78,1.17,0.00,3.00,0.02,9.28,0.00,-0.00,-0.00,0.00
2026-06-26 19:00:27.528,994.13,994.14,0.78,1.17,0.00,3.00,0.02,9.28,0.00,-0.00,-0.00,0.00
2026-06-26 19:00:27.530,994.13,994.14,0.78,1.17,0.00,3.00,0.02,9.28,0.00,-0.00,-0.00,0.00
2026-06-26 19:00:27.535,994.13,994.14,0.78,1.17,0.00,3.00,0.02,9.28,0.00,-0.00,-0.00,0.00
2026-06-26 19:00:27.537,994.13,994.14,0.78,1.17,0.00,2.97,0.03,9.29,0.00,-0.00,0.00,0.00
2026-06-26 19:00:27.538,994.13,994.14,0.78,1.17,0.00,2.97,0.03,9.29,0.00,-0.00,0.00,0.00
2026-06-26 19:00:27.541,994.13,994.14,0.78,1.17,0.00,2.97,0.03,9.29,0.00,-0.00,0.00,0.00
2026-06-26 19:00:27.546,994.13,994.14,0.78,1.17,0.00,2.97,0.03,9.29,0.00,0.00,-0.00,0.00
2026-06-26 19:00:27.547,994.13,994.14,0.78,1.17,0.00,2.99,0.03,9.29,0.00,0.00,-0.00,0.00
2026-06-26 19:00:27.549,994.13,994.14,0.78,1.17,0.00,2.99,0.03,9.29,0.00,0.00,-0.00,0.00
2026-06-26 19:00:27.551,994.13,994.14,0.78,1.17,0.00,2.99,0.03,9.29,0.00,0.00,-0.00,0.00
2026-06-26 19:00:27.552,994.13,994.14,0.78,1.17,0.00,2.99,0.03,9.29,0.00,0.00,-0.00,0.00
2026-06-26 19:00:27.555,994.13,994.14,0.78,1.17,0.00,2.99,0.03,9.29,0.00,-0.00,-0.00,0.00
2026-06-26 19:00:27.557,994.13,994.14,0.78,1.17,0.00,3.00,0.02,9.27,0.00,-0.00,-0.00,0.00
2026-06-26 19:00:27.599,994.13,994.14,0.51,0.95,0.00,3.00,0.04,9.27,0.00,-0.00,0.00,0.00
2026-06-26 19:00:27.601,994.13,994.14,0.51,0.95,0.00,3.00,0.04,9.27,0.00,-0.00,0.00,0.00
2026-06-26 19:00:27.602,994.13,994.14,0.51,0.95,0.00,3.00,0.04,9.27,0.00,-0.00,0.00,0.00
2026-06-26 19:00:27.606,994.13,994.14,0.51,0.95,0.00,3.00,0.04,9.27,0.00,-0.00,-0.00,0.00
2026-06-26 19:00:27.608,994.13,994.14,0.51,0.95,0.00,2.99,0.04,9.31,0.00,-0.00,-0.00,0.00
2026-06-26 19:00:27.609,994.13,994.14,0.51,0.95,0.00,2.99,0.04,9.31,0.00,-0.00,-0.00,0.00
2026-06-26 19:00:27.615,994.13,994.14,0.51,0.95,0.00,2.99,0.04,9.31,0.00,-0.00,-0.00,0.00
2026-06-26 19:00:27.617,994.13,994.14,0.51,0.95,0.00,2.98,0.03,9.31,0.00,0.00,-0.00,0.00
2026-06-26 19:00:27.665,994.13,994.14,0.69,1.10,0.00,2.98,0.02,9.28,0.00,-0.00,-0.00,0.00
2026-06-26 19:00:27.667,994.13,994.14,0.69,1.10,0.00,2.98,0.01,9.28,-0.00,-0.00,0.00,0.00
2026-06-26 19:00:27.669,994.13,994.14,0.69,1.10,0.00,2.98,0.01,9.28,-0.00,-0.00,0.00,0.00
2026-06-26 19:00:27.674,994.13,994.14,0.69,1.10,0.00,2.98,0.01,9.28,-0.00,-0.00,0.00,0.00
2026-06-26 19:00:27.676,994.13,994.14,0.69,1.10,0.00,3.00,0.05,9.27,0.00,-0.00,-0.00,0.00
2026-06-26 19:00:27.678,994.13,994.14,0.69,1.10,0.00,3.00,0.05,9.27,0.00,-0.00,-0.00,0.00
2026-06-26 19:00:27.680,994.13,994.14,0.69,1.10,0.00,3.00,0.05,9.27,0.00,-0.00,-0.00,0.00
2026-06-26 19:00:27.685,994.13,994.14,0.69,1.10,0.00,3.00,0.05,9.27,0.00,-0.00,-0.00,0.00
2026-06-26 19:00:27.687,994.13,994.14,0.69,1.10,0.00,3.00,0.03,9.29,0.00,-0.00,0.00,0.00
2026-06-26 19:00:27.689,994.13,994.14,0.69,1.10,0.00,3.00,0.03,9.29,0.00,-0.00,0.00,0.00
2026-06-26 19:00:27.693,994.13,994.14,0.69,1.10,0.00,3.00,0.03,9.29,0.00,-0.00,0.00,0.00
2026-06-26 19:00:27.696,994.13,994.14,0.69,1.10,0.00,3.00,0.03,9.29,0.00,-0.00,-0.00,0.00
2026-06-26 19:00:27.738,994.13,994.14,0.80,1.19,0.00,2.97,0.03,9.28,-0.00,0.00,-0.00,0.00
2026-06-26 19:00:27.742,994.13,994.14,0.80,1.19,0.00,2.97,0.03,9.28,-0.00,0.00,-0.00,0.00
2026-06-26 19:00:27.747,994.13,994.14,0.80,1.19,0.00,2.97,0.03,9.28,-0.00,-0.00,0.00,0.00
2026-06-26 19:00:27.749,994.13,994.14,0.80,1.19,0.00,3.00,0.03,9.30,-0.00,-0.00,0.00,0.00
2026-06-26 19:00:27.750,994.13,994.14,0.80,1.19,0.00,3.00,0.03,9.30,-0.00,-0.00,0.00,0.00
2026-06-26 19:00:27.752,994.13,994.14,0.80,1.19,0.00,3.00,0.03,9.30,-0.00,-0.00,0.00,0.00
2026-06-26 19:00:27.755,994.13,994.14,0.80,1.19,0.00,3.00,0.03,9.30,-0.00,-0.00,0.00,0.00
2026-06-26 19:00:27.757,994.13,994.14,0.80,1.19,0.00,3.01,0.05,9.29,0.00,-0.00,-0.00,0.00
2026-06-26 19:00:27.759,994.13,994.14,0.80,1.19,0.00,3.01,0.05,9.29,0.00,-0.00,-0.00,0.00
2026-06-26 19:00:27.802,994.13,994.14,0.98,1.31,0.00,2.99,0.03,9.28,0.00,0.00,-0.00,0.00
2026-06-26 19:00:27.806,994.13,994.14,0.98,1.31,0.00,2.99,0.03,9.28,0.00,-0.00,0.00,0.00
2026-06-26 19:00:27.807,994.13,994.14,0.98,1.31,0.00,3.01,0.04,9.29,0.00,-0.00,0.00,0.00
2026-06-26 19:00:27.809,994.13,994.14,0.98,1.31,0.00,3.01,0.04,9.29,0.00,-0.00,0.00,0.00
2026-06-26 19:00:27.813,994.13,994.14,0.98,1.31,0.00,3.01,0.04,9.29,0.00,-0.00,0.00,0.00
2026-06-26 19:00:27.816,994.13,994.14,0.98,1.31,0.00,3.01,0.04,9.29,0.00,-0.00,0.00,0.00
2026-06-26 19:00:27.818,994.13,994.14,0.98,1.31,0.00,2.98,0.01,9.32,0.00,-0.00,0.00,0.00
2026-06-26 19:00:27.820,994.13,994.14,0.98,1.31,0.00,2.98,0.01,9.32,0.00,-0.00,0.00,0.00
2026-06-26 19:00:27.826,994.13,994.14,0.98,1.31,0.00,2.98,0.01,9.32,0.00,-0.00,0.00,0.00
2026-06-26 19:00:27.828,994.13,994.14,0.98,1.31,0.00,2.99,0.02,9.30,0.00,-0.00,-0.00,0.00
2026-06-26 19:00:27.830,994.13,994.14,0.98,1.31,0.00,2.99,0.02,9.30,0.00,-0.00,-0.00,0.00
2026-06-26 19:00:27.836,994.13,994.14,0.98,1.31,0.00,2.99,0.02,9.30,0.00,-0.00,-0.00,0.00
2026-06-26 19:00:27.837,994.13,994.14,0.98,1.31,0.00,3.01,0.04,9.28,0.00,-0.00,0.00,0.00
2026-06-26 19:00:27.885,994.13,994.14,1.19,1.44,0.00,3.00,0.05,9.28,0.00,0.00,-0.00,0.00
2026-06-26 19:00:27.887,994.13,994.14,1.19,1.44,0.00,2.97,0.02,9.29,-0.00,0.00,0.00,0.00
2026-06-26 19:00:27.889,994.13,994.14,1.19,1.44,0.00,2.97,0.02,9.29,-0.00,0.00,0.00,0.00
2026-06-26 19:00:27.892,994.13,994.14,1.19,1.44,0.00,2.97,0.02,9.29,-0.00,0.00,0.00,0.00
2026-06-26 19:00:27.896,994.13,994.14,1.19,1.44,0.00,2.97,0.02,9.29,-0.00,-0.00,-0.00,0.00
2026-06-26 19:00:27.898,994.13,994.14,1.19,1.44,0.00,2.99,0.05,9.32,-0.00,-0.00,-0.00,0.00
2026-06-26 19:00:27.900,994.13,994.14,1.19,1.44,0.00,2.99,0.05,9.32,-0.00,-0.00,-0.00,0.00
2026-06-26 19:00:27.939,994.13,994.14,1.14,1.41,0.00,3.00,0.04,9.28,0.00,-0.00,0.00,0.00
2026-06-26 19:00:27.946,994.13,994.14,1.14,1.41,0.00,3.00,0.04,9.28,0.00,-0.00,0.00,0.00
2026-06-26 19:00:27.948,994.13,994.14,1.14,1.41,0.00,2.98,0.02,9.28,-0.00,-0.00,0.00,0.00
2026-06-26 19:00:27.949,994.13,994.14,1.14,1.41,0.00,2.98,0.02,9.28,-0.00,-0.00,0.00,0.00
2026-06-26 19:00:27.951,994.13,994.14,1.14,1.41,0.00,2.98,0.02,9.28,-0.00,-0.00,0.00,0.00
2026-06-26 19:00:27.952,994.13,994.14,1.14,1.41,0.00,2.98,0.02,9.28,-0.00,-0.00,0.00,0.00
2026-06-26 19:00:27.955,994.13,994.14,1.14,1.41,0.00,2.98,0.02,9.28,-0.00,-0.00,0.00,0.00
2026-06-26 19:00:27.957,994.13,994.14,1.14,1.41,0.00,2.99,0.03,9.29,-0.00,0.00,0.00,0.00
2026-06-26 19:00:27.958,994.13,994.14,1.14,1.41,0.00,2.99,0.03,9.29,-0.00,0.00,0.00,0.00
2026-06-26 19:00:27.960,994.13,994.14,1.14,1.41,0.00,2.99,0.03,9.29,-0.00,0.00,0.00,0.00
2026-06-26 19:00:27.966,994.13,994.14,1.14,1.41,0.00,2.99,0.03,9.29,-0.00,0.00,0.00,0.00
2026-06-26 19:00:27.967,994.13,994.14,1.14,1.41,0.00,2.98,0.02,9.31,-0.00,0.00,0.00,0.00
2026-06-26 19:00:27.969,994.13,994.14,1.14,1.41,0.00,2.98,0.02,9.31,-0.00,0.00,0.00,0.00
2026-06-26 19:00:27.971,994.13,994.14,1.14,1.41,0.00,2.98,0.02,9.31,-0.00,0.00,0.00,0.00
2026-06-26 19:00:27.976,994.13,994.14,1.14,1.41,0.00,2.98,0.02,9.31,0.00,0.00,0.00,0.00
2026-06-26 19:00:27.978,994.13,994.14,1.14,1.41,0.00,2.98,0.03,9.28,0.00,0.00,0.00,0.00
2026-06-26 19:00:27.980,994.13,994.14,1.14,1.41,0.00,2.98,0.03,9.28,0.00,0.00,0.00,0.00
2026-06-26 19:00:28.026,994.13,994.14,1.08,1.38,0.00,2.99,0.04,9.30,-0.00,0.00,0.00,0.00
2026-06-26 19:00:28.028,994.13,994.14,1.08,1.38,0.00,3.01,0.00,9.27,-0.00,0.00,-0.00,0.00
2026-06-26 19:00:28.030,994.13,994.14,1.08,1.38,0.00,3.01,0.00,9.27,-0.00,0.00,-0.00,0.00
2026-06-26 19:00:28.032,994.13,994.14,1.08,1.38,0.00,3.01,0.00,9.27,-0.00,0.00,-0.00,0.00
2026-06-26 19:00:28.037,994.13,994.14,1.08,1.38,0.00,3.01,0.00,9.27,0.00,0.00,0.00,0.00
2026-06-26 19:00:28.038,994.13,994.14,1.08,1.38,0.00,3.00,0.04,9.29,0.00,0.00,0.00,0.00
2026-06-26 19:00:28.086,994.13,994.14,0.73,1.13,0.00,3.00,0.03,9.28,-0.00,0.00,0.00,0.00
2026-06-26 19:00:28.094,994.13,994.14,0.73,1.13,0.00,2.99,0.01,9.29,-0.00,-0.00,0.00,0.00
2026-06-26 19:00:28.099,994.13,994.14,0.73,1.13,0.00,2.99,0.01,9.29,0.00,0.00,-0.00,0.00
2026-06-26 19:00:28.100,994.13,994.14,0.73,1.13,0.00,3.01,0.02,9.29,0.00,0.00,-0.00,0.00
2026-06-26 19:00:28.102,994.13,994.14,0.73,1.13,0.00,3.01,0.02,9.29,0.00,0.00,-0.00,0.00
2026-06-26 19:00:28.104,994.13,994.14,0.73,1.13,0.00,3.01,0.02,9.29,0.00,0.00,-0.00,0.00
2026-06-26 19:00:28.107,994.13,994.14,0.73,1.13,0.00,3.01,0.02,9.29,0.00,0.00,-0.00,0.00
2026-06-26 19:00:28.109,994.13,994.14,0.73,1.13,0.00,3.00,0.03,9.30,0.00,0.00,-0.00,0.00
2026-06-26 19:00:28.110,994.13,994.14,0.73,1.13,0.00,3.00,0.03,9.30,0.00,0.00,-0.00,0.00
2026-06-26 19:00:28.117,994.13,994.14,0.73,1.13,0.00,3.00,0.03,9.30,0.00,-0.00,0.00,0.00
2026-06-26 19:00:28.121,994.13,994.14,0.73,1.13,0.00,2.99,0.04,9.30,0.00,-0.00,0.00,0.00
2026-06-26 19:00:28.162,994.13,994.14,0.63,1.05,0.00,2.99,0.00,9.30,-0.00,0.00,0.00,0.00
2026-06-26 19:00:28.167,994.13,994.14,0.63,1.05,0.00,2.99,0.00,9.30,0.00,0.00,0.00,0.00
2026-06-26 19:00:28.168,994.13,994.14,0.63,1.05,0.00,3.00,0.03,9.29,0.00,0.00,0.00,0.00
2026-06-26 19:00:28.170,994.13,994.14,0.63,1.05,0.00,3.00,0.03,9.29,0.00,0.00,0.00,0.00
2026-06-26 19:00:28.174,994.13,994.14,0.63,1.05,0.00,3.00,0.03,9.29,0.00,0.00,0.00,0.00
2026-06-26 19:00:28.177,994.13,994.14,0.63,1.05,0.00,3.00,0.03,9.29,0.00,-0.00,0.00,0.00
2026-06-26 19:00:28.180,994.13,994.14,0.63,1.05,0.00,3.01,0.05,9.25,0.00,-0.00,0.00,0.00
2026-06-26 19:00:28.227,994.13,994.13,0.10,0.43,0.00,2.99,0.02,9.31,-0.00,0.00,0.00,0.00
2026-06-26 19:00:28.228,994.13,994.13,0.10,0.43,0.00,3.00,0.05,9.29,0.00,-0.00,-0.00,0.00
2026-06-26 19:00:28.231,994.13,994.13,0.10,0.43,0.00,3.00,0.05,9.29,0.00,-0.00,-0.00,0.00
2026-06-26 19:00:28.237,994.13,994.13,0.10,0.43,0.00,3.00,0.05,9.29,0.00,-0.00,-0.00,0.00
2026-06-26 19:00:28.238,994.13,994.13,0.10,0.43,0.00,3.00,0.03,9.30,0.00,-0.00,0.00,0.00
2026-06-26 19:00:28.240,994.13,994.13,0.10,0.43,0.00,3.00,0.03,9.30,0.00,-0.00,0.00,0.00
2026-06-26 19:00:28.243,994.13,994.13,0.10,0.43,0.00,3.00,0.03,9.30,0.00,-0.00,0.00,0.00
2026-06-26 19:00:28.247,994.13,994.13,0.10,0.43,0.00,3.00,0.03,9.30,0.00,-0.00,-0.00,0.00
2026-06-26 19:00:28.248,994.13,994.13,0.10,0.43,0.00,2.98,0.04,9.28,0.00,-0.00,-0.00,0.00
2026-06-26 19:00:28.250,994.13,994.13,0.10,0.43,0.00,2.98,0.04,9.28,0.00,-0.00,-0.00,0.00
2026-06-26 19:00:28.251,994.13,994.13,0.10,0.43,0.00,2.98,0.04,9.28,0.00,-0.00,-0.00,0.00
2026-06-26 19:00:28.253,994.13,994.13,0.10,0.43,0.00,2.98,0.04,9.28,0.00,-0.00,-0.00,0.00
2026-06-26 19:00:28.255,994.13,994.13,0.10,0.43,0.00,2.98,0.04,9.28,0.00,-0.00,-0.00,0.00
2026-06-26 19:00:28.257,994.13,994.13,0.10,0.43,0.00,2.98,0.04,9.28,0.00,-0.00,0.00,0.00
2026-06-26 19:00:28.259,994.13,994.13,0.10,0.43,0.00,2.99,0.01,9.31,0.00,-0.00,0.00,0.00
