timestamp,pressure_bag,pressure_bme,diff_pressure,v_wind_est,speed,accel_x,accel_y,accel_z,gyro_x,gyro_y,gyro_z,power
2026-06-26 18:18:04.008,994.08,994.07,-0.46,-0.89,0.00,1.32,0.25,9.24,0.00,-0.00,0.00,0.00
2026-06-26 18:18:04.011,994.08,994.07,-0.46,-0.89,0.00,1.32,0.25,9.24,0.00,-0.00,0.00,0.00
2026-06-26 18:18:04.017,994.08,994.07,-0.46,-0.89,0.00,1.32,0.25,9.24,0.00,-0.00,0.00,0.00
2026-06-26 18:18:04.018,994.08,994.07,-0.46,-0.89,0.00,1.31,0.26,9.26,-0.00,-0.00,-0.00,0.00
2026-06-26 18:18:04.020,994.08,994.07,-0.46,-0.89,0.00,1.31,0.26,9.26,-0.00,-0.00,-0.00,0.00
2026-06-26 18:18:04.021,994.08,994.07,-0.46,-0.89,0.00,1.31,0.26,9.26,-0.00,-0.00,-0.00,0.00
2026-06-26 18:18:04.023,994.08,994.07,-0.46,-0.89,0.00,1.31,0.26,9.26,-0.00,-0.00,-0.00,0.00
2026-06-26 18:18:04.027,994.08,994.07,-0.46,-0.89,0.00,1.31,0.26,9.26,0.00,0.00,-0.00,0.00
2026-06-26 18:18:04.029,994.08,994.07,-0.46,-0.89,0.00,1.32,0.27,9.21,0.00,0.00,-0.00,0.00
2026-06-26 18:18:04.031,994.08,994.07,-0.46,-0.89,0.00,1.32,0.27,9.21,0.00,0.00,-0.00,0.00
2026-06-26 18:18:04.035,994.08,994.07,-0.46,-0.89,0.00,1.32,0.27,9.21,0.00,0.00,-0.00,0.00
2026-06-26 18:18:04.038,994.08,994.07,-0.46,-0.89,0.00,1.32,0.27,9.19,0.00,0.00,0.00,0.00
2026-06-26 18:18:04.039,994.08,994.07,-0.46,-0.89,0.00,1.32,0.27,9.19,0.00,0.00,0.00,0.00
2026-06-26 18:18:04.041,994.08,994.07,-0.46,-0.89,0.00,1.32,0.27,9.19,0.00,0.00,0.00,0.00
2026-06-26 18:18:04.043,994.08,994.07,-0.46,-0.89,0.00,1.32,0.27,9.19,0.00,0.00,0.00,0.00
2026-06-26 18:18:04.048,994.08,994.07,-0.46,-0.89,0.00,1.32,0.27,9.19,-0.00,-0.00,0.00,0.00
2026-06-26 18:18:04.050,994.08,994.07,-0.46,-0.89,0.00,1.32,0.26,9.22,-0.00,-0.00,0.00,0.00
2026-06-26 18:18:04.051,994.08,994.07,-0.46,-0.89,0.00,1.32,0.26,9.22,-0.00,-0.00,0.00,0.00
2026-06-26 18:18:04.052,994.08,994.07,-0.46,-0.89,0.00,1.32,0.26,9.22,-0.00,-0.00,0.00,0.00
2026-06-26 18:18:04.053,994.08,994.07,-0.46,-0.89,0.00,1.32,0.26,9.22,-0.00,-0.00,0.00,0.00
2026-06-26 18:18:04.057,994.08,994.07,-0.46,-0.89,0.00,1.32,0.26,9.22,-0.00,-0.00,0.00,0.00
2026-06-26 18:18:04.059,994.08,994.07,-0.46,-0.89,0.00,1.32,0.26,9.24,0.00,-0.00,0.00,0.00
2026-06-26 18:18:04.060,994.08,994.07,-0.46,-0.89,0.00,1.32,0.26,9.24,0.00,-0.00,0.00,0.00
2026-06-26 18:18:04.065,994.08,994.07,-0.46,-0.89,0.00,1.32,0.26,9.24,0.00,-0.00,0.00,0.00
2026-06-26 18:18:04.068,994.08,994.07,-0.46,-0.89,0.00,1.31,0.28,9.22,-0.00,0.00,0.00,0.00
2026-06-26 18:18:04.147,994.08,994.08,-0.28,-0.70,0.00,1.31,0.26,9.21,-0.00,0.00,-0.00,0.00
2026-06-26 18:18:04.150,994.08,994.08,-0.28,-0.70,0.00,1.34,0.25,9.24,-0.00,0.00,0.00,0.00
2026-06-26 18:18:04.152,994.08,994.08,-0.28,-0.70,0.00,1.34,0.25,9.24,-0.00,0.00,0.00,0.00
2026-06-26 18:18:04.154,994.08,994.08,-0.28,-0.70,0.00,1.34,0.25,9.24,-0.00,0.00,0.00,0.00
2026-06-26 18:18:04.161,994.08,994.08,-0.28,-0.70,0.00,1.34,0.25,9.24,-0.00,0.00,-0.00,0.00
2026-06-26 18:18:04.168,994.08,994.08,-0.28,-0.70,0.00,1.34,0.26,9.21,-0.00,0.00,-0.00,0.00
2026-06-26 18:18:04.170,994.08,994.08,-0.28,-0.70,0.00,1.33,0.26,9.23,0.00,0.00,0.00,0.00
2026-06-26 18:18:04.175,994.08,994.08,-0.28,-0.70,0.00,1.33,0.26,9.23,0.00,0.00,0.00,0.00
2026-06-26 18:18:04.178,994.08,994.08,-0.28,-0.70,0.00,1.32,0.26,9.24,-0.00,-0.00,0.00,0.00
2026-06-26 18:18:04.180,994.08,994.08,-0.28,-0.70,0.00,1.32,0.26,9.24,-0.00,-0.00,0.00,0.00
2026-06-26 18:18:04.182,994.08,994.08,-0.28,-0.70,0.00,1.32,0.26,9.24,-0.00,-0.00,0.00,0.00
2026-06-26 18:18:04.187,994.08,994.08,-0.28,-0.70,0.00,1.32,0.26,9.24,0.00,-0.00,-0.00,0.00
2026-06-26 18:18:04.189,994.08,994.08,-0.28,-0.70,0.00,1.33,0.27,9.26,0.00,-0.00,-0.00,0.00
2026-06-26 18:18:04.191,994.08,994.08,-0.28,-0.70,0.00,1.33,0.27,9.26,0.00,-0.00,-0.00,0.00
2026-06-26 18:18:04.197,994.08,994.08,-0.28,-0.70,0.00,1.33,0.27,9.26,0.00,-0.00,-0.00,0.00
2026-06-26 18:18:04.199,994.08,994.08,-0.28,-0.70,0.00,1.33,0.27,9.21,-0.00,-0.00,0.00,0.00
2026-06-26 18:18:04.201,994.08,994.08,-0.28,-0.70,0.00,1.33,0.27,9.21,-0.00,-0.00,0.00,0.00
2026-06-26 18:18:04.203,994.08,994.08,-0.28,-0.70,0.00,1.33,0.27,9.21,-0.00,-0.00,0.00,0.00
2026-06-26 18:18:04.207,994.08,994.08,-0.28,-0.70,0.00,1.33,0.27,9.21,-0.00,-0.00,0.00,0.00
2026-06-26 18:18:04.297,994.08,994.08,-0.31,-0.74,0.00,1.31,0.28,9.23,0.00,-0.00,0.00,0.00
2026-06-26 18:18:04.298,994.08,994.08,-0.31,-0.74,0.00,1.32,0.26,9.22,-0.00,0.00,-0.00,0.00
2026-06-26 18:18:04.300,994.08,994.08,-0.31,-0.74,0.00,1.32,0.26,9.22,-0.00,0.00,-0.00,0.00
2026-06-26 18:18:04.301,994.08,994.08,-0.31,-0.74,0.00,1.32,0.26,9.22,-0.00,0.00,-0.00,0.00
2026-06-26 18:18:04.302,994.08,994.08,-0.31,-0.74,0.00,1.32,0.26,9.22,-0.00,0.00,-0.00,0.00
2026-06-26 18:18:04.303,994.08,994.08,-0.31,-0.74,0.00,1.32,0.26,9.22,-0.00,0.00,-0.00,0.00
2026-06-26 18:18:04.305,994.08,994.08,-0.31,-0.74,0.00,1.32,0.26,9.22,-0.00,0.00,-0.00,0.00
2026-06-26 18:18:04.308,994.08,994.08,-0.31,-0.74,0.00,1.32,0.26,9.22,-0.00,0.00,-0.00,0.00
2026-06-26 18:18:04.309,994.08,994.08,-0.31,-0.74,0.00,1.32,0.26,9.22,-0.00,0.00,-0.00,0.00
2026-06-26 18:18:04.310,994.08,994.08,-0.31,-0.74,0.00,1.32,0.26,9.22,-0.00,0.00,-0.00,0.00
2026-06-26 18:18:04.312,994.08,994.08,-0.31,-0.74,0.00,1.32,0.26,9.22,-0.00,0.00,-0.00,0.00
2026-06-26 18:18:04.313,994.08,994.08,-0.31,-0.74,0.00,1.32,0.26,9.22,-0.00,0.00,-0.00,0.00
2026-06-26 18:18:04.317,994.08,994.08,-0.31,-0.74,0.00,1.32,0.26,9.22,0.00,-0.00,-0.00,0.00
2026-06-26 18:18:04.319,994.08,994.08,-0.31,-0.74,0.00,1.33,0.26,9.22,0.00,-0.00,-0.00,0.00
2026-06-26 18:18:04.320,994.08,994.08,-0.31,-0.74,0.00,1.33,0.26,9.22,0.00,-0.00,-0.00,0.00
2026-06-26 18:18:04.321,994.08,994.08,-0.31,-0.74,0.00,1.33,0.26,9.22,0.00,-0.00,-0.00,0.00
2026-06-26 18:18:04.326,994.08,994.08,-0.31,-0.74,0.00,1.33,0.26,9.22,0.00,-0.00,-0.00,0.00
2026-06-26 18:18:04.328,994.08,994.08,-0.31,-0.74,0.00,1.32,0.26,9.20,-0.00,0.00,0.00,0.00
2026-06-26 18:18:04.329,994.08,994.08,-0.31,-0.74,0.00,1.32,0.26,9.20,-0.00,0.00,0.00,0.00
2026-06-26 18:18:04.331,994.08,994.08,-0.31,-0.74,0.00,1.32,0.26,9.20,-0.00,0.00,0.00,0.00
2026-06-26 18:18:04.332,994.08,994.08,-0.31,-0.74,0.00,1.32,0.26,9.20,-0.00,0.00,0.00,0.00
2026-06-26 18:18:04.336,994.08,994.08,-0.31,-0.74,0.00,1.32,0.26,9.20,-0.00,0.00,0.00,0.00
2026-06-26 18:18:04.338,994.08,994.08,-0.31,-0.74,0.00,1.32,0.26,9.20,0.00,0.00,-0.00,0.00
2026-06-26 18:18:04.339,994.08,994.08,-0.31,-0.74,0.00,1.31,0.29,9.22,0.00,0.00,-0.00,0.00
2026-06-26 18:18:04.340,994.08,994.08,-0.31,-0.74,0.00,1.31,0.29,9.22,0.00,0.00,-0.00,0.00
2026-06-26 18:18:04.342,994.08,994.08,-0.31,-0.74,0.00,1.31,0.29,9.22,0.00,0.00,-0.00,0.00
2026-06-26 18:18:04.343,994.08,994.08,-0.31,-0.74,0.00,1.31,0.29,9.22,0.00,0.00,-0.00,0.00
2026-06-26 18:18:04.348,994.08,994.08,-0.31,-0.74,0.00,1.31,0.29,9.22,0.00,0.00,-0.00,0.00
2026-06-26 18:18:04.349,994.08,994.08,-0.31,-0.74,0.00,1.32,0.26,9.22,-0.00,0.00,0.00,0.00
2026-06-26 18:18:04.433,994.08,994.08,-0.22,-0.63,0.00,1.33,0.27,9.21,0.00,0.00,0.00,0.00
2026-06-26 18:18:04.438,994.08,994.08,-0.22,-0.63,0.00,1.33,0.27,9.21,0.00,0.00,0.00,0.00
2026-06-26 18:18:04.439,994.08,994.08,-0.22,-0.63,0.00,1.33,0.28,9.23,-0.00,-0.00,-0.00,0.00
2026-06-26 18:18:04.440,994.08,994.08,-0.22,-0.63,0.00,1.33,0.28,9.23,-0.00,-0.00,-0.00,0.00
2026-06-26 18:18:04.441,994.08,994.08,-0.22,-0.63,0.00,1.33,0.28,9.23,-0.00,-0.00,-0.00,0.00
2026-06-26 18:18:04.443,994.08,994.08,-0.22,-0.63,0.00,1.33,0.28,9.23,-0.00,-0.00,-0.00,0.00
2026-06-26 18:18:04.448,994.08,994.08,-0.22,-0.63,0.00,1.33,0.28,9.23,-0.00,-0.00,-0.00,0.00
2026-06-26 18:18:04.449,994.08,994.08,-0.22,-0.63,0.00,1.31,0.27,9.25,-0.00,0.00,0.00,0.00
2026-06-26 18:18:04.450,994.08,994.08,-0.22,-0.63,0.00,1.31,0.27,9.25,-0.00,0.00,0.00,0.00
2026-06-26 18:18:04.452,994.08,994.08,-0.22,-0.63,0.00,1.31,0.27,9.25,-0.00,0.00,0.00,0.00
2026-06-26 18:18:04.453,994.08,994.08,-0.22,-0.63,0.00,1.31,0.27,9.25,-0.00,0.00,0.00,0.00
2026-06-26 18:18:04.454,994.08,994.08,-0.22,-0.63,0.00,1.31,0.27,9.25,-0.00,0.00,0.00,0.00
2026-06-26 18:18:04.458,994.08,994.08,-0.22,-0.63,0.00,1.31,0.27,9.25,-0.00,0.00,0.00,0.00
2026-06-26 18:18:04.459,994.08,994.08,-0.22,-0.63,0.00,1.33,0.24,9.26,-0.00,0.01,0.00,0.00
2026-06-26 18:18:04.460,994.08,994.08,-0.22,-0.63,0.00,1.33,0.24,9.26,-0.00,0.01,0.00,0.00
2026-06-26 18:18:04.462,994.08,994.08,-0.22,-0.63,0.00,1.33,0.24,9.26,-0.00,0.01,0.00,0.00
2026-06-26 18:18:04.466,994.08,994.08,-0.22,-0.63,0.00,1.33,0.24,9.26,-0.00,0.01,0.00,0.00
2026-06-26 18:18:04.468,994.08,994.08,-0.22,-0.63,0.00,1.33,0.24,9.26,-0.00,0.00,-0.00,0.00
2026-06-26 18:18:04.470,994.08,994.08,-0.22,-0.63,0.00,1.32,0.25,9.23,-0.00,0.00,-0.00,0.00
2026-06-26 18:18:04.473,994.08,994.08,-0.22,-0.63,0.00,1.32,0.25,9.23,-0.00,0.00,-0.00,0.00
2026-06-26 18:18:04.478,994.08,994.08,-0.22,-0.63,0.00,1.32,0.25,9.23,-0.00,0.00,-0.00,0.00
2026-06-26 18:18:04.479,994.08,994.08,-0.22,-0.63,0.00,1.32,0.27,9.19,-0.00,-0.00,0.00,0.00
2026-06-26 18:18:04.480,994.08,994.08,-0.22,-0.63,0.00,1.32,0.27,9.19,-0.00,-0.00,0.00,0.00
2026-06-26 18:18:04.482,994.08,994.08,-0.22,-0.63,0.00,1.32,0.27,9.19,-0.00,-0.00,0.00,0.00
2026-06-26 18:18:04.483,994.08,994.08,-0.22,-0.63,0.00,1.32,0.27,9.19,-0.00,-0.00,0.00,0.00
2026-06-26 18:18:04.484,994.08,994.08,-0.22,-0.63,0.00,1.32,0.27,9.19,-0.00,-0.00,0.00,0.00
2026-06-26 18:18:04.488,994.08,994.08,-0.22,-0.63,0.00,1.32,0.27,9.19,-0.00,-0.00,0.00,0.00
2026-06-26 18:18:04.489,994.08,994.08,-0.22,-0.63,0.00,1.31,0.26,9.22,-0.00,-0.00,0.00,0.00
2026-06-26 18:18:04.490,994.08,994.08,-0.22,-0.63,0.00,1.31,0.26,9.22,-0.00,-0.00,0.00,0.00
2026-06-26 18:18:04.578,994.08,994.08,-0.19,-0.58,0.00,1.32,0.27,9.24,0.00,-0.00,0.00,0.00
2026-06-26 18:18:04.580,994.08,994.08,-0.19,-0.58,0.00,1.32,0.26,9.22,0.00,-0.01,0.00,0.00
2026-06-26 18:18:04.582,994.08,994.08,-0.19,-0.58,0.00,1.32,0.26,9.22,0.00,-0.01,0.00,0.00
2026-06-26 18:18:04.583,994.08,994.08,-0.19,-0.58,0.00,1.32,0.26,9.22,0.00,-0.01,0.00,0.00
2026-06-26 18:18:04.588,994.08,994.08,-0.19,-0.58,0.00,1.32,0.26,9.22,0.00,-0.01,0.00,0.00
2026-06-26 18:18:04.589,994.08,994.08,-0.19,-0.58,0.00,1.31,0.27,9.23,0.00,0.00,0.00,0.00
2026-06-26 18:18:04.591,994.08,994.08,-0.19,-0.58,0.00,1.31,0.27,9.23,0.00,0.00,0.00,0.00
2026-06-26 18:18:04.592,994.08,994.08,-0.19,-0.58,0.00,1.31,0.27,9.23,0.00,0.00,0.00,0.00
2026-06-26 18:18:04.593,994.08,994.08,-0.19,-0.58,0.00,1.31,0.27,9.23,0.00,0.00,0.00,0.00
2026-06-26 18:18:04.598,994.08,994.08,-0.19,-0.58,0.00,1.31,0.27,9.23,0.00,0.00,0.00,0.00
2026-06-26 18:18:04.600,994.08,994.08,-0.19,-0.58,0.00,1.33,0.26,9.24,-0.00,0.00,-0.00,0.00
2026-06-26 18:18:04.601,994.08,994.08,-0.19,-0.58,0.00,1.33,0.26,9.24,-0.00,0.00,-0.00,0.00
2026-06-26 18:18:04.603,994.08,994.08,-0.19,-0.58,0.00,1.33,0.26,9.24,-0.00,0.00,-0.00,0.00
2026-06-26 18:18:04.604,994.08,994.08,-0.19,-0.58,0.00,1.33,0.26,9.24,-0.00,0.00,-0.00,0.00
2026-06-26 18:18:04.605,994.08,994.08,-0.19,-0.58,0.00,1.33,0.26,9.24,-0.00,0.00,-0.00,0.00
2026-06-26 18:18:04.606,994.08,994.08,-0.19,-0.58,0.00,1.33,0.26,9.24,-0.00,0.00,-0.00,0.00
2026-06-26 18:18:04.609,994.08,994.08,-0.19,-0.58,0.00,1.32,0.27,9.24,0.00,0.00,0.00,0.00
2026-06-26 18:18:04.611,994.08,994.08,-0.19,-0.58,0.00,1.32,0.27,9.24,0.00,0.00,0.00,0.00
2026-06-26 18:18:04.612,994.08,994.08,-0.19,-0.58,0.00,1.32,0.27,9.24,0.00,0.00,0.00,0.00
2026-06-26 18:18:04.615,994.08,994.08,-0.19,-0.58,0.00,1.32,0.27,9.24,0.00,0.00,0.00,0.00
2026-06-26 18:18:04.619,994.08,994.08,-0.19,-0.58,0.00,1.32,0.27,9.24,-0.00,0.00,-0.00,0.00
2026-06-26 18:18:04.621,994.08,994.08,-0.19,-0.58,0.00,1.31,0.26,9.24,-0.00,0.00,-0.00,0.00
2026-06-26 18:18:04.622,994.08,994.08,-0.19,-0.58,0.00,1.31,0.26,9.24,-0.00,0.00,-0.00,0.00
2026-06-26 18:18:04.626,994.08,994.08,-0.19,-0.58,0.00,1.31,0.26,9.24,-0.00,0.00,-0.00,0.00
2026-06-26 18:18:04.629,994.08,994.08,-0.19,-0.58,0.00,1.32,0.28,9.20,-0.00,0.00,0.00,0.00
2026-06-26 18:18:04.631,994.08,994.08,-0.19,-0.58,0.00,1.32,0.28,9.20,-0.00,0.00,0.00,0.00
2026-06-26 18:18:04.633,994.08,994.08,-0.19,-0.58,0.00,1.32,0.28,9.20,-0.00,0.00,0.00,0.00
2026-06-26 18:18:04.719,994.08,994.08,0.46,0.90,0.00,1.31,0.28,9.23,0.00,0.00,0.00,0.00
2026-06-26 18:18:04.720,994.08,994.08,0.46,0.90,0.00,1.31,0.26,9.22,0.00,0.00,0.00,0.00
2026-06-26 18:18:04.721,994.08,994.08,0.46,0.90,0.00,1.31,0.26,9.22,0.00,0.00,0.00,0.00
2026-06-26 18:18:04.723,994.08,994.08,0.46,0.90,0.00,1.31,0.26,9.22,0.00,0.00,0.00,0.00
2026-06-26 18:18:04.725,994.08,994.08,0.46,0.90,0.00,1.31,0.26,9.22,0.00,0.00,0.00,0.00
2026-06-26 18:18:04.729,994.08,994.08,0.46,0.90,0.00,1.31,0.26,9.22,0.00,-0.00,0.00,0.00
2026-06-26 18:18:04.730,994.08,994.08,0.46,0.90,0.00,1.32,0.27,9.21,0.00,-0.00,0.00,0.00
2026-06-26 18:18:04.732,994.08,994.08,0.46,0.90,0.00,1.32,0.27,9.21,0.00,-0.00,0.00,0.00
2026-06-26 18:18:04.733,994.08,994.08,0.46,0.90,0.00,1.32,0.27,9.21,0.00,-0.00,0.00,0.00
2026-06-26 18:18:04.735,994.08,994.08,0.46,0.90,0.00,1.32,0.27,9.21,0.00,-0.00,0.00,0.00
2026-06-26 18:18:04.739,994.08,994.08,0.46,0.90,0.00,1.32,0.27,9.21,0.00,-0.00,0.00,0.00
2026-06-26 18:18:04.740,994.08,994.08,0.46,0.90,0.00,1.34,0.27,9.22,0.00,-0.00,0.00,0.00
2026-06-26 18:18:04.741,994.08,994.08,0.46,0.90,0.00,1.34,0.27,9.22,0.00,-0.00,0.00,0.00
2026-06-26 18:18:04.742,994.08,994.08,0.46,0.90,0.00,1.34,0.27,9.22,0.00,-0.00,0.00,0.00
2026-06-26 18:18:04.744,994.08,994.08,0.46,0.90,0.00,1.34,0.27,9.22,0.00,-0.00,0.00,0.00
2026-06-26 18:18:04.749,994.08,994.08,0.46,0.90,0.00,1.34,0.27,9.22,0.00,-0.00,0.00,0.00
2026-06-26 18:18:04.751,994.08,994.08,0.46,0.90,0.00,1.33,0.27,9.22,-0.00,0.00,0.00,0.00
2026-06-26 18:18:04.753,994.08,994.08,0.46,0.90,0.00,1.33,0.27,9.22,-0.00,0.00,0.00,0.00
2026-06-26 18:18:04.754,994.08,994.08,0.46,0.90,0.00,1.33,0.27,9.22,-0.00,0.00,0.00,0.00
2026-06-26 18:18:04.755,994.08,994.08,0.46,0.90,0.00,1.33,0.27,9.22,-0.00,0.00,0.00,0.00
2026-06-26 18:18:04.756,994.08,994.08,0.46,0.90,0.00,1.33,0.27,9.22,-0.00,0.00,0.00,0.00
2026-06-26 18:18:04.759,994.08,994.08,0.46,0.90,0.00,1.33,0.27,9.22,-0.00,0.00,-0.00,0.00
2026-06-26 18:18:04.761,994.08,994.08,0.46,0.90,0.00,1.33,0.27,9.25,-0.00,0.00,-0.00,0.00
2026-06-26 18:18:04.763,994.08,994.08,0.46,0.90,0.00,1.33,0.27,9.25,-0.00,0.00,-0.00,0.00
2026-06-26 18:18:04.767,994.08,994.08,0.46,0.90,0.00,1.33,0.27,9.25,-0.00,0.00,-0.00,0.00
2026-06-26 18:18:04.769,994.08,994.08,0.46,0.90,0.00,1.33,0.27,9.25,0.00,0.00,0.00,0.00
2026-06-26 18:18:04.771,994.08,994.08,0.46,0.90,0.00,1.30,0.27,9.24,0.00,0.00,0.00,0.00
2026-06-26 18:18:04.773,994.08,994.08,0.46,0.90,0.00,1.30,0.27,9.24,0.00,0.00,0.00,0.00
2026-06-26 18:18:04.776,994.08,994.08,0.46,0.90,0.00,1.30,0.27,9.24,0.00,0.00,0.00,0.00
2026-06-26 18:18:04.859,994.08,994.08,0.65,1.07,0.00,1.34,0.26,9.23,0.00,-0.00,0.00,0.00
2026-06-26 18:18:04.861,994.08,994.08,0.65,1.07,0.00,1.34,0.26,9.23,0.00,-0.00,0.00,0.00
2026-06-26 18:18:04.862,994.08,994.08,0.65,1.07,0.00,1.34,0.26,9.23,0.00,-0.00,0.00,0.00
2026-06-26 18:18:04.864,994.08,994.08,0.65,1.07,0.00,1.34,0.26,9.23,0.00,-0.00,0.00,0.00
2026-06-26 18:18:04.869,994.08,994.08,0.65,1.07,0.00,1.34,0.26,9.23,0.00,-0.00,0.00,0.00
2026-06-26 18:18:04.870,994.08,994.08,0.65,1.07,0.00,1.31,0.27,9.23,0.00,0.00,-0.00,0.00
2026-06-26 18:18:04.871,994.08,994.08,0.65,1.07,0.00,1.31,0.27,9.23,0.00,0.00,-0.00,0.00
2026-06-26 18:18:04.872,994.08,994.08,0.65,1.07,0.00,1.31,0.27,9.23,0.00,0.00,-0.00,0.00
2026-06-26 18:18:04.874,994.08,994.08,0.65,1.07,0.00,1.31,0.27,9.23,0.00,0.00,-0.00,0.00
2026-06-26 18:18:04.879,994.08,994.08,0.65,1.07,0.00,1.31,0.27,9.23,0.00,0.00,-0.00,0.00
2026-06-26 18:18:04.880,994.08,994.08,0.65,1.07,0.00,1.33,0.25,9.19,0.00,0.00,0.00,0.00
2026-06-26 18:18:04.882,994.08,994.08,0.65,1.07,0.00,1.33,0.25,9.19,0.00,0.00,0.00,0.00
2026-06-26 18:18:04.883,994.08,994.08,0.65,1.07,0.00,1.33,0.25,9.19,0.00,0.00,0.00,0.00
2026-06-26 18:18:04.884,994.08,994.08,0.65,1.07,0.00,1.33,0.25,9.19,0.00,0.00,0.00,0.00
2026-06-26 18:18:04.888,994.08,994.08,0.65,1.07,0.00,1.33,0.25,9.19,0.00,0.00,0.00,0.00
2026-06-26 18:18:04.890,994.08,994.08,0.65,1.07,0.00,1.33,0.27,9.21,0.00,0.00,0.00,0.00
2026-06-26 18:18:04.892,994.08,994.08,0.65,1.07,0.00,1.33,0.27,9.21,0.00,0.00,0.00,0.00
2026-06-26 18:18:04.893,994.08,994.08,0.65,1.07,0.00,1.33,0.27,9.21,0.00,0.00,0.00,0.00
2026-06-26 18:18:04.895,994.08,994.08,0.65,1.07,0.00,1.33,0.27,9.21,0.00,0.00,0.00,0.00
2026-06-26 18:18:04.899,994.08,994.08,0.65,1.07,0.00,1.33,0.27,9.21,0.00,0.00,0.00,0.00
2026-06-26 18:18:04.900,994.08,994.08,0.65,1.07,0.00,1.30,0.27,9.25,0.00,0.00,0.00,0.00
2026-06-26 18:18:04.901,994.08,994.08,0.65,1.07,0.00,1.30,0.27,9.25,0.00,0.00,0.00,0.00
2026-06-26 18:18:04.903,994.08,994.08,0.65,1.07,0.00,1.30,0.27,9.25,0.00,0.00,0.00,0.00
2026-06-26 18:18:04.904,994.08,994.08,0.65,1.07,0.00,1.30,0.27,9.25,0.00,0.00,0.00,0.00
2026-06-26 18:18:04.905,994.08,994.08,0.65,1.07,0.00,1.30,0.27,9.25,0.00,0.00,0.00,0.00
2026-06-26 18:18:04.907,994.08,994.08,0.65,1.07,0.00,1.30,0.27,9.25,0.00,0.00,0.00,0.00
2026-06-26 18:18:04.910,994.08,994.08,0.65,1.07,0.00,1.32,0.26,9.24,0.00,0.00,0.00,0.00
2026-06-26 18:18:04.911,994.08,994.08,0.65,1.07,0.00,1.32,0.26,9.24,0.00,0.00,0.00,0.00
2026-06-26 18:18:04.912,994.08,994.08,0.65,1.07,0.00,1.32,0.26,9.24,0.00,0.00,0.00,0.00
2026-06-26 18:18:04.913,994.08,994.08,0.65,1.07,0.00,1.32,0.26,9.24,0.00,0.00,0.00,0.00
2026-06-26 18:18:04.917,994.08,994.08,0.65,1.07,0.00,1.32,0.26,9.24,0.00,0.00,0.00,0.00
2026-06-26 18:18:04.000,994.08,994.08,0.33,0.76,0.00,1.34,0.24,9.24,0.00,-0.00,0.00,0.00
2026-06-26 18:18:04.001,994.08,994.08,0.33,0.76,0.00,1.34,0.24,9.24,0.00,-0.00,0.00,0.00
2026-06-26 18:18:04.003,994.08,994.08,0.33,0.76,0.00,1.34,0.24,9.24,0.00,-0.00,0.00,0.00
2026-06-26 18:18:05.005,994.08,994.08,0.33,0.76,0.00,1.34,0.24,9.24,0.00,-0.00,0.00,0.00
2026-06-26 18:18:05.006,994.08,994.08,0.33,0.76,0.00,1.34,0.24,9.24,0.00,-0.00,0.00,0.00
2026-06-26 18:18:05.008,994.08,994.08,0.33,0.76,0.00,1.34,0.24,9.24,0.00,-0.00,0.00,0.00
2026-06-26 18:18:05.010,994.08,994.08,0.33,0.76,0.00,1.32,0.27,9.23,0.00,0.00,-0.00,0.00
2026-06-26 18:18:05.011,994.08,994.08,0.33,0.76,0.00,1.32,0.27,9.23,0.00,0.00,-0.00,0.00
2026-06-26 18:18:05.012,994.08,994.08,0.33,0.76,0.00,1.32,0.27,9.23,0.00,0.00,-0.00,0.00
2026-06-26 18:18:05.014,994.08,994.08,0.33,0.76,0.00,1.32,0.27,9.23,0.00,0.00,-0.00,0.00
2026-06-26 18:18:05.019,994.08,994.08,0.33,0.76,0.00,1.32,0.27,9.23,0.00,-0.00,0.00,0.00
2026-06-26 18:18:05.021,994.08,994.08,0.33,0.76,0.00,1.31,0.27,9.22,0.00,-0.00,0.00,0.00
2026-06-26 18:18:05.023,994.08,994.08,0.33,0.76,0.00,1.31,0.27,9.22,0.00,-0.00,0.00,0.00
2026-06-26 18:18:05.028,994.08,994.08,0.33,0.76,0.00,1.31,0.27,9.22,0.00,-0.00,0.00,0.00
2026-06-26 18:18:05.030,994.08,994.08,0.33,0.76,0.00,1.29,0.27,9.21,0.00,0.00,0.00,0.00
2026-06-26 18:18:05.031,994.08,994.08,0.33,0.76,0.00,1.29,0.27,9.21,0.00,0.00,0.00,0.00
2026-06-26 18:18:05.032,994.08,994.08,0.33,0.76,0.00,1.29,0.27,9.21,0.00,0.00,0.00,0.00
2026-06-26 18:18:05.033,994.08,994.08,0.33,0.76,0.00,1.29,0.27,9.21,0.00,0.00,0.00,0.00
2026-06-26 18:18:05.037,994.08,994.08,0.33,0.76,0.00,1.29,0.27,9.21,0.00,0.00,0.00,0.00
2026-06-26 18:18:05.039,994.08,994.08,0.33,0.76,0.00,1.29,0.27,9.21,0.00,0.00,0.00,0.00
2026-06-26 18:18:05.041,994.08,994.08,0.33,0.76,0.00,1.32,0.26,9.21,0.00,0.00,0.00,0.00
2026-06-26 18:18:05.042,994.08,994.08,0.33,0.76,0.00,1.32,0.26,9.21,0.00,0.00,0.00,0.00
2026-06-26 18:18:05.043,994.08,994.08,0.33,0.76,0.00,1.32,0.26,9.21,0.00,0.00,0.00,0.00
2026-06-26 18:18:05.046,994.08,994.08,0.33,0.76,0.00,1.32,0.26,9.21,0.00,0.00,0.00,0.00
2026-06-26 18:18:05.051,994.08,994.08,0.33,0.76,0.00,1.32,0.26,9.21,0.00,-0.00,0.00,0.00
2026-06-26 18:18:05.052,994.08,994.08,0.33,0.76,0.00,1.34,0.27,9.22,0.00,-0.00,0.00,0.00
2026-06-26 18:18:05.053,994.08,994.08,0.33,0.76,0.00,1.34,0.27,9.22,0.00,-0.00,0.00,0.00
2026-06-26 18:18:05.055,994.08,994.08,0.33,0.76,0.00,1.34,0.27,9.22,0.00,-0.00,0.00,0.00
2026-06-26 18:18:05.056,994.08,994.08,0.33,0.76,0.00,1.34,0.27,9.22,0.00,-0.00,0.00,0.00
2026-06-26 18:18:05.057,994.08,994.08,0.33,0.76,0.00,1.34,0.27,9.22,0.00,-0.00,0.00,0.00
2026-06-26 18:18:05.060,994.08,994.08,0.33,0.76,0.00,1.34,0.27,9.22,0.00,-0.00,0.00,0.00
2026-06-26 18:18:05.141,994.08,994.08,0.23,0.63,0.00,1.31,0.25,9.23,0.00,-0.00,0.00,0.00
2026-06-26 18:18:05.144,994.08,994.08,0.23,0.63,0.00,1.31,0.25,9.23,0.00,-0.00,0.00,0.00
2026-06-26 18:18:05.149,994.08,994.08,0.23,0.63,0.00,1.31,0.25,9.23,0.00,-0.00,0.00,0.00
2026-06-26 18:18:05.151,994.08,994.08,0.23,0.63,0.00,1.31,0.26,9.23,0.00,-0.00,0.00,0.00
2026-06-26 18:18:05.152,994.08,994.08,0.23,0.63,0.00,1.31,0.26,9.23,0.00,-0.00,0.00,0.00
2026-06-26 18:18:05.153,994.08,994.08,0.23,0.63,0.00,1.31,0.26,9.23,0.00,-0.00,0.00,0.00
2026-06-26 18:18:05.154,994.08,994.08,0.23,0.63,0.00,1.31,0.26,9.23,0.00,-0.00,0.00,0.00
2026-06-26 18:18:05.156,994.08,994.08,0.23,0.63,0.00,1.31,0.26,9.23,0.00,-0.00,0.00,0.00
2026-06-26 18:18:05.157,994.08,994.08,0.23,0.63,0.00,1.31,0.26,9.23,0.00,-0.00,0.00,0.00
2026-06-26 18:18:05.159,994.08,994.08,0.23,0.63,0.00,1.31,0.26,9.23,0.00,-0.00,0.00,0.00
2026-06-26 18:18:05.160,994.08,994.08,0.23,0.63,0.00,1.33,0.27,9.23,-0.00,0.00,0.00,0.00
2026-06-26 18:18:05.161,994.08,994.08,0.23,0.63,0.00,1.33,0.27,9.23,-0.00,0.00,0.00,0.00
2026-06-26 18:18:05.162,994.08,994.08,0.23,0.63,0.00,1.33,0.27,9.23,-0.00,0.00,0.00,0.00
2026-06-26 18:18:05.164,994.08,994.08,0.23,0.63,0.00,1.33,0.27,9.23,-0.00,0.00,0.00,0.00
2026-06-26 18:18:05.167,994.08,994.08,0.23,0.63,0.00,1.33,0.27,9.23,-0.00,0.00,0.00,0.00
2026-06-26 18:18:05.170,994.08,994.08,0.23,0.63,0.00,1.33,0.27,9.23,0.00,0.00,-0.00,0.00
2026-06-26 18:18:05.171,994.08,994.08,0.23,0.63,0.00,1.34,0.26,9.21,0.00,0.00,-0.00,0.00
2026-06-26 18:18:05.173,994.08,994.08,0.23,0.63,0.00,1.34,0.26,9.21,0.00,0.00,-0.00,0.00
2026-06-26 18:18:05.178,994.08,994.08,0.23,0.63,0.00,1.34,0.26,9.21,0.00,0.00,-0.00,0.00
2026-06-26 18:18:05.180,994.08,994.08,0.23,0.63,0.00,1.30,0.24,9.21,0.00,0.00,0.00,0.00
2026-06-26 18:18:05.181,994.08,994.08,0.23,0.63,0.00,1.30,0.24,9.21,0.00,0.00,0.00,0.00
2026-06-26 18:18:05.182,994.08,994.08,0.23,0.63,0.00,1.30,0.24,9.21,0.00,0.00,0.00,0.00
2026-06-26 18:18:05.184,994.08,994.08,0.23,0.63,0.00,1.30,0.24,9.21,0.00,0.00,0.00,0.00
2026-06-26 18:18:05.185,994.08,994.08,0.23,0.63,0.00,1.30,0.24,9.21,0.00,0.00,0.00,0.00
2026-06-26 18:18:05.189,994.08,994.08,0.23,0.63,0.00,1.30,0.24,9.21,0.00,0.00,0.00,0.00
2026-06-26 18:18:05.191,994.08,994.08,0.23,0.63,0.00,1.32,0.26,9.23,-0.00,0.00,0.00,0.00
2026-06-26 18:18:05.193,994.08,994.08,0.23,0.63,0.00,1.32,0.26,9.23,-0.00,0.00,0.00,0.00
2026-06-26 18:18:05.194,994.08,994.08,0.23,0.63,0.00,1.32,0.26,9.23,-0.00,0.00,0.00,0.00
2026-06-26 18:18:05.199,994.08,994.08,0.23,0.63,0.00,1.32,0.26,9.23,-0.00,0.00,0.00,0.00
2026-06-26 18:18:05.201,994.08,994.08,0.23,0.63,0.00,1.33,0.24,9.24,0.00,0.00,-0.00,0.00
2026-06-26 18:18:05.282,994.08,994.08,0.06,0.34,0.00,1.32,0.27,9.25,0.00,0.00,0.00,0.00
2026-06-26 18:18:05.284,994.08,994.08,0.06,0.34,0.00,1.32,0.27,9.25,0.00,0.00,0.00,0.00
2026-06-26 18:18:05.290,994.08,994.08,0.06,0.34,0.00,1.32,0.27,9.25,0.00,0.00,0.00,0.00
2026-06-26 18:18:05.292,994.08,994.08,0.06,0.34,0.00,1.32,0.27,9.21,0.00,0.00,0.00,0.00
2026-06-26 18:18:05.294,994.08,994.08,0.06,0.34,0.00,1.32,0.27,9.21,0.00,0.00,0.00,0.00
2026-06-26 18:18:05.300,994.08,994.08,0.06,0.34,0.00,1.32,0.27,9.21,0.00,0.00,0.00,0.00
2026-06-26 18:18:05.301,994.08,994.08,0.06,0.34,0.00,1.32,0.28,9.23,0.00,-0.00,0.00,0.00
2026-06-26 18:18:05.302,994.08,994.08,0.06,0.34,0.00,1.32,0.28,9.23,0.00,-0.00,0.00,0.00
2026-06-26 18:18:05.303,994.08,994.08,0.06,0.34,0.00,1.32,0.28,9.23,0.00,-0.00,0.00,0.00
2026-06-26 18:18:05.305,994.08,994.08,0.06,0.34,0.00,1.32,0.28,9.23,0.00,-0.00,0.00,0.00
2026-06-26 18:18:05.307,994.08,994.08,0.06,0.34,0.00,1.32,0.28,9.23,0.00,-0.00,0.00,0.00
2026-06-26 18:18:05.309,994.08,994.08,0.06,0.34,0.00,1.32,0.28,9.23,0.00,-0.00,0.00,0.00
2026-06-26 18:18:05.311,994.08,994.08,0.06,0.34,0.00,1.33,0.25,9.23,-0.00,-0.00,0.00,0.00
2026-06-26 18:18:05.312,994.08,994.08,0.06,0.34,0.00,1.33,0.25,9.23,-0.00,-0.00,0.00,0.00
2026-06-26 18:18:05.313,994.08,994.08,0.06,0.34,0.00,1.33,0.25,9.23,-0.00,-0.00,0.00,0.00
2026-06-26 18:18:05.314,994.08,994.08,0.06,0.34,0.00,1.33,0.25,9.23,-0.00,-0.00,0.00,0.00
2026-06-26 18:18:05.320,994.08,994.08,0.06,0.34,0.00,1.33,0.25,9.23,-0.00,-0.00,0.00,0.00
2026-06-26 18:18:05.321,994.08,994.08,0.06,0.34,0.00,1.31,0.27,9.23,-0.00,-0.00,0.00,0.00
2026-06-26 18:18:05.324,994.08,994.08,0.06,0.34,0.00,1.31,0.27,9.23,-0.00,-0.00,0.00,0.00
2026-06-26 18:18:05.329,994.08,994.08,0.06,0.34,0.00,1.31,0.27,9.23,-0.00,-0.00,0.00,0.00
2026-06-26 18:18:05.331,994.08,994.08,0.06,0.34,0.00,1.32,0.27,9.22,0.00,0.00,0.00,0.00
2026-06-26 18:18:05.332,994.08,994.08,0.06,0.34,0.00,1.32,0.27,9.22,0.00,0.00,0.00,0.00
2026-06-26 18:18:05.334,994.08,994.08,0.06,0.34,0.00,1.32,0.27,9.22,0.00,0.00,0.00,0.00
2026-06-26 18:18:05.340,994.08,994.08,0.06,0.34,0.00,1.32,0.27,9.22,0.00,0.00,0.00,0.00
2026-06-26 18:18:05.341,994.08,994.08,0.06,0.34,0.00,1.31,0.26,9.23,-0.00,0.00,0.00,0.00
2026-06-26 18:18:05.423,994.08,994.08,0.28,0.70,0.00,1.32,0.27,9.24,-0.00,-0.00,0.00,0.00
2026-06-26 18:18:05.426,994.08,994.08,0.28,0.70,0.00,1.32,0.27,9.24,-0.00,-0.00,0.00,0.00
2026-06-26 18:18:05.431,994.08,994.08,0.28,0.70,0.00,1.32,0.27,9.24,-0.00,-0.00,0.00,0.00
2026-06-26 18:18:05.432,994.08,994.08,0.28,0.70,0.00,1.32,0.28,9.21,-0.00,-0.00,0.00,0.00
2026-06-26 18:18:05.436,994.08,994.08,0.28,0.70,0.00,1.32,0.28,9.21,-0.00,-0.00,0.00,0.00
2026-06-26 18:18:05.440,994.08,994.08,0.28,0.70,0.00,1.32,0.28,9.21,0.00,0.00,0.00,0.00
2026-06-26 18:18:05.441,994.08,994.08,0.28,0.70,0.00,1.34,0.26,9.24,0.00,0.00,0.00,0.00
2026-06-26 18:18:05.442,994.08,994.08,0.28,0.70,0.00,1.34,0.26,9.24,0.00,0.00,0.00,0.00
2026-06-26 18:18:05.444,994.08,994.08,0.28,0.70,0.00,1.34,0.26,9.24,0.00,0.00,0.00,0.00
2026-06-26 18:18:05.445,994.08,994.08,0.28,0.70,0.00,1.34,0.26,9.24,0.00,0.00,0.00,0.00
2026-06-26 18:18:05.450,994.08,994.08,0.28,0.70,0.00,1.34,0.26,9.24,0.00,0.00,0.00,0.00
2026-06-26 18:18:05.451,994.08,994.08,0.28,0.70,0.00,1.32,0.28,9.27,-0.00,-0.00,0.00,0.00
2026-06-26 18:18:05.452,994.08,994.08,0.28,0.70,0.00,1.32,0.28,9.27,-0.00,-0.00,0.00,0.00
2026-06-26 18:18:05.454,994.08,994.08,0.28,0.70,0.00,1.32,0.28,9.27,-0.00,-0.00,0.00,0.00
2026-06-26 18:18:05.455,994.08,994.08,0.28,0.70,0.00,1.32,0.28,9.27,-0.00,-0.00,0.00,0.00
2026-06-26 18:18:05.458,994.08,994.08,0.28,0.70,0.00,1.32,0.28,9.27,-0.00,-0.00,0.00,0.00
2026-06-26 18:18:05.461,994.08,994.08,0.28,0.70,0.00,1.32,0.28,9.27,-0.00,-0.00,0.00,0.00
2026-06-26 18:18:05.462,994.08,994.08,0.28,0.70,0.00,1.33,0.26,9.25,-0.00,-0.00,0.00,0.00
2026-06-26 18:18:05.463,994.08,994.08,0.28,0.70,0.00,1.33,0.26,9.25,-0.00,-0.00,0.00,0.00
2026-06-26 18:18:05.465,994.08,994.08,0.28,0.70,0.00,1.33,0.26,9.25,-0.00,-0.00,0.00,0.00
2026-06-26 18:18:05.470,994.08,994.08,0.28,0.70,0.00,1.33,0.26,9.25,-0.00,-0.00,0.00,0.00
2026-06-26 18:18:05.471,994.08,994.08,0.28,0.70,0.00,1.31,0.28,9.25,-0.00,0.00,0.00,0.00
2026-06-26 18:18:05.472,994.08,994.08,0.28,0.70,0.00,1.31,0.28,9.25,-0.00,0.00,0.00,0.00
2026-06-26 18:18:05.474,994.08,994.08,0.28,0.70,0.00,1.31,0.28,9.25,-0.00,0.00,0.00,0.00
2026-06-26 18:18:05.475,994.08,994.08,0.28,0.70,0.00,1.31,0.28,9.25,-0.00,0.00,0.00,0.00
2026-06-26 18:18:05.480,994.08,994.08,0.28,0.70,0.00,1.31,0.28,9.25,-0.00,0.00,0.00,0.00
2026-06-26 18:18:05.482,994.08,994.08,0.28,0.70,0.00,1.34,0.26,9.23,-0.00,0.00,0.00,0.00
2026-06-26 18:18:05.570,994.08,994.08,0.36,0.79,0.00,1.33,0.27,9.24,-0.00,-0.00,0.00,0.00
2026-06-26 18:18:05.571,994.08,994.08,0.36,0.79,0.00,1.31,0.26,9.23,0.00,-0.00,0.00,0.00
2026-06-26 18:18:05.574,994.08,994.08,0.36,0.79,0.00,1.31,0.26,9.23,0.00,-0.00,0.00,0.00
2026-06-26 18:18:05.577,994.08,994.08,0.36,0.79,0.00,1.31,0.26,9.23,0.00,-0.00,0.00,0.00
2026-06-26 18:18:05.581,994.08,994.08,0.36,0.79,0.00,1.31,0.26,9.23,-0.00,-0.00,0.00,0.00
2026-06-26 18:18:05.582,994.08,994.08,0.36,0.79,0.00,1.33,0.27,9.24,-0.00,-0.00,0.00,0.00
2026-06-26 18:18:05.583,994.08,994.08,0.36,0.79,0.00,1.33,0.27,9.24,-0.00,-0.00,0.00,0.00
2026-06-26 18:18:05.585,994.08,994.08,0.36,0.79,0.00,1.33,0.27,9.24,-0.00,-0.00,0.00,0.00
2026-06-26 18:18:05.586,994.08,994.08,0.36,0.79,0.00,1.33,0.27,9.24,-0.00,-0.00,0.00,0.00
2026-06-26 18:18:05.590,994.08,994.08,0.36,0.79,0.00,1.33,0.27,9.24,-0.00,0.00,0.00,0.00
2026-06-26 18:18:05.592,994.08,994.08,0.36,0.79,0.00,1.34,0.27,9.22,-0.00,0.00,0.00,0.00
2026-06-26 18:18:05.593,994.08,994.08,0.36,0.79,0.00,1.34,0.27,9.22,-0.00,0.00,0.00,0.00
2026-06-26 18:18:05.594,994.08,994.08,0.36,0.79,0.00,1.34,0.27,9.22,-0.00,0.00,0.00,0.00
2026-06-26 18:18:05.595,994.08,994.08,0.36,0.79,0.00,1.34,0.27,9.22,-0.00,0.00,0.00,0.00
2026-06-26 18:18:05.600,994.08,994.08,0.36,0.79,0.00,1.34,0.27,9.22,-0.00,0.00,0.00,0.00
2026-06-26 18:18:05.602,994.08,994.08,0.36,0.79,0.00,1.32,0.27,9.24,0.00,0.00,0.00,0.00
2026-06-26 18:18:05.603,994.08,994.08,0.36,0.79,0.00,1.32,0.27,9.24,0.00,0.00,0.00,0.00
2026-06-26 18:18:05.604,994.08,994.08,0.36,0.79,0.00,1.32,0.27,9.24,0.00,0.00,0.00,0.00
2026-06-26 18:18:05.605,994.08,994.08,0.36,0.79,0.00,1.32,0.27,9.24,0.00,0.00,0.00,0.00
2026-06-26 18:18:05.606,994.08,994.08,0.36,0.79,0.00,1.32,0.27,9.24,0.00,0.00,0.00,0.00
2026-06-26 18:18:05.608,994.08,994.08,0.36,0.79,0.00,1.32,0.27,9.24,0.00,0.00,0.00,0.00
2026-06-26 18:18:05.609,994.08,994.08,0.36,0.79,0.00,1.32,0.27,9.24,0.00,0.00,0.00,0.00
2026-06-26 18:18:05.613,994.08,994.08,0.36,0.79,0.00,1.33,0.28,9.24,-0.00,-0.00,0.00,0.00
2026-06-26 18:18:05.616,994.08,994.08,0.36,0.79,0.00,1.33,0.28,9.24,-0.00,-0.00,0.00,0.00
2026-06-26 18:18:05.620,994.08,994.08,0.36,0.79,0.00,1.33,0.28,9.24,-0.00,-0.00,0.00,0.00
2026-06-26 18:18:05.622,994.08,994.08,0.36,0.79,0.00,1.33,0.27,9.23,-0.00,0.00,0.00,0.00
2026-06-26 18:18:05.623,994.08,994.08,0.36,0.79,0.00,1.33,0.27,9.23,-0.00,0.00,0.00,0.00
2026-06-26 18:18:05.706,994.08,994.09,0.27,0.69,0.00,1.34,0.27,9.22,0.00,0.00,-0.00,0.00
2026-06-26 18:18:05.707,994.08,994.09,0.27,0.69,0.00,1.34,0.27,9.22,0.00,0.00,-0.00,0.00
2026-06-26 18:18:05.708,994.08,994.09,0.27,0.69,0.00,1.34,0.27,9.22,0.00,0.00,-0.00,0.00
2026-06-26 18:18:05.711,994.08,994.09,0.27,0.69,0.00,1.34,0.27,9.22,0.00,0.00,0.00,0.00
2026-06-26 18:18:05.712,994.08,994.09,0.27,0.69,0.00,1.31,0.29,9.21,0.00,0.00,0.00,0.00
2026-06-26 18:18:05.713,994.08,994.09,0.27,0.69,0.00,1.31,0.29,9.21,0.00,0.00,0.00,0.00
2026-06-26 18:18:05.715,994.08,994.09,0.27,0.69,0.00,1.31,0.29,9.21,0.00,0.00,0.00,0.00
2026-06-26 18:18:05.718,994.08,994.09,0.27,0.69,0.00,1.31,0.29,9.21,0.00,0.00,0.00,0.00
2026-06-26 18:18:05.721,994.08,994.09,0.27,0.69,0.00,1.31,0.29,9.21,0.00,-0.00,0.00,0.00
2026-06-26 18:18:05.722,994.08,994.09,0.27,0.69,0.00,1.33,0.25,9.20,0.00,-0.00,0.00,0.00
2026-06-26 18:18:05.723,994.08,994.09,0.27,0.69,0.00,1.33,0.25,9.20,0.00,-0.00,0.00,0.00
2026-06-26 18:18:05.725,994.08,994.09,0.27,0.69,0.00,1.33,0.25,9.20,0.00,-0.00,0.00,0.00
2026-06-26 18:18:05.727,994.08,994.09,0.27,0.69,0.00,1.33,0.25,9.20,0.00,-0.00,0.00,0.00
2026-06-26 18:18:05.731,994.08,994.09,0.27,0.69,0.00,1.33,0.25,9.20,-0.00,0.00,0.00,0.00
2026-06-26 18:18:05.732,994.08,994.09,0.27,0.69,0.00,1.32,0.25,9.22,-0.00,0.00,0.00,0.00
2026-06-26 18:18:05.733,994.08,994.09,0.27,0.69,0.00,1.32,0.25,9.22,-0.00,0.00,0.00,0.00
2026-06-26 18:18:05.735,994.08,994.09,0.27,0.69,0.00,1.32,0.25,9.22,-0.00,0.00,0.00,0.00
2026-06-26 18:18:05.737,994.08,994.09,0.27,0.69,0.00,1.32,0.25,9.22,-0.00,0.00,0.00,0.00
2026-06-26 18:18:05.741,994.08,994.09,0.27,0.69,0.00,1.32,0.25,9.22,0.00,0.00,-0.00,0.00
2026-06-26 18:18:05.743,994.08,994.09,0.27,0.69,0.00,1.33,0.28,9.22,0.00,0.00,-0.00,0.00
2026-06-26 18:18:05.745,994.08,994.09,0.27,0.69,0.00,1.33,0.28,9.22,0.00,0.00,-0.00,0.00
2026-06-26 18:18:05.750,994.08,994.09,0.27,0.69,0.00,1.33,0.28,9.22,0.00,0.00,-0.00,0.00
2026-06-26 18:18:05.762,994.08,994.09,0.27,0.69,0.00,1.30,0.25,9.23,0.00,0.00,-0.00,0.00
2026-06-26 18:18:05.764,994.08,994.09,0.27,0.69,0.00,1.30,0.25,9.23,0.00,0.00,-0.00,0.00
2026-06-26 18:18:05.768,994.08,994.09,0.27,0.69,0.00,1.30,0.25,9.23,0.00,0.00,-0.00,0.00
2026-06-26 18:18:05.852,994.08,994.09,0.65,1.07,0.00,1.31,0.25,9.26,0.00,-0.00,0.00,0.00
2026-06-26 18:18:05.854,994.08,994.09,0.65,1.07,0.00,1.31,0.25,9.26,0.00,-0.00,0.00,0.00
2026-06-26 18:18:05.855,994.08,994.09,0.65,1.07,0.00,1.31,0.25,9.26,0.00,-0.00,0.00,0.00
2026-06-26 18:18:05.856,994.08,994.09,0.65,1.07,0.00,1.31,0.25,9.26,0.00,-0.00,0.00,0.00
2026-06-26 18:18:05.857,994.08,994.09,0.65,1.07,0.00,1.31,0.25,9.26,0.00,-0.00,0.00,0.00
2026-06-26 18:18:05.859,994.08,994.09,0.65,1.07,0.00,1.31,0.25,9.26,0.00,-0.00,0.00,0.00
2026-06-26 18:18:05.862,994.08,994.09,0.65,1.07,0.00,1.31,0.25,9.26,0.00,0.00,-0.00,0.00
2026-06-26 18:18:05.863,994.08,994.09,0.65,1.07,0.00,1.31,0.26,9.24,0.00,0.00,-0.00,0.00
2026-06-26 18:18:05.868,994.08,994.09,0.65,1.07,0.00,1.31,0.26,9.24,0.00,0.00,-0.00,0.00
2026-06-26 18:18:05.871,994.08,994.09,0.65,1.07,0.00,1.31,0.26,9.24,-0.00,-0.01,0.00,0.00
2026-06-26 18:18:05.873,994.08,994.09,0.65,1.07,0.00,1.32,0.27,9.24,-0.00,-0.01,0.00,0.00
2026-06-26 18:18:05.874,994.08,994.09,0.65,1.07,0.00,1.32,0.27,9.24,-0.00,-0.01,0.00,0.00
2026-06-26 18:18:05.875,994.08,994.09,0.65,1.07,0.00,1.32,0.27,9.24,-0.00,-0.01,0.00,0.00
2026-06-26 18:18:05.879,994.08,994.09,0.65,1.07,0.00,1.32,0.27,9.24,-0.00,-0.01,0.00,0.00
2026-06-26 18:18:05.881,994.08,994.09,0.65,1.07,0.00,1.32,0.27,9.24,0.00,-0.00,0.00,0.00
2026-06-26 18:18:05.883,994.08,994.09,0.65,1.07,0.00,1.31,0.27,9.23,0.00,-0.00,0.00,0.00
2026-06-26 18:18:05.884,994.08,994.09,0.65,1.07,0.00,1.31,0.27,9.23,0.00,-0.00,0.00,0.00
2026-06-26 18:18:05.885,994.08,994.09,0.65,1.07,0.00,1.31,0.27,9.23,0.00,-0.00,0.00,0.00
2026-06-26 18:18:05.886,994.08,994.09,0.65,1.07,0.00,1.31,0.27,9.23,0.00,-0.00,0.00,0.00
2026-06-26 18:18:05.891,994.08,994.09,0.65,1.07,0.00,1.31,0.27,9.23,0.00,-0.00,0.00,0.00
2026-06-26 18:18:05.892,994.08,994.09,0.65,1.07,0.00,1.31,0.27,9.21,0.00,-0.00,-0.00,0.00
2026-06-26 18:18:05.894,994.08,994.09,0.65,1.07,0.00,1.31,0.27,9.21,0.00,-0.00,-0.00,0.00
2026-06-26 18:18:05.895,994.08,994.09,0.65,1.07,0.00,1.31,0.27,9.21,0.00,-0.00,-0.00,0.00
2026-06-26 18:18:05.898,994.08,994.09,0.65,1.07,0.00,1.31,0.27,9.21,0.00,-0.00,-0.00,0.00
2026-06-26 18:18:05.901,994.08,994.09,0.65,1.07,0.00,1.31,0.27,9.21,0.00,0.00,0.00,0.00
2026-06-26 18:18:05.903,994.08,994.09,0.65,1.07,0.00,1.31,0.28,9.24,0.00,0.00,0.00,0.00
2026-06-26 18:18:05.904,994.08,994.09,0.65,1.07,0.00,1.31,0.28,9.24,0.00,0.00,0.00,0.00
2026-06-26 18:18:05.905,994.08,994.09,0.65,1.07,0.00,1.31,0.28,9.24,0.00,0.00,0.00,0.00
2026-06-26 18:18:05.906,994.08,994.09,0.65,1.07,0.00,1.31,0.28,9.24,0.00,0.00,0.00,0.00
2026-06-26 18:18:05.908,994.08,994.09,0.65,1.07,0.00,1.31,0.28,9.24,0.00,0.00,0.00,0.00
2026-06-26 18:18:05.909,994.08,994.09,0.65,1.07,0.00,1.31,0.28,9.24,0.00,0.00,0.00,0.00
2026-06-26 18:18:05.911,994.08,994.09,0.65,1.07,0.00,1.31,0.28,9.24,0.00,0.00,0.00,0.00
2026-06-26 18:18:05.993,994.08,994.09,1.28,1.50,0.00,1.34,0.27,9.22,-0.00,0.00,0.00,0.00
2026-06-26 18:18:05.995,994.08,994.09,1.28,1.50,0.00,1.34,0.27,9.22,-0.00,0.00,0.00,0.00
2026-06-26 18:18:05.996,994.08,994.09,1.28,1.50,0.00,1.34,0.27,9.22,-0.00,0.00,0.00,0.00
2026-06-26 18:18:05.001,994.08,994.09,1.28,1.50,0.00,1.34,0.27,9.22,-0.00,0.00,0.00,0.00
2026-06-26 18:18:05.003,994.08,994.09,1.28,1.50,0.00,1.33,0.24,9.23,0.00,-0.00,0.00,0.00
2026-06-26 18:18:06.004,994.08,994.09,1.28,1.50,0.00,1.33,0.24,9.23,0.00,-0.00,0.00,0.00
2026-06-26 18:18:06.005,994.08,994.09,1.28,1.50,0.00,1.33,0.24,9.23,0.00,-0.00,0.00,0.00
2026-06-26 18:18:06.006,994.08,994.09,1.28,1.50,0.00,1.33,0.24,9.23,0.00,-0.00,0.00,0.00
2026-06-26 18:18:06.007,994.08,994.09,1.28,1.50,0.00,1.33,0.24,9.23,0.00,-0.00,0.00,0.00
2026-06-26 18:18:06.009,994.08,994.09,1.28,1.50,0.00,1.33,0.24,9.23,0.00,-0.00,0.00,0.00
2026-06-26 18:18:06.010,994.08,994.09,1.28,1.50,0.00,1.33,0.24,9.23,0.00,-0.00,0.00,0.00
2026-06-26 18:18:06.012,994.08,994.09,1.28,1.50,0.00,1.32,0.26,9.24,0.00,0.00,-0.00,0.00
2026-06-26 18:18:06.013,994.08,994.09,1.28,1.50,0.00,1.32,0.26,9.24,0.00,0.00,-0.00,0.00
2026-06-26 18:18:06.016,994.08,994.09,1.28,1.50,0.00,1.32,0.26,9.24,0.00,0.00,-0.00,0.00
2026-06-26 18:18:06.021,994.08,994.09,1.28,1.50,0.00,1.32,0.26,9.24,0.00,0.00,-0.00,0.00
2026-06-26 18:18:06.022,994.08,994.09,1.28,1.50,0.00,1.32,0.27,9.21,-0.00,-0.00,-0.00,0.00
2026-06-26 18:18:06.024,994.08,994.09,1.28,1.50,0.00,1.32,0.27,9.21,-0.00,-0.00,-0.00,0.00
2026-06-26 18:18:06.025,994.08,994.09,1.28,1.50,0.00,1.32,0.27,9.21,-0.00,-0.00,-0.00,0.00
2026-06-26 18:18:06.026,994.08,994.09,1.28,1.50,0.00,1.32,0.27,9.21,-0.00,-0.00,-0.00,0.00
2026-06-26 18:18:06.031,994.08,994.09,1.28,1.50,0.00,1.32,0.27,9.21,-0.00,-0.00,-0.00,0.00
2026-06-26 18:18:06.032,994.08,994.09,1.28,1.50,0.00,1.32,0.27,9.20,0.00,0.00,0.00,0.00
2026-06-26 18:18:06.034,994.08,994.09,1.28,1.50,0.00,1.32,0.27,9.20,0.00,0.00,0.00,0.00
2026-06-26 18:18:06.035,994.08,994.09,1.28,1.50,0.00,1.32,0.27,9.20,0.00,0.00,0.00,0.00
2026-06-26 18:18:06.036,994.08,994.09,1.28,1.50,0.00,1.32,0.27,9.20,0.00,0.00,0.00,0.00
2026-06-26 18:18:06.041,994.08,994.09,1.28,1.50,0.00,1.32,0.27,9.20,-0.00,0.00,0.00,0.00
2026-06-26 18:18:06.043,994.08,994.09,1.28,1.50,0.00,1.32,0.26,9.22,-0.00,0.00,0.00,0.00
2026-06-26 18:18:06.044,994.08,994.09,1.28,1.50,0.00,1.32,0.26,9.22,-0.00,0.00,0.00,0.00
2026-06-26 18:18:06.045,994.08,994.09,1.28,1.50,0.00,1.32,0.26,9.22,-0.00,0.00,0.00,0.00
2026-06-26 18:18:06.047,994.08,994.09,1.28,1.50,0.00,1.32,0.26,9.22,-0.00,0.00,0.00,0.00
2026-06-26 18:18:06.052,994.08,994.09,1.28,1.50,0.00,1.32,0.26,9.22,0.00,0.00,-0.00,0.00
2026-06-26 18:18:06.093,994.08,994.08,0.97,1.31,0.00,1.33,0.28,9.24,0.00,-0.00,0.00,0.00
2026-06-26 18:18:06.135,994.08,994.08,0.98,1.31,0.00,1.33,0.29,9.23,-0.00,0.00,0.00,0.00
2026-06-26 18:18:06.137,994.08,994.08,0.98,1.31,0.00,1.33,0.29,9.23,-0.00,0.00,0.00,0.00
2026-06-26 18:18:06.142,994.08,994.08,0.98,1.31,0.00,1.33,0.29,9.23,0.00,-0.00,-0.00,0.00
2026-06-26 18:18:06.143,994.08,994.08,0.98,1.31,0.00,1.33,0.28,9.23,0.00,-0.00,-0.00,0.00
2026-06-26 18:18:06.144,994.08,994.08,0.98,1.31,0.00,1.33,0.28,9.23,0.00,-0.00,-0.00,0.00
2026-06-26 18:18:06.145,994.08,994.08,0.98,1.31,0.00,1.33,0.28,9.23,0.00,-0.00,-0.00,0.00
2026-06-26 18:18:06.147,994.08,994.08,0.98,1.31,0.00,1.33,0.28,9.23,0.00,-0.00,-0.00,0.00
2026-06-26 18:18:06.152,994.08,994.08,0.98,1.31,0.00,1.33,0.28,9.23,0.00,-0.00,-0.00,0.00
2026-06-26 18:18:06.153,994.08,994.08,0.98,1.31,0.00,1.33,0.25,9.26,-0.00,0.00,0.00,0.00
2026-06-26 18:18:06.154,994.08,994.08,0.98,1.31,0.00,1.33,0.25,9.26,-0.00,0.00,0.00,0.00
2026-06-26 18:18:06.155,994.08,994.08,0.98,1.31,0.00,1.33,0.25,9.26,-0.00,0.00,0.00,0.00
2026-06-26 18:18:06.157,994.08,994.08,0.98,1.31,0.00,1.33,0.25,9.26,-0.00,0.00,0.00,0.00
2026-06-26 18:18:06.158,994.08,994.08,0.98,1.31,0.00,1.33,0.25,9.26,-0.00,0.00,0.00,0.00
2026-06-26 18:18:06.159,994.08,994.08,0.98,1.31,0.00,1.33,0.25,9.26,-0.00,0.00,0.00,0.00
2026-06-26 18:18:06.161,994.08,994.08,0.98,1.31,0.00,1.33,0.25,9.26,-0.00,0.00,0.00,0.00
2026-06-26 18:18:06.162,994.08,994.08,0.98,1.31,0.00,1.31,0.25,9.23,0.00,-0.00,0.00,0.00
2026-06-26 18:18:06.163,994.08,994.08,0.98,1.31,0.00,1.31,0.25,9.23,0.00,-0.00,0.00,0.00
2026-06-26 18:18:06.165,994.08,994.08,0.98,1.31,0.00,1.31,0.25,9.23,0.00,-0.00,0.00,0.00
2026-06-26 18:18:06.173,994.08,994.08,0.98,1.31,0.00,1.31,0.25,9.23,0.00,-0.00,0.00,0.00
2026-06-26 18:18:06.175,994.08,994.08,0.98,1.31,0.00,1.33,0.28,9.23,0.00,0.00,-0.00,0.00
2026-06-26 18:18:06.181,994.08,994.08,0.98,1.31,0.00,1.33,0.28,9.23,0.00,0.00,-0.00,0.00
2026-06-26 18:18:06.183,994.08,994.08,0.98,1.31,0.00,1.31,0.29,9.24,-0.00,0.00,0.00,0.00
2026-06-26 18:18:06.184,994.08,994.08,0.98,1.31,0.00,1.31,0.29,9.24,-0.00,0.00,0.00,0.00
2026-06-26 18:18:06.186,994.08,994.08,0.98,1.31,0.00,1.31,0.29,9.24,-0.00,0.00,0.00,0.00
2026-06-26 18:18:06.189,994.08,994.08,0.98,1.31,0.00,1.31,0.29,9.24,-0.00,0.00,0.00,0.00
2026-06-26 18:18:06.192,994.08,994.08,0.98,1.31,0.00,1.31,0.29,9.24,0.00,-0.00,0.00,0.00
2026-06-26 18:18:06.232,994.08,994.08,0.53,0.97,0.00,1.31,0.27,9.24,0.00,0.00,-0.00,0.00
2026-06-26 18:18:06.233,994.08,994.08,0.53,0.97,0.00,1.34,0.26,9.22,0.00,0.00,-0.00,0.00
2026-06-26 18:18:06.275,994.08,994.08,0.23,0.63,0.00,1.32,0.27,9.24,-0.00,0.00,0.00,0.00
2026-06-26 18:18:06.276,994.08,994.08,0.23,0.63,0.00,1.32,0.27,9.24,-0.00,0.00,0.00,0.00
2026-06-26 18:18:06.282,994.08,994.08,0.23,0.63,0.00,1.32,0.27,9.24,-0.00,0.00,0.00,0.00
2026-06-26 18:18:06.283,994.08,994.08,0.23,0.63,0.00,1.33,0.25,9.23,0.00,0.00,-0.00,0.00
2026-06-26 18:18:06.284,994.08,994.08,0.23,0.63,0.00,1.33,0.25,9.23,0.00,0.00,-0.00,0.00
2026-06-26 18:18:06.285,994.08,994.08,0.23,0.63,0.00,1.33,0.25,9.23,0.00,0.00,-0.00,0.00
2026-06-26 18:18:06.287,994.08,994.08,0.23,0.63,0.00,1.33,0.25,9.23,0.00,0.00,-0.00,0.00
2026-06-26 18:18:06.288,994.08,994.08,0.23,0.63,0.00,1.33,0.25,9.23,0.00,0.00,-0.00,0.00
2026-06-26 18:18:06.292,994.08,994.08,0.23,0.63,0.00,1.33,0.25,9.23,0.00,0.00,0.00,0.00
2026-06-26 18:18:06.293,994.08,994.08,0.23,0.63,0.00,1.33,0.26,9.21,0.00,0.00,0.00,0.00
2026-06-26 18:18:06.294,994.08,994.08,0.23,0.63,0.00,1.33,0.26,9.21,0.00,0.00,0.00,0.00
2026-06-26 18:18:06.296,994.08,994.08,0.23,0.63,0.00,1.33,0.26,9.21,0.00,0.00,0.00,0.00
2026-06-26 18:18:06.297,994.08,994.08,0.23,0.63,0.00,1.33,0.26,9.21,0.00,0.00,0.00,0.00
2026-06-26 18:18:06.302,994.08,994.08,0.23,0.63,0.00,1.33,0.26,9.21,0.00,0.00,0.00,0.00
2026-06-26 18:18:06.303,994.08,994.08,0.23,0.63,0.00,1.33,0.28,9.22,0.00,-0.00,0.00,0.00
2026-06-26 18:18:06.304,994.08,994.08,0.23,0.63,0.00,1.33,0.28,9.22,0.00,-0.00,0.00,0.00
2026-06-26 18:18:06.306,994.08,994.08,0.23,0.63,0.00,1.33,0.28,9.22,0.00,-0.00,0.00,0.00
2026-06-26 18:18:06.308,994.08,994.08,0.23,0.63,0.00,1.33,0.28,9.22,0.00,-0.00,0.00,0.00
2026-06-26 18:18:06.309,994.08,994.08,0.23,0.63,0.00,1.33,0.28,9.22,0.00,-0.00,0.00,0.00
2026-06-26 18:18:06.312,994.08,994.08,0.23,0.63,0.00,1.33,0.28,9.22,0.00,-0.00,0.00,0.00
2026-06-26 18:18:06.313,994.08,994.08,0.23,0.63,0.00,1.32,0.26,9.25,0.00,-0.00,0.00,0.00
2026-06-26 18:18:06.314,994.08,994.08,0.23,0.63,0.00,1.32,0.26,9.25,0.00,-0.00,0.00,0.00
2026-06-26 18:18:06.315,994.08,994.08,0.23,0.63,0.00,1.32,0.26,9.25,0.00,-0.00,0.00,0.00
2026-06-26 18:18:06.316,994.08,994.08,0.23,0.63,0.00,1.32,0.26,9.25,0.00,-0.00,0.00,0.00
2026-06-26 18:18:06.322,994.08,994.08,0.23,0.63,0.00,1.32,0.26,9.25,0.00,-0.00,0.00,0.00
2026-06-26 18:18:06.323,994.08,994.08,0.23,0.63,0.00,1.31,0.26,9.25,0.00,0.00,-0.00,0.00
2026-06-26 18:18:06.324,994.08,994.08,0.23,0.63,0.00,1.31,0.26,9.25,0.00,0.00,-0.00,0.00
2026-06-26 18:18:06.325,994.08,994.08,0.23,0.63,0.00,1.31,0.26,9.25,0.00,0.00,-0.00,0.00
2026-06-26 18:18:06.326,994.08,994.08,0.23,0.63,0.00,1.31,0.26,9.25,0.00,0.00,-0.00,0.00
2026-06-26 18:18:06.332,994.08,994.08,0.23,0.63,0.00,1.31,0.26,9.25,0.00,0.00,-0.00,0.00
2026-06-26 18:18:06.374,994.08,994.08,0.48,0.92,0.00,1.33,0.26,9.22,-0.00,-0.00,0.00,0.00
2026-06-26 18:18:06.416,994.08,994.08,0.35,0.79,0.00,1.34,0.27,9.27,0.00,0.00,0.00,0.00
2026-06-26 18:18:06.421,994.08,994.08,0.35,0.79,0.00,1.34,0.27,9.27,0.00,0.00,0.00,0.00
2026-06-26 18:18:06.423,994.08,994.08,0.35,0.79,0.00,1.33,0.28,9.25,0.00,0.00,-0.00,0.00
2026-06-26 18:18:06.424,994.08,994.08,0.35,0.79,0.00,1.33,0.28,9.25,0.00,0.00,-0.00,0.00
2026-06-26 18:18:06.425,994.08,994.08,0.35,0.79,0.00,1.33,0.28,9.25,0.00,0.00,-0.00,0.00
2026-06-26 18:18:06.427,994.08,994.08,0.35,0.79,0.00,1.33,0.28,9.25,0.00,0.00,-0.00,0.00
2026-06-26 18:18:06.431,994.08,994.08,0.35,0.79,0.00,1.33,0.28,9.25,0.00,0.00,-0.00,0.00
2026-06-26 18:18:06.433,994.08,994.08,0.35,0.79,0.00,1.32,0.24,9.21,0.00,0.00,0.00,0.00
2026-06-26 18:18:06.434,994.08,994.08,0.35,0.79,0.00,1.32,0.24,9.21,0.00,0.00,0.00,0.00
2026-06-26 18:18:06.435,994.08,994.08,0.35,0.79,0.00,1.32,0.24,9.21,0.00,0.00,0.00,0.00
2026-06-26 18:18:06.436,994.08,994.08,0.35,0.79,0.00,1.32,0.24,9.21,0.00,0.00,0.00,0.00
2026-06-26 18:18:06.440,994.08,994.08,0.35,0.79,0.00,1.32,0.24,9.21,0.00,0.00,0.00,0.00
2026-06-26 18:18:06.443,994.08,994.08,0.35,0.79,0.00,1.31,0.25,9.24,0.00,0.00,0.00,0.00
2026-06-26 18:18:06.444,994.08,994.08,0.35,0.79,0.00,1.31,0.25,9.24,0.00,0.00,0.00,0.00
2026-06-26 18:18:06.445,994.08,994.08,0.35,0.79,0.00,1.31,0.25,9.24,0.00,0.00,0.00,0.00
2026-06-26 18:18:06.447,994.08,994.08,0.35,0.79,0.00,1.31,0.25,9.24,0.00,0.00,0.00,0.00
2026-06-26 18:18:06.452,994.08,994.08,0.35,0.79,0.00,1.31,0.25,9.24,0.00,0.00,0.00,0.00
2026-06-26 18:18:06.454,994.08,994.08,0.35,0.79,0.00,1.33,0.26,9.25,-0.00,-0.00,0.00,0.00
2026-06-26 18:18:06.457,994.08,994.08,0.35,0.79,0.00,1.33,0.26,9.25,-0.00,-0.00,0.00,0.00
2026-06-26 18:18:06.462,994.08,994.08,0.35,0.79,0.00,1.33,0.26,9.25,-0.00,-0.00,0.00,0.00
2026-06-26 18:18:06.463,994.08,994.08,0.35,0.79,0.00,1.32,0.26,9.20,0.00,0.00,-0.00,0.00
2026-06-26 18:18:06.465,994.08,994.08,0.35,0.79,0.00,1.32,0.26,9.20,0.00,0.00,-0.00,0.00
2026-06-26 18:18:06.467,994.08,994.08,0.35,0.79,0.00,1.32,0.26,9.20,0.00,0.00,-0.00,0.00
2026-06-26 18:18:06.473,994.08,994.08,0.35,0.79,0.00,1.32,0.26,9.20,0.00,0.00,0.00,0.00
2026-06-26 18:18:06.516,994.08,994.09,0.69,1.10,0.00,1.31,0.26,9.21,0.00,-0.00,0.00,0.00
2026-06-26 18:18:06.557,994.08,994.09,0.41,0.85,0.00,1.32,0.25,9.27,0.00,0.00,0.00,0.00
2026-06-26 18:18:06.559,994.08,994.09,0.41,0.85,0.00,1.32,0.25,9.27,0.00,0.00,0.00,0.00
2026-06-26 18:18:06.562,994.08,994.09,0.41,0.85,0.00,1.32,0.25,9.27,0.00,0.00,0.00,0.00
2026-06-26 18:18:06.563,994.08,994.09,0.41,0.85,0.00,1.32,0.26,9.23,-0.00,-0.00,0.00,0.00
2026-06-26 18:18:06.564,994.08,994.09,0.41,0.85,0.00,1.32,0.26,9.23,-0.00,-0.00,0.00,0.00
2026-06-26 18:18:06.565,994.08,994.09,0.41,0.85,0.00,1.32,0.26,9.23,-0.00,-0.00,0.00,0.00
2026-06-26 18:18:06.567,994.08,994.09,0.41,0.85,0.00,1.32,0.26,9.23,-0.00,-0.00,0.00,0.00
2026-06-26 18:18:06.570,994.08,994.09,0.41,0.85,0.00,1.32,0.26,9.23,-0.00,-0.00,0.00,0.00
2026-06-26 18:18:06.573,994.08,994.09,0.41,0.85,0.00,1.32,0.26,9.23,0.00,-0.00,-0.00,0.00
2026-06-26 18:18:06.574,994.08,994.09,0.41,0.85,0.00,1.33,0.28,9.24,0.00,-0.00,-0.00,0.00
2026-06-26 18:18:06.575,994.08,994.09,0.41,0.85,0.00,1.33,0.28,9.24,0.00,-0.00,-0.00,0.00
2026-06-26 18:18:06.576,994.08,994.09,0.41,0.85,0.00,1.33,0.28,9.24,0.00,-0.00,-0.00,0.00
2026-06-26 18:18:06.579,994.08,994.09,0.41,0.85,0.00,1.33,0.28,9.24,0.00,-0.00,-0.00,0.00
2026-06-26 18:18:06.583,994.08,994.09,0.41,0.85,0.00,1.33,0.28,9.24,0.00,0.00,-0.00,0.00
2026-06-26 18:18:06.584,994.08,994.09,0.41,0.85,0.00,1.32,0.27,9.24,0.00,0.00,-0.00,0.00
2026-06-26 18:18:06.585,994.08,994.09,0.41,0.85,0.00,1.32,0.27,9.24,0.00,0.00,-0.00,0.00
2026-06-26 18:18:06.586,994.08,994.09,0.41,0.85,0.00,1.32,0.27,9.24,0.00,0.00,-0.00,0.00
2026-06-26 18:18:06.587,994.08,994.09,0.41,0.85,0.00,1.32,0.27,9.24,0.00,0.00,-0.00,0.00
2026-06-26 18:18:06.593,994.08,994.09,0.41,0.85,0.00,1.32,0.27,9.24,0.00,0.00,-0.00,0.00
2026-06-26 18:18:06.595,994.08,994.09,0.41,0.85,0.00,1.31,0.28,9.22,0.00,0.00,0.00,0.00
2026-06-26 18:18:06.596,994.08,994.09,0.41,0.85,0.00,1.31,0.28,9.22,0.00,0.00,0.00,0.00
2026-06-26 18:18:06.598,994.08,994.09,0.41,0.85,0.00,1.31,0.28,9.22,0.00,0.00,0.00,0.00
2026-06-26 18:18:06.603,994.08,994.09,0.41,0.85,0.00,1.31,0.28,9.22,0.00,-0.00,0.00,0.00
2026-06-26 18:18:06.604,994.08,994.09,0.41,0.85,0.00,1.30,0.28,9.26,0.00,-0.00,0.00,0.00
2026-06-26 18:18:06.605,994.08,994.09,0.41,0.85,0.00,1.30,0.28,9.26,0.00,-0.00,0.00,0.00
2026-06-26 18:18:06.606,994.08,994.09,0.41,0.85,0.00,1.30,0.28,9.26,0.00,-0.00,0.00,0.00
2026-06-26 18:18:06.608,994.08,994.09,0.41,0.85,0.00,1.30,0.28,9.26,0.00,-0.00,0.00,0.00
2026-06-26 18:18:06.610,994.08,994.09,0.41,0.85,0.00,1.30,0.28,9.26,0.00,-0.00,0.00,0.00
2026-06-26 18:18:06.613,994.08,994.09,0.41,0.85,0.00,1.30,0.28,9.26,0.00,0.00,0.00,0.00
2026-06-26 18:18:06.614,994.08,994.09,0.41,0.85,0.00,1.30,0.28,9.23,0.00,0.00,0.00,0.00
2026-06-26 18:18:06.616,994.08,994.09,0.41,0.85,0.00,1.30,0.28,9.23,0.00,0.00,0.00,0.00
2026-06-26 18:18:06.703,994.09,994.09,0.06,0.32,0.00,1.33,0.27,9.20,0.00,0.00,0.00,0.00
2026-06-26 18:18:06.704,994.09,994.09,0.06,0.32,0.00,1.32,0.27,9.23,0.00,0.00,-0.00,0.00
2026-06-26 18:18:06.705,994.09,994.09,0.06,0.32,0.00,1.32,0.27,9.23,0.00,0.00,-0.00,0.00
2026-06-26 18:18:06.707,994.09,994.09,0.06,0.32,0.00,1.32,0.27,9.23,0.00,0.00,-0.00,0.00
2026-06-26 18:18:06.708,994.09,994.09,0.06,0.32,0.00,1.32,0.27,9.23,0.00,0.00,-0.00,0.00
2026-06-26 18:18:06.709,994.09,994.09,0.06,0.32,0.00,1.32,0.27,9.23,0.00,0.00,-0.00,0.00
2026-06-26 18:18:06.710,994.09,994.09,0.06,0.32,0.00,1.32,0.27,9.23,0.00,0.00,-0.00,0.00
2026-06-26 18:18:06.713,994.09,994.09,0.06,0.32,0.00,1.32,0.27,9.23,0.00,0.00,0.00,0.00
2026-06-26 18:18:06.715,994.09,994.09,0.06,0.32,0.00,1.32,0.25,9.24,0.00,0.00,0.00,0.00
2026-06-26 18:18:06.717,994.09,994.09,0.06,0.32,0.00,1.32,0.25,9.24,0.00,0.00,0.00,0.00
2026-06-26 18:18:06.723,994.09,994.09,0.06,0.32,0.00,1.32,0.25,9.24,0.00,0.00,0.00,0.00
2026-06-26 18:18:06.725,994.09,994.09,0.06,0.32,0.00,1.32,0.27,9.24,0.00,0.00,-0.00,0.00
2026-06-26 18:18:06.726,994.09,994.09,0.06,0.32,0.00,1.32,0.27,9.24,0.00,0.00,-0.00,0.00
2026-06-26 18:18:06.730,994.09,994.09,0.06,0.32,0.00,1.32,0.27,9.24,0.00,0.00,-0.00,0.00
2026-06-26 18:18:06.733,994.09,994.09,0.06,0.32,0.00,1.32,0.27,9.24,0.00,0.00,-0.00,0.00
2026-06-26 18:18:06.734,994.09,994.09,0.06,0.32,0.00,1.31,0.26,9.23,0.00,0.00,-0.00,0.00
2026-06-26 18:18:06.736,994.09,994.09,0.06,0.32,0.00,1.31,0.26,9.23,0.00,0.00,-0.00,0.00
2026-06-26 18:18:06.737,994.09,994.09,0.06,0.32,0.00,1.31,0.26,9.23,0.00,0.00,-0.00,0.00
2026-06-26 18:18:06.740,994.09,994.09,0.06,0.32,0.00,1.31,0.26,9.23,0.00,0.00,-0.00,0.00
2026-06-26 18:18:06.745,994.09,994.09,0.06,0.32,0.00,1.31,0.26,9.23,0.00,-0.00,-0.00,0.00
2026-06-26 18:18:06.747,994.09,994.09,0.06,0.32,0.00,1.33,0.27,9.24,0.00,-0.00,-0.00,0.00
2026-06-26 18:18:06.753,994.09,994.09,0.06,0.32,0.00,1.33,0.27,9.24,0.00,-0.00,-0.00,0.00
2026-06-26 18:18:06.754,994.09,994.09,0.06,0.32,0.00,1.33,0.27,9.22,0.00,0.00,0.00,0.00
2026-06-26 18:18:06.755,994.09,994.09,0.06,0.32,0.00,1.33,0.27,9.22,0.00,0.00,0.00,0.00
2026-06-26 18:18:06.757,994.09,994.09,0.06,0.32,0.00,1.33,0.27,9.22,0.00,0.00,0.00,0.00
2026-06-26 18:18:06.843,994.08,994.08,0.03,0.23,0.00,1.32,0.26,9.20,0.00,0.00,-0.00,0.00
2026-06-26 18:18:06.844,994.08,994.08,0.03,0.23,0.00,1.32,0.26,9.23,0.00,0.00,0.00,0.00
2026-06-26 18:18:06.846,994.08,994.08,0.03,0.23,0.00,1.32,0.26,9.23,0.00,0.00,0.00,0.00
2026-06-26 18:18:06.848,994.08,994.08,0.03,0.23,0.00,1.32,0.26,9.23,0.00,0.00,0.00,0.00
2026-06-26 18:18:06.853,994.08,994.08,0.03,0.23,0.00,1.32,0.26,9.23,0.00,0.00,0.00,0.00
2026-06-26 18:18:06.856,994.08,994.08,0.03,0.23,0.00,1.33,0.27,9.26,0.00,0.00,0.00,0.00
2026-06-26 18:18:06.857,994.08,994.08,0.03,0.23,0.00,1.33,0.27,9.26,0.00,0.00,0.00,0.00
2026-06-26 18:18:06.858,994.08,994.08,0.03,0.23,0.00,1.33,0.27,9.26,0.00,0.00,0.00,0.00
2026-06-26 18:18:06.860,994.08,994.08,0.03,0.23,0.00,1.33,0.27,9.26,0.00,0.00,0.00,0.00
2026-06-26 18:18:06.861,994.08,994.08,0.03,0.23,0.00,1.33,0.27,9.26,0.00,0.00,0.00,0.00
2026-06-26 18:18:06.864,994.08,994.08,0.03,0.23,0.00,1.33,0.27,9.26,0.00,0.00,-0.00,0.00
2026-06-26 18:18:06.865,994.08,994.08,0.03,0.23,0.00,1.31,0.25,9.22,0.00,0.00,-0.00,0.00
2026-06-26 18:18:06.866,994.08,994.08,0.03,0.23,0.00,1.31,0.25,9.22,0.00,0.00,-0.00,0.00
2026-06-26 18:18:06.868,994.08,994.08,0.03,0.23,0.00,1.31,0.25,9.22,0.00,0.00,-0.00,0.00
2026-06-26 18:18:06.873,994.08,994.08,0.03,0.23,0.00,1.31,0.25,9.22,0.00,0.00,-0.00,0.00
2026-06-26 18:18:06.874,994.08,994.08,0.03,0.23,0.00,1.29,0.28,9.25,0.00,-0.00,0.00,0.00
2026-06-26 18:18:06.875,994.08,994.08,0.03,0.23,0.00,1.29,0.28,9.25,0.00,-0.00,0.00,0.00
2026-06-26 18:18:06.878,994.08,994.08,0.03,0.23,0.00,1.29,0.28,9.25,0.00,-0.00,0.00,0.00
2026-06-26 18:18:06.883,994.08,994.08,0.03,0.23,0.00,1.29,0.28,9.25,0.00,-0.00,0.00,0.00
2026-06-26 18:18:06.884,994.08,994.08,0.03,0.23,0.00,1.31,0.26,9.21,-0.00,-0.00,-0.00,0.00
2026-06-26 18:18:06.885,994.08,994.08,0.03,0.23,0.00,1.31,0.26,9.21,-0.00,-0.00,-0.00,0.00
2026-06-26 18:18:06.887,994.08,994.08,0.03,0.23,0.00,1.31,0.26,9.21,-0.00,-0.00,-0.00,0.00
2026-06-26 18:18:06.888,994.08,994.08,0.03,0.23,0.00,1.31,0.26,9.21,-0.00,-0.00,-0.00,0.00
2026-06-26 18:18:06.891,994.08,994.08,0.03,0.23,0.00,1.31,0.26,9.21,-0.00,-0.00,-0.00,0.00
2026-06-26 18:18:06.893,994.08,994.08,0.03,0.23,0.00,1.31,0.26,9.21,0.00,0.00,0.00,0.00
2026-06-26 18:18:06.895,994.08,994.08,0.03,0.23,0.00,1.33,0.26,9.23,0.00,0.00,0.00,0.00
2026-06-26 18:18:06.896,994.08,994.08,0.03,0.23,0.00,1.33,0.26,9.23,0.00,0.00,0.00,0.00
2026-06-26 18:18:06.897,994.08,994.08,0.03,0.23,0.00,1.33,0.26,9.23,0.00,0.00,0.00,0.00
2026-06-26 18:18:06.934,994.08,994.09,0.19,0.58,0.00,1.31,0.27,9.21,0.00,0.00,-0.00,0.00
2026-06-26 18:18:06.936,994.08,994.09,0.19,0.58,0.00,1.31,0.27,9.21,0.00,0.00,-0.00,0.00
2026-06-26 18:18:06.937,994.08,994.09,0.19,0.58,0.00,1.31,0.27,9.21,0.00,0.00,-0.00,0.00
2026-06-26 18:18:06.941,994.08,994.09,0.19,0.58,0.00,1.31,0.27,9.21,0.00,0.00,-0.00,0.00
2026-06-26 18:18:06.984,994.08,994.09,0.15,0.52,0.00,1.34,0.26,9.26,-0.00,0.00,-0.00,0.00
2026-06-26 18:18:06.985,994.08,994.09,0.15,0.52,0.00,1.32,0.29,9.22,-0.00,0.00,-0.00,0.00
2026-06-26 18:18:06.986,994.08,994.09,0.15,0.52,0.00,1.32,0.29,9.22,-0.00,0.00,-0.00,0.00
2026-06-26 18:18:06.987,994.08,994.09,0.15,0.52,0.00,1.32,0.29,9.22,-0.00,0.00,-0.00,0.00
2026-06-26 18:18:06.989,994.08,994.09,0.15,0.52,0.00,1.32,0.29,9.22,-0.00,0.00,-0.00,0.00
2026-06-26 18:18:06.993,994.08,994.09,0.15,0.52,0.00,1.32,0.29,9.22,-0.00,0.00,-0.00,0.00
2026-06-26 18:18:06.994,994.08,994.09,0.15,0.52,0.00,1.33,0.26,9.20,0.00,0.00,0.00,0.00
2026-06-26 18:18:06.996,994.08,994.09,0.15,0.52,0.00,1.33,0.26,9.20,0.00,0.00,0.00,0.00
2026-06-26 18:18:06.997,994.08,994.09,0.15,0.52,0.00,1.33,0.26,9.20,0.00,0.00,0.00,0.00
2026-06-26 18:18:06.998,994.08,994.09,0.15,0.52,0.00,1.33,0.26,9.20,0.00,0.00,0.00,0.00
2026-06-26 18:18:07.003,994.08,994.09,0.15,0.52,0.00,1.33,0.26,9.20,0.00,0.00,0.00,0.00
2026-06-26 18:18:07.005,994.08,994.09,0.15,0.52,0.00,1.32,0.26,9.23,0.00,0.00,-0.00,0.00
2026-06-26 18:18:07.007,994.08,994.09,0.15,0.52,0.00,1.32,0.26,9.23,0.00,0.00,-0.00,0.00
2026-06-26 18:18:07.009,994.08,994.09,0.15,0.52,0.00,1.32,0.26,9.23,0.00,0.00,-0.00,0.00
2026-06-26 18:18:07.010,994.08,994.09,0.15,0.52,0.00,1.32,0.26,9.23,0.00,0.00,-0.00,0.00
2026-06-26 18:18:07.011,994.08,994.09,0.15,0.52,0.00,1.32,0.26,9.23,0.00,0.00,-0.00,0.00
2026-06-26 18:18:07.014,994.08,994.09,0.15,0.52,0.00,1.32,0.26,9.23,-0.00,0.00,0.00,0.00
2026-06-26 18:18:07.016,994.08,994.09,0.15,0.52,0.00,1.32,0.26,9.23,-0.00,0.00,0.00,0.00
2026-06-26 18:18:07.017,994.08,994.09,0.15,0.52,0.00,1.32,0.26,9.23,-0.00,0.00,0.00,0.00
2026-06-26 18:18:07.022,994.08,994.09,0.15,0.52,0.00,1.32,0.26,9.23,-0.00,0.00,0.00,0.00
2026-06-26 18:18:07.024,994.08,994.09,0.15,0.52,0.00,1.32,0.27,9.24,-0.00,0.00,0.00,0.00
2026-06-26 18:18:07.025,994.08,994.09,0.15,0.52,0.00,1.32,0.27,9.24,-0.00,0.00,0.00,0.00
2026-06-26 18:18:07.026,994.08,994.09,0.15,0.52,0.00,1.32,0.27,9.24,-0.00,0.00,0.00,0.00
2026-06-26 18:18:07.028,994.08,994.09,0.15,0.52,0.00,1.32,0.27,9.24,-0.00,0.00,0.00,0.00
2026-06-26 18:18:07.031,994.08,994.09,0.15,0.52,0.00,1.32,0.27,9.24,-0.00,0.00,0.00,0.00
2026-06-26 18:18:07.034,994.08,994.09,0.15,0.52,0.00,1.32,0.27,9.24,0.00,0.00,0.00,0.00
2026-06-26 18:18:07.076,994.08,994.08,-0.04,-0.26,0.00,1.33,0.26,9.24,0.00,-0.00,-0.00,0.00
2026-06-26 18:18:07.078,994.08,994.08,-0.04,-0.26,0.00,1.33,0.26,9.24,0.00,-0.00,-0.00,0.00
2026-06-26 18:18:07.083,994.08,994.08,-0.04,-0.26,0.00,1.33,0.26,9.24,0.00,-0.00,-0.00,0.00
2026-06-26 18:18:07.124,994.08,994.08,0.23,0.64,0.00,1.33,0.25,9.24,0.00,-0.00,0.00,0.00
2026-06-26 18:18:07.126,994.08,994.08,0.23,0.64,0.00,1.31,0.26,9.23,0.00,-0.00,0.00,0.00
2026-06-26 18:18:07.127,994.08,994.08,0.23,0.64,0.00,1.31,0.26,9.23,0.00,-0.00,0.00,0.00
2026-06-26 18:18:07.131,994.08,994.08,0.23,0.64,0.00,1.31,0.26,9.23,0.00,-0.00,0.00,0.00
2026-06-26 18:18:07.135,994.08,994.08,0.23,0.64,0.00,1.33,0.25,9.21,-0.00,-0.00,0.00,0.00
2026-06-26 18:18:07.137,994.08,994.08,0.23,0.64,0.00,1.33,0.25,9.21,-0.00,-0.00,0.00,0.00
2026-06-26 18:18:07.139,994.08,994.08,0.23,0.64,0.00,1.33,0.25,9.21,-0.00,-0.00,0.00,0.00
2026-06-26 18:18:07.144,994.08,994.08,0.23,0.64,0.00,1.33,0.25,9.21,-0.00,-0.00,0.00,0.00
2026-06-26 18:18:07.145,994.08,994.08,0.23,0.64,0.00,1.32,0.26,9.24,-0.00,0.00,0.00,0.00
2026-06-26 18:18:07.146,994.08,994.08,0.23,0.64,0.00,1.32,0.26,9.24,-0.00,0.00,0.00,0.00
2026-06-26 18:18:07.147,994.08,994.08,0.23,0.64,0.00,1.32,0.26,9.24,-0.00,0.00,0.00,0.00
2026-06-26 18:18:07.149,994.08,994.08,0.23,0.64,0.00,1.32,0.26,9.24,-0.00,0.00,0.00,0.00
2026-06-26 18:18:07.154,994.08,994.08,0.23,0.64,0.00,1.32,0.26,9.24,-0.00,0.00,0.00,0.00
2026-06-26 18:18:07.155,994.08,994.08,0.23,0.64,0.00,1.33,0.26,9.24,0.00,-0.00,0.00,0.00
2026-06-26 18:18:07.156,994.08,994.08,0.23,0.64,0.00,1.33,0.26,9.24,0.00,-0.00,0.00,0.00
2026-06-26 18:18:07.158,994.08,994.08,0.23,0.64,0.00,1.33,0.26,9.24,0.00,-0.00,0.00,0.00
2026-06-26 18:18:07.159,994.08,994.08,0.23,0.64,0.00,1.33,0.26,9.24,0.00,-0.00,0.00,0.00
2026-06-26 18:18:07.160,994.08,994.08,0.23,0.64,0.00,1.33,0.26,9.24,0.00,-0.00,0.00,0.00
2026-06-26 18:18:07.161,994.08,994.08,0.23,0.64,0.00,1.33,0.26,9.24,0.00,-0.00,0.00,0.00
2026-06-26 18:18:07.163,994.08,994.08,0.23,0.64,0.00,1.33,0.26,9.24,0.00,-0.00,0.00,0.00
2026-06-26 18:18:07.166,994.08,994.08,0.23,0.64,0.00,1.32,0.29,9.22,-0.00,0.00,0.00,0.00
2026-06-26 18:18:07.168,994.08,994.08,0.23,0.64,0.00,1.32,0.29,9.22,-0.00,0.00,0.00,0.00
2026-06-26 18:18:07.173,994.08,994.08,0.23,0.64,0.00,1.32,0.29,9.22,-0.00,0.00,0.00,0.00
2026-06-26 18:18:07.174,994.08,994.08,0.23,0.64,0.00,1.31,0.26,9.24,0.00,-0.00,0.00,0.00
2026-06-26 18:18:07.216,994.08,994.08,0.04,0.26,0.00,1.34,0.27,9.23,0.00,0.00,0.00,0.00
2026-06-26 18:18:07.218,994.08,994.08,0.04,0.26,0.00,1.34,0.27,9.23,0.00,0.00,0.00,0.00
2026-06-26 18:18:07.224,994.08,994.08,0.04,0.26,0.00,1.34,0.27,9.23,0.00,0.00,0.00,0.00
2026-06-26 18:18:07.265,994.08,994.08,-0.10,-0.43,0.00,1.32,0.25,9.23,0.00,-0.00,-0.00,0.00
2026-06-26 18:18:07.267,994.08,994.08,-0.10,-0.43,0.00,1.32,0.25,9.23,0.00,-0.00,-0.00,0.00
2026-06-26 18:18:07.268,994.08,994.08,-0.10,-0.43,0.00,1.32,0.25,9.23,0.00,-0.00,-0.00,0.00
2026-06-26 18:18:07.273,994.08,994.08,-0.10,-0.43,0.00,1.32,0.25,9.23,0.00,-0.00,-0.00,0.00
2026-06-26 18:18:07.275,994.08,994.08,-0.10,-0.43,0.00,1.26,0.27,9.23,0.00,0.00,0.00,0.00
2026-06-26 18:18:07.276,994.08,994.08,-0.10,-0.43,0.00,1.26,0.27,9.23,0.00,0.00,0.00,0.00
2026-06-26 18:18:07.277,994.08,994.08,-0.10,-0.43,0.00,1.26,0.27,9.23,0.00,0.00,0.00,0.00
2026-06-26 18:18:07.282,994.08,994.08,-0.10,-0.43,0.00,1.26,0.27,9.23,0.00,0.00,0.00,0.00
2026-06-26 18:18:07.284,994.08,994.08,-0.10,-0.43,0.00,1.31,0.30,9.19,0.00,0.00,0.00,0.00
2026-06-26 18:18:07.286,994.08,994.08,-0.10,-0.43,0.00,1.31,0.30,9.19,0.00,0.00,0.00,0.00
2026-06-26 18:18:07.287,994.08,994.08,-0.10,-0.43,0.00,1.31,0.30,9.19,0.00,0.00,0.00,0.00
2026-06-26 18:18:07.288,994.08,994.08,-0.10,-0.43,0.00,1.31,0.30,9.19,0.00,0.00,0.00,0.00
2026-06-26 18:18:07.289,994.08,994.08,-0.10,-0.43,0.00,1.31,0.30,9.19,0.00,0.00,0.00,0.00
2026-06-26 18:18:07.294,994.08,994.08,-0.10,-0.43,0.00,1.31,0.30,9.19,0.00,0.00,0.00,0.00
2026-06-26 18:18:07.295,994.08,994.08,-0.10,-0.43,0.00,1.36,0.22,9.23,0.00,0.00,0.00,0.00
2026-06-26 18:18:07.296,994.08,994.08,-0.10,-0.43,0.00,1.36,0.22,9.23,0.00,0.00,0.00,0.00
2026-06-26 18:18:07.297,994.08,994.08,-0.10,-0.43,0.00,1.36,0.22,9.23,0.00,0.00,0.00,0.00
2026-06-26 18:18:07.299,994.08,994.08,-0.10,-0.43,0.00,1.36,0.22,9.23,0.00,0.00,0.00,0.00
2026-06-26 18:18:07.304,994.08,994.08,-0.10,-0.43,0.00,1.36,0.22,9.23,0.00,0.00,0.00,0.00
2026-06-26 18:18:07.305,994.08,994.08,-0.10,-0.43,0.00,1.40,0.20,9.21,0.00,-0.00,0.00,0.00
2026-06-26 18:18:07.306,994.08,994.08,-0.10,-0.43,0.00,1.40,0.20,9.21,0.00,-0.00,0.00,0.00
2026-06-26 18:18:07.308,994.08,994.08,-0.10,-0.43,0.00,1.40,0.20,9.21,0.00,-0.00,0.00,0.00
2026-06-26 18:18:07.309,994.08,994.08,-0.10,-0.43,0.00,1.40,0.20,9.21,0.00,-0.00,0.00,0.00
2026-06-26 18:18:07.310,994.08,994.08,-0.10,-0.43,0.00,1.40,0.20,9.21,0.00,-0.00,0.00,0.00
2026-06-26 18:18:07.311,994.08,994.08,-0.10,-0.43,0.00,1.40,0.20,9.21,0.00,-0.00,0.00,0.00
2026-06-26 18:18:07.312,994.08,994.08,-0.10,-0.43,0.00,1.40,0.20,9.21,0.00,-0.00,0.00,0.00
2026-06-26 18:18:07.315,994.08,994.08,-0.10,-0.43,0.00,1.34,0.29,9.20,0.00,0.00,-0.00,0.00
2026-06-26 18:18:07.316,994.08,994.08,-0.10,-0.43,0.00,1.34,0.29,9.20,0.00,0.00,-0.00,0.00
2026-06-26 18:18:07.355,994.08,994.08,-0.01,-0.13,0.00,1.34,0.24,9.18,-0.00,0.00,0.00,0.00
2026-06-26 18:18:07.356,994.08,994.08,-0.01,-0.13,0.00,1.34,0.24,9.18,-0.00,0.00,0.00,0.00
2026-06-26 18:18:07.357,994.08,994.08,-0.01,-0.13,0.00,1.34,0.24,9.18,-0.00,0.00,0.00,0.00
2026-06-26 18:18:07.359,994.08,994.08,-0.01,-0.13,0.00,1.34,0.24,9.18,-0.00,0.00,0.00,0.00
2026-06-26 18:18:07.360,994.08,994.08,-0.01,-0.13,0.00,1.34,0.24,9.18,-0.00,0.00,0.00,0.00
2026-06-26 18:18:07.361,994.08,994.08,-0.01,-0.13,0.00,1.34,0.24,9.18,-0.00,0.00,0.00,0.00
2026-06-26 18:18:07.362,994.08,994.08,-0.01,-0.13,0.00,1.34,0.24,9.18,-0.00,0.00,0.00,0.00
2026-06-26 18:18:07.365,994.08,994.08,-0.01,-0.13,0.00,1.34,0.24,9.18,0.00,-0.00,0.00,0.00
2026-06-26 18:18:07.406,994.08,994.08,0.33,0.76,0.00,1.35,0.24,9.23,0.00,0.00,0.00,0.00
2026-06-26 18:18:07.408,994.08,994.08,0.33,0.76,0.00,1.35,0.24,9.23,0.00,0.00,0.00,0.00
2026-06-26 18:18:07.409,994.08,994.08,0.33,0.76,0.00,1.35,0.24,9.23,0.00,0.00,0.00,0.00
2026-06-26 18:18:07.410,994.08,994.08,0.33,0.76,0.00,1.35,0.24,9.23,0.00,0.00,0.00,0.00
2026-06-26 18:18:07.413,994.08,994.08,0.33,0.76,0.00,1.35,0.24,9.23,0.00,0.00,0.00,0.00
2026-06-26 18:18:07.415,994.08,994.08,0.33,0.76,0.00,1.32,0.25,9.19,0.00,0.00,0.00,0.00
2026-06-26 18:18:07.416,994.08,994.08,0.33,0.76,0.00,1.32,0.25,9.19,0.00,0.00,0.00,0.00
2026-06-26 18:18:07.418,994.08,994.08,0.33,0.76,0.00,1.32,0.25,9.19,0.00,0.00,0.00,0.00
2026-06-26 18:18:07.425,994.08,994.08,0.33,0.76,0.00,1.32,0.25,9.19,0.00,0.00,0.00,0.00
2026-06-26 18:18:07.426,994.08,994.08,0.33,0.76,0.00,1.28,0.26,9.27,0.00,0.00,-0.00,0.00
2026-06-26 18:18:07.427,994.08,994.08,0.33,0.76,0.00,1.28,0.26,9.27,0.00,0.00,-0.00,0.00
2026-06-26 18:18:07.429,994.08,994.08,0.33,0.76,0.00,1.28,0.26,9.27,0.00,0.00,-0.00,0.00
2026-06-26 18:18:07.434,994.08,994.08,0.33,0.76,0.00,1.28,0.26,9.27,0.00,0.00,-0.00,0.00
2026-06-26 18:18:07.437,994.08,994.08,0.33,0.76,0.00,1.34,0.28,9.17,-0.00,0.00,-0.00,0.00
2026-06-26 18:18:07.438,994.08,994.08,0.33,0.76,0.00,1.34,0.28,9.17,-0.00,0.00,-0.00,0.00
2026-06-26 18:18:07.441,994.08,994.08,0.33,0.76,0.00,1.34,0.28,9.17,-0.00,0.00,-0.00,0.00
2026-06-26 18:18:07.446,994.08,994.08,0.33,0.76,0.00,1.34,0.28,9.17,-0.00,0.00,-0.00,0.00
2026-06-26 18:18:07.447,994.08,994.08,0.33,0.76,0.00,1.36,0.26,9.19,-0.00,0.00,-0.00,0.00
2026-06-26 18:18:07.449,994.08,994.08,0.33,0.76,0.00,1.36,0.26,9.19,-0.00,0.00,-0.00,0.00
2026-06-26 18:18:07.454,994.08,994.08,0.33,0.76,0.00,1.36,0.26,9.19,-0.00,0.00,-0.00,0.00
2026-06-26 18:18:07.496,994.08,994.08,0.25,0.66,0.00,1.36,0.27,9.23,0.00,0.00,0.00,0.00
2026-06-26 18:18:07.497,994.08,994.08,0.25,0.66,0.00,1.36,0.27,9.23,0.00,0.00,0.00,0.00
2026-06-26 18:18:07.498,994.08,994.08,0.25,0.66,0.00,1.36,0.27,9.23,0.00,0.00,0.00,0.00
2026-06-26 18:18:07.499,994.08,994.08,0.25,0.66,0.00,1.36,0.27,9.23,0.00,0.00,0.00,0.00
2026-06-26 18:18:07.504,994.08,994.08,0.25,0.66,0.00,1.36,0.27,9.23,0.00,0.00,0.00,0.00
2026-06-26 18:18:07.506,994.08,994.08,0.25,0.66,0.00,1.29,0.27,9.24,0.00,-0.00,0.00,0.00
2026-06-26 18:18:07.549,994.08,994.08,0.21,0.60,0.00,1.34,0.26,9.24,0.00,0.01,0.00,0.00
2026-06-26 18:18:07.555,994.08,994.08,0.21,0.60,0.00,1.34,0.26,9.24,0.00,0.01,0.00,0.00
2026-06-26 18:18:07.556,994.08,994.08,0.21,0.60,0.00,1.33,0.26,9.27,0.00,0.00,0.00,0.00
2026-06-26 18:18:07.557,994.08,994.08,0.21,0.60,0.00,1.33,0.26,9.27,0.00,0.00,0.00,0.00
2026-06-26 18:18:07.559,994.08,994.08,0.21,0.60,0.00,1.33,0.26,9.27,0.00,0.00,0.00,0.00
2026-06-26 18:18:07.560,994.08,994.08,0.21,0.60,0.00,1.33,0.26,9.27,0.00,0.00,0.00,0.00
2026-06-26 18:18:07.561,994.08,994.08,0.21,0.60,0.00,1.33,0.26,9.27,0.00,0.00,0.00,0.00
2026-06-26 18:18:07.562,994.08,994.08,0.21,0.60,0.00,1.33,0.26,9.27,0.00,0.00,0.00,0.00
2026-06-26 18:18:07.564,994.08,994.08,0.21,0.60,0.00,1.33,0.26,9.27,0.00,0.00,0.00,0.00
2026-06-26 18:18:07.566,994.08,994.08,0.21,0.60,0.00,1.30,0.26,9.25,0.00,-0.00,0.00,0.00
2026-06-26 18:18:07.567,994.08,994.08,0.21,0.60,0.00,1.30,0.26,9.25,0.00,-0.00,0.00,0.00
2026-06-26 18:18:07.568,994.08,994.08,0.21,0.60,0.00,1.30,0.26,9.25,0.00,-0.00,0.00,0.00
2026-06-26 18:18:07.569,994.08,994.08,0.21,0.60,0.00,1.30,0.26,9.25,0.00,-0.00,0.00,0.00
2026-06-26 18:18:07.574,994.08,994.08,0.21,0.60,0.00,1.30,0.26,9.25,0.00,-0.00,0.00,0.00
2026-06-26 18:18:07.576,994.08,994.08,0.21,0.60,0.00,1.31,0.25,9.27,-0.00,-0.00,0.00,0.00
2026-06-26 18:18:07.577,994.08,994.08,0.21,0.60,0.00,1.31,0.25,9.27,-0.00,-0.00,0.00,0.00
2026-06-26 18:18:07.578,994.08,994.08,0.21,0.60,0.00,1.31,0.25,9.27,-0.00,-0.00,0.00,0.00
2026-06-26 18:18:07.579,994.08,994.08,0.21,0.60,0.00,1.31,0.25,9.27,-0.00,-0.00,0.00,0.00
2026-06-26 18:18:07.586,994.08,994.08,0.21,0.60,0.00,1.31,0.25,9.27,-0.00,-0.00,0.00,0.00
2026-06-26 18:18:07.588,994.08,994.08,0.21,0.60,0.00,1.33,0.27,9.20,-0.00,0.00,-0.00,0.00
2026-06-26 18:18:07.589,994.08,994.08,0.21,0.60,0.00,1.33,0.27,9.20,-0.00,0.00,-0.00,0.00
2026-06-26 18:18:07.594,994.08,994.08,0.21,0.60,0.00,1.33,0.27,9.20,-0.00,0.00,-0.00,0.00
2026-06-26 18:18:07.595,994.08,994.08,0.21,0.60,0.00,1.30,0.27,9.23,-0.00,-0.00,0.00,0.00
2026-06-26 18:18:07.638,994.08,994.08,0.02,0.17,0.00,1.32,0.27,9.22,0.00,-0.00,0.00,0.00
2026-06-26 18:18:07.645,994.08,994.08,0.02,0.17,0.00,1.32,0.27,9.22,0.00,0.00,0.00,0.00
2026-06-26 18:18:07.655,994.08,994.08,0.02,0.17,0.00,1.35,0.27,9.22,0.00,0.00,0.00,0.00
2026-06-26 18:18:07.698,994.08,994.08,-0.19,-0.58,0.00,1.30,0.27,9.21,0.00,0.00,0.00,0.00
2026-06-26 18:18:07.704,994.08,994.08,-0.19,-0.58,0.00,1.30,0.27,9.21,0.00,0.00,0.00,0.00
2026-06-26 18:18:07.706,994.08,994.08,-0.19,-0.58,0.00,1.29,0.24,9.25,-0.00,-0.00,0.00,0.00
2026-06-26 18:18:07.708,994.08,994.08,-0.19,-0.58,0.00,1.29,0.24,9.25,-0.00,-0.00,0.00,0.00
2026-06-26 18:18:07.709,994.08,994.08,-0.19,-0.58,0.00,1.29,0.24,9.25,-0.00,-0.00,0.00,0.00
2026-06-26 18:18:07.711,994.08,994.08,-0.19,-0.58,0.00,1.29,0.24,9.25,-0.00,-0.00,0.00,0.00
2026-06-26 18:18:07.715,994.08,994.08,-0.19,-0.58,0.00,1.29,0.24,9.25,0.00,-0.00,0.00,0.00
2026-06-26 18:18:07.717,994.08,994.08,-0.19,-0.58,0.00,1.32,0.29,9.27,0.00,-0.00,0.00,0.00
2026-06-26 18:18:07.718,994.08,994.08,-0.19,-0.58,0.00,1.32,0.29,9.27,0.00,-0.00,0.00,0.00
2026-06-26 18:18:07.722,994.08,994.08,-0.19,-0.58,0.00,1.32,0.29,9.27,0.00,-0.00,0.00,0.00
2026-06-26 18:18:07.725,994.08,994.08,-0.19,-0.58,0.00,1.32,0.29,9.27,0.00,-0.00,0.00,0.00
2026-06-26 18:18:07.727,994.08,994.08,-0.19,-0.58,0.00,1.34,0.24,9.27,0.00,-0.00,0.00,0.00
2026-06-26 18:18:07.728,994.08,994.08,-0.19,-0.58,0.00,1.34,0.24,9.27,0.00,-0.00,0.00,0.00
2026-06-26 18:18:07.732,994.08,994.08,-0.19,-0.58,0.00,1.34,0.24,9.27,0.00,-0.00,0.00,0.00
2026-06-26 18:18:07.736,994.08,994.08,-0.19,-0.58,0.00,1.34,0.24,9.27,0.00,-0.00,0.00,0.00
2026-06-26 18:18:07.737,994.08,994.08,-0.19,-0.58,0.00,1.30,0.28,9.20,0.00,-0.00,0.00,0.00
2026-06-26 18:18:07.785,994.08,994.08,-0.38,-0.82,0.00,1.32,0.26,9.23,0.00,-0.00,0.00,0.00
2026-06-26 18:18:07.787,994.08,994.08,-0.38,-0.82,0.00,1.33,0.25,9.24,0.00,-0.00,-0.00,0.00
2026-06-26 18:18:07.790,994.08,994.08,-0.38,-0.82,0.00,1.33,0.25,9.24,0.00,-0.00,-0.00,0.00
2026-06-26 18:18:07.795,994.08,994.08,-0.38,-0.82,0.00,1.33,0.25,9.24,0.00,-0.00,-0.00,0.00
2026-06-26 18:18:07.797,994.08,994.08,-0.38,-0.82,0.00,1.33,0.29,9.22,0.00,-0.00,0.00,0.00
2026-06-26 18:18:07.843,994.08,994.08,-0.32,-0.75,0.00,1.45,0.25,9.22,0.00,0.01,0.00,0.00
2026-06-26 18:18:07.846,994.08,994.08,-0.32,-0.75,0.00,1.38,0.27,9.18,0.00,0.01,0.00,0.00
2026-06-26 18:18:07.848,994.08,994.08,-0.32,-0.75,0.00,1.38,0.27,9.18,0.00,0.01,0.00,0.00
2026-06-26 18:18:07.849,994.08,994.08,-0.32,-0.75,0.00,1.38,0.27,9.18,0.00,0.01,0.00,0.00
2026-06-26 18:18:07.856,994.08,994.08,-0.32,-0.75,0.00,1.38,0.27,9.18,0.00,0.01,0.00,0.00
2026-06-26 18:18:07.860,994.08,994.08,-0.32,-0.75,0.00,1.36,0.30,9.27,0.00,0.00,0.01,0.00
2026-06-26 18:18:07.862,994.08,994.08,-0.32,-0.75,0.00,1.36,0.30,9.27,0.00,0.00,0.01,0.00
2026-06-26 18:18:07.866,994.08,994.08,-0.32,-0.75,0.00,1.36,0.30,9.27,-0.00,0.00,0.01,0.00
2026-06-26 18:18:07.867,994.08,994.08,-0.32,-0.75,0.00,1.37,0.32,9.28,-0.00,0.00,0.01,0.00
2026-06-26 18:18:07.869,994.08,994.08,-0.32,-0.75,0.00,1.37,0.32,9.28,-0.00,0.00,0.01,0.00
2026-06-26 18:18:07.872,994.08,994.08,-0.32,-0.75,0.00,1.37,0.32,9.28,-0.00,0.00,0.01,0.00
2026-06-26 18:18:07.876,994.08,994.08,-0.32,-0.75,0.00,1.37,0.32,9.28,0.00,0.00,0.01,0.00
2026-06-26 18:18:07.877,994.08,994.08,-0.32,-0.75,0.00,1.27,0.31,9.15,0.00,0.00,0.01,0.00
2026-06-26 18:18:07.879,994.08,994.08,-0.32,-0.75,0.00,1.27,0.31,9.15,0.00,0.00,0.01,0.00
2026-06-26 18:18:07.917,994.08,994.08,-0.56,-0.99,0.00,1.24,0.17,9.43,0.00,0.02,-0.00,0.00
2026-06-26 18:18:07.919,994.08,994.08,-0.56,-0.99,0.00,1.24,0.17,9.43,0.00,0.02,-0.00,0.00
2026-06-26 18:18:07.920,994.08,994.08,-0.56,-0.99,0.00,1.24,0.17,9.43,0.00,0.02,-0.00,0.00
2026-06-26 18:18:07.922,994.08,994.08,-0.56,-0.99,0.00,1.24,0.17,9.43,0.00,0.02,-0.00,0.00
2026-06-26 18:18:07.923,994.08,994.08,-0.56,-0.99,0.00,1.24,0.17,9.43,0.00,0.02,-0.00,0.00
2026-06-26 18:18:07.925,994.08,994.08,-0.56,-0.99,0.00,1.24,0.17,9.43,0.00,0.02,-0.00,0.00
2026-06-26 18:18:07.927,994.08,994.08,-0.56,-0.99,0.00,0.79,-0.16,9.35,0.00,0.04,-0.02,0.00
2026-06-26 18:18:07.928,994.08,994.08,-0.56,-0.99,0.00,0.79,-0.16,9.35,0.00,0.04,-0.02,0.00
2026-06-26 18:18:07.930,994.08,994.08,-0.56,-0.99,0.00,0.79,-0.16,9.35,0.00,0.04,-0.02,0.00
2026-06-26 18:18:07.935,994.08,994.08,-0.56,-0.99,0.00,0.79,-0.16,9.35,0.00,0.04,-0.02,0.00
2026-06-26 18:18:07.937,994.08,994.08,-0.56,-0.99,0.00,1.51,-0.21,9.20,0.01,0.05,-0.01,0.00
2026-06-26 18:18:07.939,994.08,994.08,-0.56,-0.99,0.00,1.51,-0.21,9.20,0.01,0.05,-0.01,0.00
2026-06-26 18:18:07.985,994.09,994.08,-1.25,-1.48,0.00,0.88,0.55,9.12,0.00,-0.03,0.04,0.00
2026-06-26 18:18:07.987,994.09,994.08,-1.25,-1.48,0.00,0.58,0.19,9.34,-0.00,-0.01,0.03,0.00
2026-06-26 18:18:07.989,994.09,994.08,-1.25,-1.48,0.00,0.58,0.19,9.34,-0.00,-0.01,0.03,0.00
2026-06-26 18:18:07.991,994.09,994.08,-1.25,-1.48,0.00,0.58,0.19,9.34,-0.00,-0.01,0.03,0.00
2026-06-26 18:18:07.996,994.09,994.08,-1.25,-1.48,0.00,0.58,0.19,9.34,0.00,0.01,0.02,0.00
2026-06-26 18:18:07.997,994.09,994.08,-1.25,-1.48,0.00,1.18,0.23,9.25,0.00,0.01,0.02,0.00
2026-06-26 18:18:07.999,994.09,994.08,-1.25,-1.48,0.00,1.18,0.23,9.25,0.00,0.01,0.02,0.00
2026-06-26 18:18:08.005,994.09,994.08,-1.25,-1.48,0.00,1.18,0.23,9.25,0.00,0.01,0.02,0.00
2026-06-26 18:18:08.007,994.09,994.08,-1.25,-1.48,0.00,1.66,0.00,9.17,0.00,0.00,0.01,0.00
2026-06-26 18:18:08.009,994.09,994.08,-1.25,-1.48,0.00,1.66,0.00,9.17,0.00,0.00,0.01,0.00
2026-06-26 18:18:08.011,994.09,994.08,-1.25,-1.48,0.00,1.66,0.00,9.17,0.00,0.00,0.01,0.00
2026-06-26 18:18:08.016,994.09,994.08,-1.25,-1.48,0.00,1.66,0.00,9.17,0.00,-0.00,-0.00,0.00
2026-06-26 18:18:08.061,994.09,994.08,-1.12,-1.40,0.00,1.37,0.30,9.34,0.00,0.00,-0.02,0.00
2026-06-26 18:18:08.066,994.09,994.08,-1.12,-1.40,0.00,1.37,0.30,9.34,-0.00,0.00,-0.02,0.00
2026-06-26 18:18:08.068,994.09,994.08,-1.12,-1.40,0.00,1.46,0.34,9.21,-0.00,0.00,-0.02,0.00
2026-06-26 18:18:08.069,994.09,994.08,-1.12,-1.40,0.00,1.46,0.34,9.21,-0.00,0.00,-0.02,0.00
2026-06-26 18:18:08.073,994.09,994.08,-1.12,-1.40,0.00,1.46,0.34,9.21,-0.00,0.00,-0.02,0.00
2026-06-26 18:18:08.076,994.09,994.08,-1.12,-1.40,0.00,1.46,0.34,9.21,-0.00,-0.01,-0.02,0.00
2026-06-26 18:18:08.078,994.09,994.08,-1.12,-1.40,0.00,1.13,0.38,9.18,-0.00,-0.01,-0.02,0.00
2026-06-26 18:18:08.079,994.09,994.08,-1.12,-1.40,0.00,1.13,0.38,9.18,-0.00,-0.01,-0.02,0.00
2026-06-26 18:18:08.083,994.09,994.08,-1.12,-1.40,0.00,1.13,0.38,9.18,-0.00,-0.01,-0.02,0.00
2026-06-26 18:18:08.126,994.09,994.08,-1.05,-1.36,0.00,1.34,0.30,9.28,-0.00,-0.02,-0.01,0.00
2026-06-26 18:18:08.128,994.09,994.08,-1.05,-1.36,0.00,1.41,0.22,9.16,-0.00,-0.02,-0.01,0.00
2026-06-26 18:18:08.136,994.09,994.08,-1.05,-1.36,0.00,1.41,0.22,9.16,-0.00,-0.02,-0.01,0.00
2026-06-26 18:18:08.137,994.09,994.08,-1.05,-1.36,0.00,1.32,0.19,9.20,-0.00,-0.01,-0.01,0.00
2026-06-26 18:18:08.139,994.09,994.08,-1.05,-1.36,0.00,1.32,0.19,9.20,-0.00,-0.01,-0.01,0.00
2026-06-26 18:18:08.140,994.09,994.08,-1.05,-1.36,0.00,1.32,0.19,9.20,-0.00,-0.01,-0.01,0.00
2026-06-26 18:18:08.146,994.09,994.08,-1.05,-1.36,0.00,1.32,0.19,9.20,-0.00,-0.01,-0.01,0.00
2026-06-26 18:18:08.147,994.09,994.08,-1.05,-1.36,0.00,1.42,0.15,9.25,0.00,-0.01,-0.01,0.00
2026-06-26 18:18:08.149,994.09,994.08,-1.05,-1.36,0.00,1.42,0.15,9.25,0.00,-0.01,-0.01,0.00
2026-06-26 18:18:08.150,994.09,994.08,-1.05,-1.36,0.00,1.42,0.15,9.25,0.00,-0.01,-0.01,0.00
2026-06-26 18:18:08.156,994.09,994.08,-1.05,-1.36,0.00,1.42,0.15,9.25,0.00,-0.01,-0.01,0.00
2026-06-26 18:18:08.159,994.09,994.08,-1.05,-1.36,0.00,1.63,0.13,9.28,-0.00,-0.00,-0.01,0.00
2026-06-26 18:18:08.200,994.09,994.08,-0.77,-1.17,0.00,1.40,0.36,9.23,0.00,0.01,0.00,0.00
2026-06-26 18:18:08.205,994.09,994.08,-0.77,-1.17,0.00,1.40,0.36,9.23,0.00,0.01,0.00,0.00
2026-06-26 18:18:08.207,994.09,994.08,-0.77,-1.17,0.00,1.42,0.39,9.20,0.00,0.00,0.01,0.00
2026-06-26 18:18:08.209,994.09,994.08,-0.77,-1.17,0.00,1.42,0.39,9.20,0.00,0.00,0.01,0.00
2026-06-26 18:18:08.210,994.09,994.08,-0.77,-1.17,0.00,1.42,0.39,9.20,0.00,0.00,0.01,0.00
2026-06-26 18:18:08.212,994.09,994.08,-0.77,-1.17,0.00,1.42,0.39,9.20,0.00,0.00,0.01,0.00
2026-06-26 18:18:08.217,994.09,994.08,-0.77,-1.17,0.00,1.42,0.39,9.20,0.00,0.00,0.01,0.00
2026-06-26 18:18:08.219,994.09,994.08,-0.77,-1.17,0.00,1.54,0.38,9.18,0.00,0.01,0.01,0.00
2026-06-26 18:18:08.221,994.09,994.08,-0.77,-1.17,0.00,1.54,0.38,9.18,0.00,0.01,0.01,0.00
2026-06-26 18:18:08.226,994.09,994.08,-0.77,-1.17,0.00,1.54,0.38,9.18,0.00,0.00,0.01,0.00
2026-06-26 18:18:08.269,994.09,994.08,-0.61,-1.03,0.00,1.24,0.20,9.28,0.00,0.01,0.01,0.00
2026-06-26 18:18:08.274,994.09,994.08,-0.61,-1.03,0.00,1.24,0.20,9.28,0.00,0.01,0.01,0.00
2026-06-26 18:18:08.277,994.09,994.08,-0.61,-1.03,0.00,1.24,0.20,9.28,0.00,0.02,0.01,0.00
2026-06-26 18:18:08.278,994.09,994.08,-0.61,-1.03,0.00,1.26,0.28,9.23,0.00,0.02,0.01,0.00
2026-06-26 18:18:08.280,994.09,994.08,-0.61,-1.03,0.00,1.26,0.28,9.23,0.00,0.02,0.01,0.00
2026-06-26 18:18:08.282,994.09,994.08,-0.61,-1.03,0.00,1.26,0.28,9.23,0.00,0.02,0.01,0.00
2026-06-26 18:18:08.286,994.09,994.08,-0.61,-1.03,0.00,1.26,0.28,9.23,0.00,0.02,0.01,0.00
2026-06-26 18:18:08.288,994.09,994.08,-0.61,-1.03,0.00,1.27,0.25,9.23,0.00,0.02,0.01,0.00
2026-06-26 18:18:08.290,994.09,994.08,-0.61,-1.03,0.00,1.27,0.25,9.23,0.00,0.02,0.01,0.00
2026-06-26 18:18:08.291,994.09,994.08,-0.61,-1.03,0.00,1.27,0.25,9.23,0.00,0.02,0.01,0.00
2026-06-26 18:18:08.296,994.09,994.08,-0.61,-1.03,0.00,1.27,0.25,9.23,0.00,0.02,0.01,0.00
2026-06-26 18:18:08.298,994.09,994.08,-0.61,-1.03,0.00,1.24,0.26,9.18,0.00,0.01,0.01,0.00
2026-06-26 18:18:08.299,994.09,994.08,-0.61,-1.03,0.00,1.24,0.26,9.18,0.00,0.01,0.01,0.00
2026-06-26 18:18:08.337,994.09,994.08,-0.67,-1.09,0.00,1.10,0.31,9.20,0.00,0.01,0.00,0.00
2026-06-26 18:18:08.339,994.09,994.08,-0.67,-1.09,0.00,1.10,0.31,9.20,0.00,0.01,0.00,0.00
2026-06-26 18:18:08.341,994.09,994.08,-0.67,-1.09,0.00,1.10,0.31,9.20,0.00,0.01,0.00,0.00
2026-06-26 18:18:08.346,994.09,994.08,-0.67,-1.09,0.00,1.10,0.31,9.20,0.00,0.01,0.00,0.00
2026-06-26 18:18:08.348,994.09,994.08,-0.67,-1.09,0.00,1.23,0.24,9.23,0.00,0.00,0.00,0.00
2026-06-26 18:18:08.349,994.09,994.08,-0.67,-1.09,0.00,1.23,0.24,9.23,0.00,0.00,0.00,0.00
2026-06-26 18:18:08.350,994.09,994.08,-0.67,-1.09,0.00,1.23,0.24,9.23,0.00,0.00,0.00,0.00
2026-06-26 18:18:08.355,994.09,994.08,-0.67,-1.09,0.00,1.23,0.24,9.23,0.00,0.00,0.00,0.00
2026-06-26 18:18:08.357,994.09,994.08,-0.67,-1.09,0.00,1.21,0.22,9.27,0.00,0.00,0.00,0.00
2026-06-26 18:18:08.361,994.09,994.08,-0.67,-1.09,0.00,1.21,0.22,9.27,0.00,0.00,0.00,0.00
2026-06-26 18:18:08.367,994.09,994.08,-0.67,-1.09,0.00,1.21,0.22,9.27,0.00,0.00,0.00,0.00
2026-06-26 18:18:08.368,994.09,994.08,-0.67,-1.09,0.00,1.24,0.22,9.30,0.00,0.00,0.00,0.00
2026-06-26 18:18:08.407,994.09,994.08,-0.79,-1.18,0.00,1.28,0.28,9.18,0.00,-0.00,-0.00,0.00
2026-06-26 18:18:08.409,994.09,994.08,-0.79,-1.18,0.00,1.28,0.28,9.18,0.00,-0.00,-0.00,0.00
2026-06-26 18:18:08.411,994.09,994.08,-0.79,-1.18,0.00,1.28,0.28,9.18,0.00,-0.00,-0.00,0.00
2026-06-26 18:18:08.412,994.09,994.08,-0.79,-1.18,0.00,1.28,0.28,9.18,0.00,-0.00,-0.00,0.00
2026-06-26 18:18:08.414,994.09,994.08,-0.79,-1.18,0.00,1.28,0.28,9.18,0.00,-0.00,-0.00,0.00
2026-06-26 18:18:08.417,994.09,994.08,-0.79,-1.18,0.00,1.28,0.28,9.18,0.00,0.00,-0.01,0.00
2026-06-26 18:18:08.419,994.09,994.08,-0.79,-1.18,0.00,1.33,0.24,9.26,0.00,0.00,-0.01,0.00
2026-06-26 18:18:08.421,994.09,994.08,-0.79,-1.18,0.00,1.33,0.24,9.26,0.00,0.00,-0.01,0.00
2026-06-26 18:18:08.426,994.09,994.08,-0.79,-1.18,0.00,1.33,0.24,9.26,0.00,0.00,-0.01,0.00
2026-06-26 18:18:08.428,994.09,994.08,-0.79,-1.18,0.00,1.29,0.26,9.30,0.00,-0.01,-0.00,0.00
2026-06-26 18:18:08.430,994.09,994.08,-0.79,-1.18,0.00,1.29,0.26,9.30,0.00,-0.01,-0.00,0.00
2026-06-26 18:18:08.431,994.09,994.08,-0.79,-1.18,0.00,1.29,0.26,9.30,0.00,-0.01,-0.00,0.00
2026-06-26 18:18:08.436,994.09,994.08,-0.79,-1.18,0.00,1.29,0.26,9.30,0.00,-0.01,-0.00,0.00
2026-06-26 18:18:08.477,994.09,994.08,-0.90,-1.26,0.00,1.37,0.25,9.27,0.00,-0.01,0.00,0.00
2026-06-26 18:18:08.479,994.09,994.08,-0.90,-1.26,0.00,1.36,0.26,9.26,0.00,-0.01,0.00,0.00
2026-06-26 18:18:08.481,994.09,994.08,-0.90,-1.26,0.00,1.36,0.26,9.26,0.00,-0.01,0.00,0.00
2026-06-26 18:18:08.487,994.09,994.08,-0.90,-1.26,0.00,1.36,0.26,9.26,0.00,-0.00,-0.00,0.00
2026-06-26 18:18:08.489,994.09,994.08,-0.90,-1.26,0.00,1.29,0.27,9.18,0.00,-0.00,-0.00,0.00
2026-06-26 18:18:08.490,994.09,994.08,-0.90,-1.26,0.00,1.29,0.27,9.18,0.00,-0.00,-0.00,0.00
2026-06-26 18:18:08.492,994.09,994.08,-0.90,-1.26,0.00,1.29,0.27,9.18,0.00,-0.00,-0.00,0.00
2026-06-26 18:18:08.496,994.09,994.08,-0.90,-1.26,0.00,1.29,0.27,9.18,0.00,-0.00,-0.00,0.00
2026-06-26 18:18:08.498,994.09,994.08,-0.90,-1.26,0.00,1.31,0.24,9.23,0.00,-0.00,-0.00,0.00
2026-06-26 18:18:08.500,994.09,994.08,-0.90,-1.26,0.00,1.31,0.24,9.23,0.00,-0.00,-0.00,0.00
2026-06-26 18:18:08.504,994.09,994.08,-0.90,-1.26,0.00,1.31,0.24,9.23,0.00,-0.00,-0.00,0.00
2026-06-26 18:18:08.507,994.09,994.08,-0.90,-1.26,0.00,1.31,0.24,9.23,0.00,-0.00,0.00,0.00
2026-06-26 18:18:08.550,994.08,994.08,-0.67,-1.08,0.00,1.29,0.28,9.20,0.00,-0.00,0.00,0.00
2026-06-26 18:18:08.555,994.08,994.08,-0.67,-1.08,0.00,1.29,0.28,9.20,0.00,-0.00,0.00,0.00
2026-06-26 18:18:08.558,994.08,994.08,-0.67,-1.08,0.00,1.34,0.28,9.26,-0.00,-0.00,0.00,0.00
2026-06-26 18:18:08.559,994.08,994.08,-0.67,-1.08,0.00,1.34,0.28,9.26,-0.00,-0.00,0.00,0.00
2026-06-26 18:18:08.561,994.08,994.08,-0.67,-1.08,0.00,1.34,0.28,9.26,-0.00,-0.00,0.00,0.00
2026-06-26 18:18:08.564,994.08,994.08,-0.67,-1.08,0.00,1.34,0.28,9.26,-0.00,-0.00,0.00,0.00
2026-06-26 18:18:08.568,994.08,994.08,-0.67,-1.08,0.00,1.34,0.28,9.26,0.00,-0.01,0.00,0.00
2026-06-26 18:18:08.570,994.08,994.08,-0.67,-1.08,0.00,1.35,0.27,9.26,0.00,-0.01,0.00,0.00
2026-06-26 18:18:08.571,994.08,994.08,-0.67,-1.08,0.00,1.35,0.27,9.26,0.00,-0.01,0.00,0.00
2026-06-26 18:18:08.577,994.08,994.08,-0.67,-1.08,0.00,1.35,0.27,9.26,0.00,-0.01,0.00,0.00
2026-06-26 18:18:08.617,994.08,994.08,-0.51,-0.94,0.00,1.27,0.25,9.24,0.00,-0.00,-0.00,0.00
2026-06-26 18:18:08.619,994.08,994.08,-0.51,-0.94,0.00,1.27,0.27,9.26,0.00,-0.00,-0.00,0.00
2026-06-26 18:18:08.624,994.08,994.08,-0.51,-0.94,0.00,1.27,0.27,9.26,0.00,-0.00,-0.00,0.00
2026-06-26 18:18:08.627,994.08,994.08,-0.51,-0.94,0.00,1.27,0.27,9.26,0.00,-0.00,-0.00,0.00
2026-06-26 18:18:08.629,994.08,994.08,-0.51,-0.94,0.00,1.27,0.25,9.21,0.00,-0.00,-0.00,0.00
2026-06-26 18:18:08.631,994.08,994.08,-0.51,-0.94,0.00,1.27,0.25,9.21,0.00,-0.00,-0.00,0.00
2026-06-26 18:18:08.633,994.08,994.08,-0.51,-0.94,0.00,1.27,0.25,9.21,0.00,-0.00,-0.00,0.00
2026-06-26 18:18:08.638,994.08,994.08,-0.51,-0.94,0.00,1.27,0.25,9.21,0.00,-0.01,-0.01,0.00
2026-06-26 18:18:08.641,994.08,994.08,-0.51,-0.94,0.00,1.25,0.26,9.22,0.00,-0.01,-0.01,0.00
2026-06-26 18:18:08.647,994.08,994.08,-0.51,-0.94,0.00,1.25,0.26,9.22,0.00,-0.01,-0.01,0.00
2026-06-26 18:18:08.649,994.08,994.08,-0.51,-0.94,0.00,1.26,0.25,9.22,0.00,-0.01,-0.00,0.00
2026-06-26 18:18:08.697,994.09,994.08,-0.80,-1.18,0.00,1.32,0.27,9.20,-0.00,-0.00,-0.01,0.00
2026-06-26 18:18:08.699,994.09,994.08,-0.80,-1.18,0.00,1.39,0.25,9.27,-0.00,-0.00,-0.01,0.00
2026-06-26 18:18:08.700,994.09,994.08,-0.80,-1.18,0.00,1.39,0.25,9.27,-0.00,-0.00,-0.01,0.00
2026-06-26 18:18:08.702,994.09,994.08,-0.80,-1.18,0.00,1.39,0.25,9.27,-0.00,-0.00,-0.01,0.00
2026-06-26 18:18:08.707,994.09,994.08,-0.80,-1.18,0.00,1.39,0.25,9.27,-0.00,-0.00,-0.01,0.00
2026-06-26 18:18:08.709,994.09,994.08,-0.80,-1.18,0.00,1.44,0.27,9.26,0.00,0.00,-0.01,0.00
2026-06-26 18:18:08.711,994.09,994.08,-0.80,-1.18,0.00,1.44,0.27,9.26,0.00,0.00,-0.01,0.00
2026-06-26 18:18:08.712,994.09,994.08,-0.80,-1.18,0.00,1.44,0.27,9.26,0.00,0.00,-0.01,0.00
2026-06-26 18:18:08.717,994.09,994.08,-0.80,-1.18,0.00,1.44,0.27,9.26,0.00,0.00,-0.01,0.00
2026-06-26 18:18:08.760,994.09,994.08,-0.76,-1.16,0.00,1.40,0.29,9.23,0.00,-0.00,0.00,0.00
2026-06-26 18:18:08.762,994.09,994.08,-0.76,-1.16,0.00,1.40,0.29,9.23,0.00,-0.00,0.00,0.00
2026-06-26 18:18:08.763,994.09,994.08,-0.76,-1.16,0.00,1.40,0.29,9.23,0.00,-0.00,0.00,0.00
2026-06-26 18:18:08.765,994.09,994.08,-0.76,-1.16,0.00,1.40,0.29,9.23,0.00,-0.00,0.00,0.00
2026-06-26 18:18:08.768,994.09,994.08,-0.76,-1.16,0.00,1.40,0.29,9.23,0.00,-0.00,0.01,0.00
2026-06-26 18:18:08.769,994.09,994.08,-0.76,-1.16,0.00,1.32,0.28,9.26,0.00,-0.00,0.01,0.00
2026-06-26 18:18:08.771,994.09,994.08,-0.76,-1.16,0.00,1.32,0.28,9.26,0.00,-0.00,0.01,0.00
2026-06-26 18:18:08.775,994.09,994.08,-0.76,-1.16,0.00,1.32,0.28,9.26,0.00,-0.00,0.01,0.00
2026-06-26 18:18:08.778,994.09,994.08,-0.76,-1.16,0.00,1.32,0.28,9.26,0.00,0.00,0.01,0.00
2026-06-26 18:18:08.781,994.09,994.08,-0.76,-1.16,0.00,1.32,0.24,9.23,0.00,0.00,0.01,0.00
2026-06-26 18:18:08.787,994.09,994.08,-0.76,-1.16,0.00,1.32,0.24,9.23,0.00,0.00,0.01,0.00
2026-06-26 18:18:08.789,994.09,994.08,-0.76,-1.16,0.00,1.35,0.24,9.21,0.00,0.01,0.01,0.00
2026-06-26 18:18:08.790,994.09,994.08,-0.76,-1.16,0.00,1.35,0.24,9.21,0.00,0.01,0.01,0.00
2026-06-26 18:18:08.792,994.09,994.08,-0.76,-1.16,0.00,1.35,0.24,9.21,0.00,0.01,0.01,0.00
2026-06-26 18:18:08.838,994.09,994.08,-0.98,-1.31,0.00,1.28,0.28,9.20,0.00,0.01,0.01,0.00
2026-06-26 18:18:08.847,994.09,994.08,-0.98,-1.31,0.00,1.25,0.33,9.18,0.00,0.01,0.01,0.00
2026-06-26 18:18:08.849,994.09,994.08,-0.98,-1.31,0.00,1.25,0.31,9.26,0.00,0.00,0.01,0.00
2026-06-26 18:18:08.850,994.09,994.08,-0.98,-1.31,0.00,1.25,0.31,9.26,0.00,0.00,0.01,0.00
2026-06-26 18:18:08.854,994.09,994.08,-0.98,-1.31,0.00,1.25,0.31,9.26,0.00,0.00,0.01,0.00
2026-06-26 18:18:08.860,994.09,994.08,-0.98,-1.31,0.00,1.25,0.31,9.26,0.00,-0.00,0.00,0.00
2026-06-26 18:18:08.908,994.09,994.08,-0.85,-1.22,0.00,1.24,0.19,9.27,-0.00,-0.01,-0.01,0.00
2026-06-26 18:18:08.910,994.09,994.08,-0.85,-1.22,0.00,1.26,0.22,9.26,-0.00,-0.01,-0.01,0.00
2026-06-26 18:18:08.911,994.09,994.08,-0.85,-1.22,0.00,1.26,0.22,9.26,-0.00,-0.01,-0.01,0.00
2026-06-26 18:18:08.913,994.09,994.08,-0.85,-1.22,0.00,1.26,0.22,9.26,-0.00,-0.01,-0.01,0.00
2026-06-26 18:18:08.914,994.09,994.08,-0.85,-1.22,0.00,1.26,0.22,9.26,-0.00,-0.01,-0.01,0.00
2026-06-26 18:18:08.918,994.09,994.08,-0.85,-1.22,0.00,1.26,0.22,9.26,-0.00,-0.01,-0.01,0.00
2026-06-26 18:18:08.920,994.09,994.08,-0.85,-1.22,0.00,1.20,0.27,9.23,-0.00,-0.00,-0.01,0.00
2026-06-26 18:18:08.927,994.09,994.08,-0.85,-1.22,0.00,1.20,0.27,9.23,-0.00,-0.00,-0.01,0.00
2026-06-26 18:18:08.929,994.09,994.08,-0.85,-1.22,0.00,1.24,0.29,9.24,0.00,-0.01,-0.01,0.00
2026-06-26 18:18:08.930,994.09,994.08,-0.85,-1.22,0.00,1.24,0.29,9.24,0.00,-0.01,-0.01,0.00
2026-06-26 18:18:08.933,994.09,994.08,-0.85,-1.22,0.00,1.24,0.29,9.24,0.00,-0.01,-0.01,0.00
2026-06-26 18:18:08.941,994.09,994.08,-0.85,-1.22,0.00,1.24,0.29,9.24,-0.00,-0.01,-0.01,0.00
2026-06-26 18:18:08.980,994.09,994.08,-0.63,-1.05,0.00,1.40,0.33,9.23,0.00,-0.01,-0.01,0.00
2026-06-26 18:18:08.982,994.09,994.08,-0.63,-1.05,0.00,1.40,0.33,9.23,0.00,-0.01,-0.01,0.00
2026-06-26 18:18:08.987,994.09,994.08,-0.63,-1.05,0.00,1.40,0.33,9.23,0.00,-0.01,-0.01,0.00
2026-06-26 18:18:08.989,994.09,994.08,-0.63,-1.05,0.00,1.37,0.28,9.24,-0.00,-0.01,-0.01,0.00
2026-06-26 18:18:08.991,994.09,994.08,-0.63,-1.05,0.00,1.37,0.28,9.24,-0.00,-0.01,-0.01,0.00
2026-06-26 18:18:08.993,994.09,994.08,-0.63,-1.05,0.00,1.37,0.28,9.24,-0.00,-0.01,-0.01,0.00
2026-06-26 18:18:08.998,994.09,994.08,-0.63,-1.05,0.00,1.37,0.28,9.24,-0.00,-0.01,-0.01,0.00
2026-06-26 18:18:08.999,994.09,994.08,-0.63,-1.05,0.00,1.40,0.28,9.17,-0.00,-0.01,-0.01,0.00
2026-06-26 18:18:08.001,994.09,994.08,-0.63,-1.05,0.00,1.40,0.28,9.17,-0.00,-0.01,-0.01,0.00
2026-06-26 18:18:08.003,994.09,994.08,-0.63,-1.05,0.00,1.40,0.28,9.17,-0.00,-0.01,-0.01,0.00
2026-06-26 18:18:09.048,994.09,994.08,-0.34,-0.78,0.00,1.40,0.23,9.23,-0.00,-0.00,0.00,0.00
2026-06-26 18:18:09.050,994.09,994.08,-0.34,-0.78,0.00,1.36,0.23,9.22,-0.00,-0.00,0.00,0.00
2026-06-26 18:18:09.051,994.09,994.08,-0.34,-0.78,0.00,1.36,0.23,9.22,-0.00,-0.00,0.00,0.00
2026-06-26 18:18:09.055,994.09,994.08,-0.34,-0.78,0.00,1.36,0.23,9.22,-0.00,-0.00,0.00,0.00
2026-06-26 18:18:09.058,994.09,994.08,-0.34,-0.78,0.00,1.36,0.23,9.22,-0.00,-0.00,0.00,0.00
2026-06-26 18:18:09.060,994.09,994.08,-0.34,-0.78,0.00,1.35,0.30,9.23,-0.00,-0.00,0.00,0.00
2026-06-26 18:18:09.061,994.09,994.08,-0.34,-0.78,0.00,1.35,0.30,9.23,-0.00,-0.00,0.00,0.00
2026-06-26 18:18:09.063,994.09,994.08,-0.34,-0.78,0.00,1.35,0.30,9.23,-0.00,-0.00,0.00,0.00
2026-06-26 18:18:09.064,994.09,994.08,-0.34,-0.78,0.00,1.35,0.30,9.23,-0.00,-0.00,0.00,0.00
2026-06-26 18:18:09.066,994.09,994.08,-0.34,-0.78,0.00,1.35,0.30,9.23,-0.00,-0.00,0.00,0.00
2026-06-26 18:18:09.068,994.09,994.08,-0.34,-0.78,0.00,1.35,0.30,9.23,0.00,-0.00,0.00,0.00
2026-06-26 18:18:09.070,994.09,994.08,-0.34,-0.78,0.00,1.35,0.32,9.24,0.00,-0.00,0.00,0.00
2026-06-26 18:18:09.074,994.09,994.08,-0.34,-0.78,0.00,1.35,0.32,9.24,0.00,-0.00,0.00,0.00
2026-06-26 18:18:09.078,994.09,994.08,-0.34,-0.78,0.00,1.35,0.32,9.24,0.00,-0.00,0.00,0.00
2026-06-26 18:18:09.080,994.09,994.08,-0.34,-0.78,0.00,1.34,0.30,9.22,0.00,-0.00,0.00,0.00
2026-06-26 18:18:09.120,994.09,994.08,-0.60,-1.02,0.00,1.33,0.23,9.26,0.00,-0.00,0.00,0.00
2026-06-26 18:18:09.122,994.09,994.08,-0.60,-1.02,0.00,1.33,0.23,9.26,0.00,-0.00,0.00,0.00
2026-06-26 18:18:09.127,994.09,994.08,-0.60,-1.02,0.00,1.33,0.23,9.26,0.00,-0.00,0.00,0.00
2026-06-26 18:18:09.129,994.09,994.08,-0.60,-1.02,0.00,1.29,0.27,9.23,0.00,0.00,0.00,0.00
2026-06-26 18:18:09.130,994.09,994.08,-0.60,-1.02,0.00,1.29,0.27,9.23,0.00,0.00,0.00,0.00
2026-06-26 18:18:09.132,994.09,994.08,-0.60,-1.02,0.00,1.29,0.27,9.23,0.00,0.00,0.00,0.00
2026-06-26 18:18:09.137,994.09,994.08,-0.60,-1.02,0.00,1.29,0.27,9.23,0.00,0.00,0.00,0.00
2026-06-26 18:18:09.139,994.09,994.08,-0.60,-1.02,0.00,1.28,0.25,9.25,0.00,-0.00,0.00,0.00
2026-06-26 18:18:09.144,994.09,994.08,-0.60,-1.02,0.00,1.28,0.25,9.25,0.00,-0.00,0.00,0.00
2026-06-26 18:18:09.148,994.09,994.08,-0.60,-1.02,0.00,1.28,0.25,9.25,0.00,0.00,-0.00,0.00
2026-06-26 18:18:09.189,994.09,994.08,-0.50,-0.94,0.00,1.32,0.29,9.24,0.00,0.00,-0.00,0.00
2026-06-26 18:18:09.190,994.09,994.08,-0.50,-0.94,0.00,1.33,0.31,9.20,0.00,0.00,-0.00,0.00
2026-06-26 18:18:09.192,994.09,994.08,-0.50,-0.94,0.00,1.33,0.31,9.20,0.00,0.00,-0.00,0.00
2026-06-26 18:18:09.194,994.09,994.08,-0.50,-0.94,0.00,1.33,0.31,9.20,0.00,0.00,-0.00,0.00
2026-06-26 18:18:09.198,994.09,994.08,-0.50,-0.94,0.00,1.33,0.31,9.20,0.00,-0.00,0.00,0.00
2026-06-26 18:18:09.200,994.09,994.08,-0.50,-0.94,0.00,1.30,0.31,9.23,0.00,-0.00,0.00,0.00
2026-06-26 18:18:09.201,994.09,994.08,-0.50,-0.94,0.00,1.30,0.31,9.23,0.00,-0.00,0.00,0.00
2026-06-26 18:18:09.204,994.09,994.08,-0.50,-0.94,0.00,1.30,0.31,9.23,0.00,-0.00,0.00,0.00
2026-06-26 18:18:09.209,994.09,994.08,-0.50,-0.94,0.00,1.30,0.31,9.23,0.00,-0.00,0.00,0.00
2026-06-26 18:18:09.210,994.09,994.08,-0.50,-0.94,0.00,1.33,0.28,9.22,0.00,-0.00,0.00,0.00
2026-06-26 18:18:09.212,994.09,994.08,-0.50,-0.94,0.00,1.33,0.28,9.22,0.00,-0.00,0.00,0.00
2026-06-26 18:18:09.213,994.09,994.08,-0.50,-0.94,0.00,1.33,0.28,9.22,0.00,-0.00,0.00,0.00
2026-06-26 18:18:09.215,994.09,994.08,-0.50,-0.94,0.00,1.33,0.28,9.22,0.00,-0.00,0.00,0.00
2026-06-26 18:18:09.216,994.09,994.08,-0.50,-0.94,0.00,1.33,0.28,9.22,0.00,-0.00,0.00,0.00
2026-06-26 18:18:09.219,994.09,994.08,-0.50,-0.94,0.00,1.33,0.28,9.22,0.00,-0.00,-0.00,0.00
2026-06-26 18:18:09.262,994.09,994.08,-0.98,-1.31,0.00,1.31,0.26,9.22,-0.00,0.00,0.00,0.00
2026-06-26 18:18:09.264,994.09,994.08,-0.98,-1.31,0.00,1.31,0.26,9.22,-0.00,0.00,0.00,0.00
2026-06-26 18:18:09.266,994.09,994.08,-0.98,-1.31,0.00,1.31,0.26,9.22,-0.00,0.00,0.00,0.00
2026-06-26 18:18:09.271,994.09,994.08,-0.98,-1.31,0.00,1.31,0.26,9.22,-0.00,-0.00,0.00,0.00
2026-06-26 18:18:09.274,994.09,994.08,-0.98,-1.31,0.00,1.30,0.28,9.22,-0.00,-0.00,0.00,0.00
2026-06-26 18:18:09.278,994.09,994.08,-0.98,-1.31,0.00,1.30,0.28,9.22,-0.00,-0.00,0.00,0.00
2026-06-26 18:18:09.280,994.09,994.08,-0.98,-1.31,0.00,1.27,0.28,9.26,-0.00,-0.00,0.00,0.00
2026-06-26 18:18:09.282,994.09,994.08,-0.98,-1.31,0.00,1.27,0.28,9.26,-0.00,-0.00,0.00,0.00
2026-06-26 18:18:09.285,994.09,994.08,-0.98,-1.31,0.00,1.27,0.28,9.26,-0.00,-0.00,0.00,0.00
2026-06-26 18:18:09.289,994.09,994.08,-0.98,-1.31,0.00,1.27,0.28,9.26,0.00,0.00,0.00,0.00
2026-06-26 18:18:09.337,994.09,994.09,-0.74,-1.14,0.00,1.34,0.27,9.20,0.00,0.00,-0.00,0.00
2026-06-26 18:18:09.339,994.09,994.09,-0.74,-1.14,0.00,1.33,0.26,9.20,-0.00,0.00,-0.00,0.00
2026-06-26 18:18:09.341,994.09,994.09,-0.74,-1.14,0.00,1.33,0.26,9.20,-0.00,0.00,-0.00,0.00
2026-06-26 18:18:09.343,994.09,994.09,-0.74,-1.14,0.00,1.33,0.26,9.20,-0.00,0.00,-0.00,0.00
2026-06-26 18:18:09.348,994.09,994.09,-0.74,-1.14,0.00,1.33,0.26,9.20,-0.00,0.00,-0.00,0.00
2026-06-26 18:18:09.350,994.09,994.09,-0.74,-1.14,0.00,1.31,0.26,9.26,0.00,0.00,0.00,0.00
2026-06-26 18:18:09.352,994.09,994.09,-0.74,-1.14,0.00,1.31,0.26,9.26,0.00,0.00,0.00,0.00
2026-06-26 18:18:09.355,994.09,994.09,-0.74,-1.14,0.00,1.31,0.26,9.26,0.00,0.00,0.00,0.00
2026-06-26 18:18:09.359,994.09,994.09,-0.74,-1.14,0.00,1.31,0.26,9.26,-0.00,0.00,-0.00,0.00
2026-06-26 18:18:09.363,994.09,994.09,-0.74,-1.14,0.00,1.31,0.27,9.20,-0.00,0.00,-0.00,0.00
2026-06-26 18:18:09.409,994.10,994.09,-1.00,-1.32,0.00,1.33,0.25,9.21,0.00,-0.00,-0.00,0.00
2026-06-26 18:18:09.411,994.10,994.09,-1.00,-1.32,0.00,1.33,0.26,9.23,0.00,-0.00,-0.00,0.00
2026-06-26 18:18:09.413,994.10,994.09,-1.00,-1.32,0.00,1.33,0.26,9.23,0.00,-0.00,-0.00,0.00
2026-06-26 18:18:09.414,994.10,994.09,-1.00,-1.32,0.00,1.33,0.26,9.23,0.00,-0.00,-0.00,0.00
2026-06-26 18:18:09.416,994.10,994.09,-1.00,-1.32,0.00,1.33,0.26,9.23,0.00,-0.00,-0.00,0.00
2026-06-26 18:18:09.420,994.10,994.09,-1.00,-1.32,0.00,1.33,0.26,9.23,0.00,0.00,-0.00,0.00
2026-06-26 18:18:09.422,994.10,994.09,-1.00,-1.32,0.00,1.33,0.27,9.24,0.00,0.00,-0.00,0.00
2026-06-26 18:18:09.426,994.10,994.09,-1.00,-1.32,0.00,1.33,0.27,9.24,0.00,0.00,-0.00,0.00
2026-06-26 18:18:09.430,994.10,994.09,-1.00,-1.32,0.00,1.33,0.27,9.24,0.00,-0.00,-0.00,0.00
2026-06-26 18:18:09.477,994.10,994.08,-1.59,-1.67,0.00,1.30,0.27,9.22,-0.00,0.00,0.00,0.00
2026-06-26 18:18:09.479,994.10,994.08,-1.59,-1.67,0.00,1.28,0.28,9.24,-0.00,-0.00,0.00,0.00
2026-06-26 18:18:09.481,994.10,994.08,-1.59,-1.67,0.00,1.28,0.28,9.24,-0.00,-0.00,0.00,0.00
2026-06-26 18:18:09.483,994.10,994.08,-1.59,-1.67,0.00,1.28,0.28,9.24,-0.00,-0.00,0.00,0.00
2026-06-26 18:18:09.487,994.10,994.08,-1.59,-1.67,0.00,1.28,0.28,9.24,-0.00,-0.00,0.00,0.00
2026-06-26 18:18:09.489,994.10,994.08,-1.59,-1.67,0.00,1.28,0.28,9.24,0.00,0.00,-0.00,0.00
2026-06-26 18:18:09.491,994.10,994.08,-1.59,-1.67,0.00,1.32,0.28,9.23,0.00,0.00,-0.00,0.00
2026-06-26 18:18:09.493,994.10,994.08,-1.59,-1.67,0.00,1.32,0.28,9.23,0.00,0.00,-0.00,0.00
2026-06-26 18:18:09.494,994.10,994.08,-1.59,-1.67,0.00,1.32,0.28,9.23,0.00,0.00,-0.00,0.00
2026-06-26 18:18:09.499,994.10,994.08,-1.59,-1.67,0.00,1.32,0.28,9.23,0.00,-0.00,0.00,0.00
2026-06-26 18:18:09.500,994.10,994.08,-1.59,-1.67,0.00,1.34,0.27,9.24,0.00,-0.00,0.00,0.00
2026-06-26 18:18:09.502,994.10,994.08,-1.59,-1.67,0.00,1.34,0.27,9.24,0.00,-0.00,0.00,0.00
2026-06-26 18:18:09.503,994.10,994.08,-1.59,-1.67,0.00,1.34,0.27,9.24,0.00,-0.00,0.00,0.00
2026-06-26 18:18:09.509,994.10,994.08,-1.59,-1.67,0.00,1.34,0.27,9.24,0.00,-0.00,0.00,0.00
2026-06-26 18:18:09.556,994.10,994.08,-1.44,-1.59,0.00,1.30,0.28,9.18,0.00,-0.00,0.00,0.00
2026-06-26 18:18:09.561,994.10,994.08,-1.44,-1.59,0.00,1.30,0.28,9.18,0.00,-0.00,0.00,0.00
2026-06-26 18:18:09.563,994.10,994.08,-1.44,-1.59,0.00,1.27,0.31,9.30,0.00,-0.00,0.00,0.00
2026-06-26 18:18:09.565,994.10,994.08,-1.44,-1.59,0.00,1.27,0.31,9.30,0.00,-0.00,0.00,0.00
2026-06-26 18:18:09.569,994.10,994.08,-1.44,-1.59,0.00,1.27,0.31,9.30,0.00,-0.00,0.00,0.00
2026-06-26 18:18:09.571,994.10,994.08,-1.44,-1.59,0.00,1.31,0.29,9.23,0.00,0.00,0.00,0.00
2026-06-26 18:18:09.572,994.10,994.08,-1.44,-1.59,0.00,1.31,0.29,9.23,0.00,0.00,0.00,0.00
2026-06-26 18:18:09.611,994.10,994.08,-1.63,-1.69,0.00,1.37,0.26,9.16,0.00,0.00,-0.00,0.00
2026-06-26 18:18:09.620,994.10,994.08,-1.63,-1.69,0.00,1.37,0.26,9.16,0.00,-0.00,0.00,0.00
2026-06-26 18:18:09.625,994.10,994.08,-1.63,-1.69,0.00,1.30,0.27,9.24,0.00,-0.00,0.00,0.00
2026-06-26 18:18:09.630,994.10,994.08,-1.63,-1.69,0.00,1.30,0.27,9.24,0.00,-0.00,0.00,0.00
2026-06-26 18:18:09.639,994.10,994.08,-1.63,-1.69,0.00,1.41,0.27,9.21,0.00,-0.00,0.00,0.00
2026-06-26 18:18:09.642,994.10,994.08,-1.63,-1.69,0.00,1.41,0.27,9.16,0.00,0.00,0.00,0.00
2026-06-26 18:18:09.649,994.10,994.08,-1.63,-1.69,0.00,1.41,0.27,9.16,0.00,0.00,0.00,0.00
2026-06-26 18:18:09.650,994.10,994.08,-1.63,-1.69,0.00,1.30,0.28,9.26,-0.00,0.00,0.00,0.00
2026-06-26 18:18:09.693,994.09,994.08,-1.35,-1.54,0.00,1.34,0.24,9.23,0.00,0.01,0.00,0.00
2026-06-26 18:18:09.694,994.09,994.08,-1.35,-1.54,0.00,1.34,0.24,9.23,0.00,0.01,0.00,0.00
2026-06-26 18:18:09.699,994.09,994.08,-1.35,-1.54,0.00,1.34,0.24,9.23,0.00,0.01,0.00,0.00
2026-06-26 18:18:09.703,994.09,994.08,-1.35,-1.54,0.00,1.40,0.25,9.20,-0.00,0.00,0.00,0.00
2026-06-26 18:18:09.709,994.09,994.08,-1.35,-1.54,0.00,1.40,0.25,9.20,-0.00,0.00,0.00,0.00
2026-06-26 18:18:09.752,994.09,994.07,-2.23,-1.98,0.00,1.36,0.27,9.23,0.00,0.01,0.01,0.00
2026-06-26 18:18:09.754,994.09,994.07,-2.23,-1.98,0.00,1.36,0.27,9.23,0.00,0.01,0.01,0.00
2026-06-26 18:18:09.759,994.09,994.07,-2.23,-1.98,0.00,1.36,0.27,9.23,0.00,0.01,0.01,0.00
2026-06-26 18:18:09.761,994.09,994.07,-2.23,-1.98,0.00,1.30,0.31,9.31,0.00,0.01,0.01,0.00
2026-06-26 18:18:09.762,994.09,994.07,-2.23,-1.98,0.00,1.30,0.31,9.31,0.00,0.01,0.01,0.00
2026-06-26 18:18:09.764,994.09,994.07,-2.23,-1.98,0.00,1.30,0.31,9.31,0.00,0.01,0.01,0.00
2026-06-26 18:18:09.765,994.09,994.07,-2.23,-1.98,0.00,1.30,0.31,9.31,0.00,0.01,0.01,0.00
2026-06-26 18:18:09.767,994.09,994.07,-2.23,-1.98,0.00,1.30,0.31,9.31,0.00,0.01,0.01,0.00
2026-06-26 18:18:09.769,994.09,994.07,-2.23,-1.98,0.00,1.30,0.31,9.31,0.00,0.01,0.01,0.00
2026-06-26 18:18:09.771,994.09,994.07,-2.23,-1.98,0.00,1.26,0.29,9.31,0.00,0.01,0.01,0.00
2026-06-26 18:18:09.772,994.09,994.07,-2.23,-1.98,0.00,1.26,0.29,9.31,0.00,0.01,0.01,0.00
2026-06-26 18:18:09.774,994.09,994.07,-2.23,-1.98,0.00,1.26,0.29,9.31,0.00,0.01,0.01,0.00
2026-06-26 18:18:09.779,994.09,994.07,-2.23,-1.98,0.00,1.26,0.29,9.31,0.00,0.01,0.01,0.00
2026-06-26 18:18:09.783,994.09,994.07,-2.23,-1.98,0.00,1.12,0.34,9.19,0.00,0.00,0.01,0.00
2026-06-26 18:18:09.789,994.09,994.07,-2.23,-1.98,0.00,1.12,0.34,9.19,0.00,0.00,0.01,0.00
2026-06-26 18:18:09.790,994.09,994.07,-2.23,-1.98,0.00,1.07,0.26,9.26,0.00,0.00,0.01,0.00
2026-06-26 18:18:09.792,994.09,994.07,-2.23,-1.98,0.00,1.07,0.26,9.26,0.00,0.00,0.01,0.00
2026-06-26 18:18:09.840,994.09,994.07,-2.02,-1.89,0.00,1.33,0.22,9.20,0.00,0.01,-0.01,0.00
2026-06-26 18:18:09.842,994.09,994.07,-2.02,-1.89,0.00,1.36,0.20,9.26,0.00,0.01,-0.01,0.00
2026-06-26 18:18:09.843,994.09,994.07,-2.02,-1.89,0.00,1.36,0.20,9.26,0.00,0.01,-0.01,0.00
2026-06-26 18:18:09.849,994.09,994.07,-2.02,-1.89,0.00,1.36,0.20,9.26,0.00,0.01,-0.01,0.00
2026-06-26 18:18:09.851,994.09,994.07,-2.02,-1.89,0.00,1.35,0.26,9.26,0.00,0.02,-0.01,0.00
2026-06-26 18:18:09.890,994.09,994.07,-1.78,-1.77,0.00,1.36,0.40,9.21,-0.00,0.00,0.00,0.00
2026-06-26 18:18:09.893,994.09,994.07,-1.78,-1.77,0.00,1.33,0.40,9.28,-0.00,0.00,0.00,0.00
2026-06-26 18:18:09.899,994.09,994.07,-1.78,-1.77,0.00,1.33,0.40,9.28,-0.00,0.00,0.00,0.00
2026-06-26 18:18:09.901,994.09,994.07,-1.78,-1.77,0.00,1.30,0.38,9.20,0.00,-0.01,0.01,0.00
2026-06-26 18:18:09.903,994.09,994.07,-1.78,-1.77,0.00,1.30,0.38,9.20,0.00,-0.01,0.01,0.00
2026-06-26 18:18:09.906,994.09,994.07,-1.78,-1.77,0.00,1.30,0.38,9.20,0.00,-0.01,0.01,0.00
2026-06-26 18:18:09.910,994.09,994.07,-1.78,-1.77,0.00,1.30,0.38,9.20,0.00,-0.00,0.01,0.00
2026-06-26 18:18:09.913,994.09,994.07,-1.78,-1.77,0.00,1.25,0.31,9.22,0.00,-0.00,0.01,0.00
2026-06-26 18:18:09.915,994.09,994.07,-1.78,-1.77,0.00,1.25,0.31,9.22,0.00,-0.00,0.01,0.00
2026-06-26 18:18:09.916,994.09,994.07,-1.78,-1.77,0.00,1.25,0.31,9.22,0.00,-0.00,0.01,0.00
2026-06-26 18:18:09.920,994.09,994.07,-1.78,-1.77,0.00,1.25,0.31,9.22,0.00,-0.00,0.01,0.00
2026-06-26 18:18:09.921,994.09,994.07,-1.78,-1.77,0.00,1.29,0.22,9.20,0.00,-0.01,0.01,0.00
2026-06-26 18:18:09.923,994.09,994.07,-1.78,-1.77,0.00,1.29,0.22,9.20,0.00,-0.01,0.01,0.00
2026-06-26 18:18:09.924,994.09,994.07,-1.78,-1.77,0.00,1.29,0.22,9.20,0.00,-0.01,0.01,0.00
2026-06-26 18:18:09.929,994.09,994.07,-1.78,-1.77,0.00,1.29,0.22,9.20,0.00,-0.01,0.01,0.00
2026-06-26 18:18:09.931,994.09,994.07,-1.78,-1.77,0.00,1.23,0.20,9.25,0.00,-0.01,0.01,0.00
2026-06-26 18:18:09.932,994.09,994.07,-1.78,-1.77,0.00,1.23,0.20,9.25,0.00,-0.01,0.01,0.00
2026-06-26 18:18:09.934,994.09,994.07,-1.78,-1.77,0.00,1.23,0.20,9.25,0.00,-0.01,0.01,0.00
2026-06-26 18:18:09.980,994.09,994.07,-1.86,-1.81,0.00,1.16,0.21,9.24,-0.00,-0.01,-0.00,0.00
2026-06-26 18:18:09.982,994.09,994.07,-1.86,-1.81,0.00,1.22,0.24,9.27,-0.00,0.00,-0.01,0.00
2026-06-26 18:18:09.989,994.09,994.07,-1.86,-1.81,0.00,1.22,0.24,9.27,-0.00,0.00,-0.01,0.00
2026-06-26 18:18:10.032,994.09,994.07,-1.92,-1.84,0.00,1.43,0.33,9.23,0.00,-0.01,-0.01,0.00
2026-06-26 18:18:10.034,994.09,994.07,-1.92,-1.84,0.00,1.43,0.33,9.23,0.00,-0.01,-0.01,0.00
2026-06-26 18:18:10.039,994.09,994.07,-1.92,-1.84,0.00,1.43,0.33,9.23,0.00,-0.01,-0.01,0.00
2026-06-26 18:18:10.041,994.09,994.07,-1.92,-1.84,0.00,1.33,0.20,9.28,0.00,-0.01,-0.01,0.00
2026-06-26 18:18:10.043,994.09,994.07,-1.92,-1.84,0.00,1.33,0.20,9.28,0.00,-0.01,-0.01,0.00
2026-06-26 18:18:10.045,994.09,994.07,-1.92,-1.84,0.00,1.33,0.20,9.28,0.00,-0.01,-0.01,0.00
2026-06-26 18:18:10.050,994.09,994.07,-1.92,-1.84,0.00,1.33,0.20,9.28,0.00,-0.01,-0.01,0.00
2026-06-26 18:18:10.052,994.09,994.07,-1.92,-1.84,0.00,1.36,0.24,9.22,-0.00,-0.01,-0.01,0.00
2026-06-26 18:18:10.053,994.09,994.07,-1.92,-1.84,0.00,1.36,0.24,9.22,-0.00,-0.01,-0.01,0.00
2026-06-26 18:18:10.057,994.09,994.07,-1.92,-1.84,0.00,1.36,0.24,9.22,-0.00,-0.01,-0.01,0.00
2026-06-26 18:18:10.061,994.09,994.07,-1.92,-1.84,0.00,1.36,0.24,9.22,-0.00,-0.01,-0.01,0.00
2026-06-26 18:18:10.062,994.09,994.07,-1.92,-1.84,0.00,1.35,0.22,9.22,-0.00,-0.01,-0.01,0.00
2026-06-26 18:18:10.064,994.09,994.07,-1.92,-1.84,0.00,1.35,0.22,9.22,-0.00,-0.01,-0.01,0.00
2026-06-26 18:18:10.066,994.09,994.07,-1.92,-1.84,0.00,1.35,0.22,9.22,-0.00,-0.01,-0.01,0.00
2026-06-26 18:18:10.067,994.09,994.07,-1.92,-1.84,0.00,1.35,0.22,9.22,-0.00,-0.01,-0.01,0.00
2026-06-26 18:18:10.070,994.09,994.07,-1.92,-1.84,0.00,1.35,0.22,9.22,0.00,-0.01,-0.01,0.00
2026-06-26 18:18:10.072,994.09,994.07,-1.92,-1.84,0.00,1.38,0.20,9.22,0.00,-0.01,-0.01,0.00
2026-06-26 18:18:10.073,994.09,994.07,-1.92,-1.84,0.00,1.38,0.20,9.22,0.00,-0.01,-0.01,0.00
2026-06-26 18:18:10.078,994.09,994.07,-1.92,-1.84,0.00,1.38,0.20,9.22,0.00,-0.01,-0.01,0.00
2026-06-26 18:18:10.120,994.09,994.07,-1.93,-1.84,0.00,1.48,0.33,9.22,-0.00,0.00,-0.01,0.00
2026-06-26 18:18:10.121,994.09,994.07,-1.93,-1.84,0.00,1.49,0.34,9.22,0.00,0.00,-0.00,0.00
2026-06-26 18:18:10.123,994.09,994.07,-1.93,-1.84,0.00,1.49,0.34,9.22,0.00,0.00,-0.00,0.00
2026-06-26 18:18:10.127,994.09,994.07,-1.93,-1.84,0.00,1.49,0.34,9.22,0.00,0.00,-0.00,0.00
2026-06-26 18:18:10.131,994.09,994.07,-1.93,-1.84,0.00,1.49,0.34,9.22,0.00,0.00,-0.00,0.00
2026-06-26 18:18:10.171,994.09,994.07,-1.75,-1.75,0.00,1.40,0.27,9.23,0.00,0.01,0.01,0.00
2026-06-26 18:18:10.172,994.09,994.07,-1.75,-1.75,0.00,1.42,0.23,9.24,0.00,0.01,0.01,0.00
2026-06-26 18:18:10.174,994.09,994.07,-1.75,-1.75,0.00,1.42,0.23,9.24,0.00,0.01,0.01,0.00
2026-06-26 18:18:10.177,994.09,994.07,-1.75,-1.75,0.00,1.42,0.23,9.24,0.00,0.01,0.01,0.00
2026-06-26 18:18:10.181,994.09,994.07,-1.75,-1.75,0.00,1.42,0.23,9.24,0.00,0.02,0.01,0.00
2026-06-26 18:18:10.182,994.09,994.07,-1.75,-1.75,0.00,1.42,0.24,9.21,0.00,0.02,0.01,0.00
2026-06-26 18:18:10.184,994.09,994.07,-1.75,-1.75,0.00,1.42,0.24,9.21,0.00,0.02,0.01,0.00
2026-06-26 18:18:10.187,994.09,994.07,-1.75,-1.75,0.00,1.42,0.24,9.21,0.00,0.02,0.01,0.00
2026-06-26 18:18:10.191,994.09,994.07,-1.75,-1.75,0.00,1.42,0.24,9.21,0.00,0.03,0.01,0.00
2026-06-26 18:18:10.192,994.09,994.07,-1.75,-1.75,0.00,1.42,0.24,9.22,0.00,0.03,0.01,0.00
2026-06-26 18:18:10.194,994.09,994.07,-1.75,-1.75,0.00,1.42,0.24,9.22,0.00,0.03,0.01,0.00
2026-06-26 18:18:10.196,994.09,994.07,-1.75,-1.75,0.00,1.42,0.24,9.22,0.00,0.03,0.01,0.00
2026-06-26 18:18:10.201,994.09,994.07,-1.75,-1.75,0.00,1.42,0.24,9.22,0.00,0.02,0.01,0.00
2026-06-26 18:18:10.204,994.09,994.07,-1.75,-1.75,0.00,1.39,0.27,9.26,0.00,0.02,0.01,0.00
2026-06-26 18:18:10.210,994.09,994.07,-1.75,-1.75,0.00,1.39,0.27,9.26,0.00,0.02,0.01,0.00
2026-06-26 18:18:10.212,994.09,994.07,-1.75,-1.75,0.00,1.43,0.26,9.26,0.01,0.03,0.01,0.00
2026-06-26 18:18:10.214,994.09,994.07,-1.75,-1.75,0.00,1.43,0.26,9.26,0.01,0.03,0.01,0.00
2026-06-26 18:18:10.216,994.09,994.07,-1.75,-1.75,0.00,1.43,0.26,9.26,0.01,0.03,0.01,0.00
2026-06-26 18:18:10.260,994.09,994.07,-1.76,-1.76,0.00,1.43,0.38,9.10,0.01,0.04,0.02,0.00
2026-06-26 18:18:10.262,994.09,994.07,-1.76,-1.76,0.00,1.46,0.43,9.23,0.01,0.04,0.02,0.00
2026-06-26 18:18:10.265,994.09,994.07,-1.76,-1.76,0.00,1.46,0.43,9.23,0.01,0.04,0.02,0.00
2026-06-26 18:18:10.268,994.09,994.07,-1.76,-1.76,0.00,1.46,0.43,9.23,0.01,0.04,0.02,0.00
2026-06-26 18:18:10.311,994.09,994.07,-1.76,-1.76,0.00,1.17,0.61,9.23,0.01,0.01,0.04,0.00
2026-06-26 18:18:10.313,994.09,994.07,-1.76,-1.76,0.00,1.17,0.61,9.23,0.01,0.01,0.04,0.00
2026-06-26 18:18:10.315,994.09,994.07,-1.76,-1.76,0.00,1.17,0.61,9.23,0.01,0.01,0.04,0.00
2026-06-26 18:18:10.316,994.09,994.07,-1.76,-1.76,0.00,1.17,0.61,9.23,0.01,0.01,0.04,0.00
2026-06-26 18:18:10.318,994.09,994.07,-1.76,-1.76,0.00,1.17,0.61,9.23,0.01,0.01,0.04,0.00
2026-06-26 18:18:10.321,994.09,994.07,-1.76,-1.76,0.00,1.25,0.59,9.22,0.00,-0.00,0.04,0.00
2026-06-26 18:18:10.323,994.09,994.07,-1.76,-1.76,0.00,1.25,0.59,9.22,0.00,-0.00,0.04,0.00
2026-06-26 18:18:10.325,994.09,994.07,-1.76,-1.76,0.00,1.25,0.59,9.22,0.00,-0.00,0.04,0.00
2026-06-26 18:18:10.326,994.09,994.07,-1.76,-1.76,0.00,1.25,0.59,9.22,0.00,-0.00,0.04,0.00
2026-06-26 18:18:10.328,994.09,994.07,-1.76,-1.76,0.00,1.25,0.59,9.22,0.00,-0.00,0.04,0.00
2026-06-26 18:18:10.330,994.09,994.07,-1.76,-1.76,0.00,1.25,0.59,9.22,0.00,-0.00,0.04,0.00
2026-06-26 18:18:10.331,994.09,994.07,-1.76,-1.76,0.00,1.21,0.61,9.20,0.00,-0.01,0.05,0.00
2026-06-26 18:18:10.333,994.09,994.07,-1.76,-1.76,0.00,1.21,0.61,9.20,0.00,-0.01,0.05,0.00
2026-06-26 18:18:10.334,994.09,994.07,-1.76,-1.76,0.00,1.21,0.61,9.20,0.00,-0.01,0.05,0.00
2026-06-26 18:18:10.336,994.09,994.07,-1.76,-1.76,0.00,1.21,0.61,9.20,0.00,-0.01,0.05,0.00
2026-06-26 18:18:10.341,994.09,994.07,-1.76,-1.76,0.00,1.21,0.61,9.20,0.00,-0.01,0.04,0.00
2026-06-26 18:18:10.344,994.09,994.07,-1.76,-1.76,0.00,1.23,0.51,9.15,0.00,-0.01,0.04,0.00
2026-06-26 18:18:10.345,994.09,994.07,-1.76,-1.76,0.00,1.23,0.51,9.15,0.00,-0.01,0.04,0.00
2026-06-26 18:18:10.350,994.09,994.07,-1.76,-1.76,0.00,1.23,0.51,9.15,0.00,-0.01,0.04,0.00
2026-06-26 18:18:10.352,994.09,994.07,-1.76,-1.76,0.00,1.60,0.31,9.18,0.00,-0.01,0.04,0.00
2026-06-26 18:18:10.354,994.09,994.07,-1.76,-1.76,0.00,1.60,0.31,9.18,0.00,-0.01,0.04,0.00
2026-06-26 18:18:10.355,994.09,994.07,-1.76,-1.76,0.00,1.60,0.31,9.18,0.00,-0.01,0.04,0.00
2026-06-26 18:18:10.401,994.09,994.07,-1.81,-1.78,0.00,1.21,-0.22,9.26,0.00,0.01,0.02,0.00
2026-06-26 18:18:10.403,994.09,994.07,-1.81,-1.78,0.00,1.27,-0.24,9.30,0.00,0.01,0.02,0.00
2026-06-26 18:18:10.404,994.09,994.07,-1.81,-1.78,0.00,1.27,-0.24,9.30,0.00,0.01,0.02,0.00
2026-06-26 18:18:10.412,994.09,994.07,-1.81,-1.78,0.00,1.27,-0.24,9.30,0.00,0.01,0.02,0.00
2026-06-26 18:18:10.459,994.09,994.08,-1.63,-1.69,0.00,1.20,0.28,9.27,0.01,0.03,0.01,0.00
2026-06-26 18:18:10.463,994.09,994.08,-1.63,-1.69,0.00,1.46,0.45,9.24,0.01,0.02,0.00,0.00
2026-06-26 18:18:10.465,994.09,994.08,-1.63,-1.69,0.00,1.46,0.45,9.24,0.01,0.02,0.00,0.00
2026-06-26 18:18:10.471,994.09,994.08,-1.63,-1.69,0.00,1.46,0.45,9.24,0.00,0.02,0.00,0.00
2026-06-26 18:18:10.473,994.09,994.08,-1.63,-1.69,0.00,1.25,0.51,9.20,0.00,0.02,0.00,0.00
2026-06-26 18:18:10.474,994.09,994.08,-1.63,-1.69,0.00,1.25,0.51,9.20,0.00,0.02,0.00,0.00
2026-06-26 18:18:10.480,994.09,994.08,-1.63,-1.69,0.00,1.25,0.51,9.20,0.00,0.02,0.00,0.00
2026-06-26 18:18:10.482,994.09,994.08,-1.63,-1.69,0.00,1.07,0.55,9.19,0.00,0.01,0.00,0.00
2026-06-26 18:18:10.483,994.09,994.08,-1.63,-1.69,0.00,1.07,0.55,9.19,0.00,0.01,0.00,0.00
2026-06-26 18:18:10.485,994.09,994.08,-1.63,-1.69,0.00,1.07,0.55,9.19,0.00,0.01,0.00,0.00
2026-06-26 18:18:10.492,994.09,994.08,-1.63,-1.69,0.00,1.07,0.55,9.19,0.00,0.01,0.00,0.00
2026-06-26 18:18:10.494,994.09,994.08,-1.63,-1.69,0.00,1.13,0.52,9.18,-0.00,0.00,0.01,0.00
2026-06-26 18:18:10.501,994.09,994.08,-1.63,-1.69,0.00,1.13,0.52,9.18,-0.00,0.00,0.01,0.00
2026-06-26 18:18:10.544,994.09,994.08,-1.82,-1.79,0.00,1.08,-0.25,9.24,0.00,-0.02,-0.00,0.00
2026-06-26 18:18:10.551,994.09,994.08,-1.82,-1.79,0.00,1.08,-0.25,9.24,0.00,-0.02,-0.00,0.00
2026-06-26 18:18:10.552,994.09,994.08,-1.82,-1.79,0.00,0.91,-0.25,9.42,0.00,-0.01,-0.00,0.00
2026-06-26 18:18:10.554,994.09,994.08,-1.82,-1.79,0.00,0.91,-0.25,9.42,0.00,-0.01,-0.00,0.00
2026-06-26 18:18:10.601,994.09,994.08,-1.55,-1.65,0.00,1.27,0.31,9.27,-0.00,0.00,-0.02,0.00
2026-06-26 18:18:10.603,994.09,994.08,-1.55,-1.65,0.00,1.13,0.39,9.27,-0.00,-0.01,-0.02,0.00
2026-06-26 18:18:10.604,994.09,994.08,-1.55,-1.65,0.00,1.13,0.39,9.27,-0.00,-0.01,-0.02,0.00
2026-06-26 18:18:10.609,994.09,994.08,-1.55,-1.65,0.00,1.13,0.39,9.27,-0.00,-0.01,-0.02,0.00
2026-06-26 18:18:10.612,994.09,994.08,-1.55,-1.65,0.00,1.13,0.39,9.27,-0.00,-0.01,-0.02,0.00
2026-06-26 18:18:10.613,994.09,994.08,-1.55,-1.65,0.00,1.20,0.44,9.19,-0.00,-0.01,-0.02,0.00
2026-06-26 18:18:10.615,994.09,994.08,-1.55,-1.65,0.00,1.20,0.44,9.19,-0.00,-0.01,-0.02,0.00
2026-06-26 18:18:10.617,994.09,994.08,-1.55,-1.65,0.00,1.20,0.44,9.19,-0.00,-0.01,-0.02,0.00
2026-06-26 18:18:10.618,994.09,994.08,-1.55,-1.65,0.00,1.20,0.44,9.19,-0.00,-0.01,-0.02,0.00
2026-06-26 18:18:10.622,994.09,994.08,-1.55,-1.65,0.00,1.20,0.44,9.19,-0.00,-0.01,-0.02,0.00
2026-06-26 18:18:10.623,994.09,994.08,-1.55,-1.65,0.00,1.25,0.44,9.20,-0.00,-0.01,-0.02,0.00
2026-06-26 18:18:10.625,994.09,994.08,-1.55,-1.65,0.00,1.25,0.44,9.20,-0.00,-0.01,-0.02,0.00
2026-06-26 18:18:10.631,994.09,994.08,-1.55,-1.65,0.00,1.25,0.44,9.20,-0.00,-0.01,-0.02,0.00
2026-06-26 18:18:10.633,994.09,994.08,-1.55,-1.65,0.00,1.27,0.29,9.22,0.00,-0.01,-0.02,0.00
2026-06-26 18:18:10.635,994.09,994.08,-1.55,-1.65,0.00,1.27,0.29,9.22,0.00,-0.01,-0.02,0.00
2026-06-26 18:18:10.641,994.09,994.08,-1.55,-1.65,0.00,1.27,0.29,9.22,0.00,-0.01,-0.02,0.00
2026-06-26 18:18:10.643,994.09,994.08,-1.55,-1.65,0.00,1.30,0.12,9.25,-0.00,-0.00,-0.02,0.00
2026-06-26 18:18:10.682,994.10,994.08,-1.66,-1.71,0.00,1.35,0.04,9.29,-0.00,-0.01,-0.01,0.00
2026-06-26 18:18:10.684,994.10,994.08,-1.66,-1.71,0.00,1.35,0.04,9.29,-0.00,-0.01,-0.01,0.00
2026-06-26 18:18:10.689,994.10,994.08,-1.66,-1.71,0.00,1.35,0.04,9.29,-0.00,-0.01,-0.01,0.00
2026-06-26 18:18:10.692,994.10,994.08,-1.66,-1.71,0.00,1.35,0.04,9.29,-0.01,-0.01,-0.02,0.00
2026-06-26 18:18:10.702,994.10,994.08,-1.66,-1.71,0.00,1.24,0.16,9.28,-0.01,-0.00,-0.02,0.00
2026-06-26 18:18:10.742,994.10,994.08,-1.42,-1.58,0.00,1.31,-0.03,9.56,-0.01,0.00,-0.03,0.00
2026-06-26 18:18:10.744,994.10,994.08,-1.42,-1.58,0.00,1.06,-0.05,9.14,-0.01,0.00,-0.03,0.00
2026-06-26 18:18:10.745,994.10,994.08,-1.42,-1.58,0.00,1.06,-0.05,9.14,-0.01,0.00,-0.03,0.00
2026-06-26 18:18:10.748,994.10,994.08,-1.42,-1.58,0.00,1.06,-0.05,9.14,-0.01,0.00,-0.03,0.00
2026-06-26 18:18:10.752,994.10,994.08,-1.42,-1.58,0.00,1.06,-0.05,9.14,-0.01,0.00,-0.03,0.00
2026-06-26 18:18:10.753,994.10,994.08,-1.42,-1.58,0.00,1.03,0.02,9.18,-0.01,0.00,-0.03,0.00
2026-06-26 18:18:10.755,994.10,994.08,-1.42,-1.58,0.00,1.03,0.02,9.18,-0.01,0.00,-0.03,0.00
2026-06-26 18:18:10.756,994.10,994.08,-1.42,-1.58,0.00,1.03,0.02,9.18,-0.01,0.00,-0.03,0.00
2026-06-26 18:18:10.762,994.10,994.08,-1.42,-1.58,0.00,1.03,0.02,9.18,-0.01,0.01,-0.04,0.00
2026-06-26 18:18:10.764,994.10,994.08,-1.42,-1.58,0.00,1.21,0.29,8.99,-0.01,0.01,-0.04,0.00
2026-06-26 18:18:10.765,994.10,994.08,-1.42,-1.58,0.00,1.21,0.29,8.99,-0.01,0.01,-0.04,0.00
2026-06-26 18:18:10.767,994.10,994.08,-1.42,-1.58,0.00,1.21,0.29,8.99,-0.01,0.01,-0.04,0.00
2026-06-26 18:18:10.768,994.10,994.08,-1.42,-1.58,0.00,1.21,0.29,8.99,-0.01,0.01,-0.04,0.00
2026-06-26 18:18:10.770,994.10,994.08,-1.42,-1.58,0.00,1.21,0.29,8.99,-0.01,0.01,-0.04,0.00
2026-06-26 18:18:10.772,994.10,994.08,-1.42,-1.58,0.00,1.21,0.29,8.99,-0.01,0.02,-0.05,0.00
2026-06-26 18:18:10.773,994.10,994.08,-1.42,-1.58,0.00,1.12,0.43,9.41,-0.01,0.02,-0.05,0.00
2026-06-26 18:18:10.775,994.10,994.08,-1.42,-1.58,0.00,1.12,0.43,9.41,-0.01,0.02,-0.05,0.00
2026-06-26 18:18:10.777,994.10,994.08,-1.42,-1.58,0.00,1.12,0.43,9.41,-0.01,0.02,-0.05,0.00
2026-06-26 18:18:10.778,994.10,994.08,-1.42,-1.58,0.00,1.12,0.43,9.41,-0.01,0.02,-0.05,0.00
2026-06-26 18:18:10.780,994.10,994.08,-1.42,-1.58,0.00,1.12,0.43,9.41,-0.01,0.02,-0.05,0.00
2026-06-26 18:18:10.782,994.10,994.08,-1.42,-1.58,0.00,1.12,0.43,9.41,-0.01,0.02,-0.05,0.00
2026-06-26 18:18:10.822,994.09,994.08,-1.37,-1.55,0.00,1.43,0.43,9.33,-0.00,0.03,-0.07,0.00
2026-06-26 18:18:10.823,994.09,994.08,-1.37,-1.55,0.00,1.14,0.23,9.49,-0.00,0.02,-0.06,0.00
2026-06-26 18:18:10.825,994.09,994.08,-1.37,-1.55,0.00,1.14,0.23,9.49,-0.00,0.02,-0.06,0.00
2026-06-26 18:18:10.827,994.09,994.08,-1.37,-1.55,0.00,1.14,0.23,9.49,-0.00,0.02,-0.06,0.00
2026-06-26 18:18:10.832,994.09,994.08,-1.37,-1.55,0.00,1.14,0.23,9.49,-0.00,0.01,-0.04,0.00
2026-06-26 18:18:10.834,994.09,994.08,-1.37,-1.55,0.00,1.24,0.07,9.17,-0.00,0.01,-0.04,0.00
2026-06-26 18:18:10.838,994.09,994.08,-1.37,-1.55,0.00,1.24,0.07,9.17,-0.00,0.01,-0.04,0.00
2026-06-26 18:18:10.842,994.09,994.08,-1.37,-1.55,0.00,1.24,0.07,9.17,-0.00,0.00,-0.03,0.00
2026-06-26 18:18:10.884,994.09,994.08,-1.16,-1.43,0.00,1.37,0.56,9.05,-0.00,0.01,-0.02,0.00
2026-06-26 18:18:10.887,994.09,994.08,-1.16,-1.43,0.00,1.37,0.56,9.05,-0.00,0.01,-0.02,0.00
2026-06-26 18:18:10.892,994.09,994.08,-1.16,-1.43,0.00,1.37,0.56,9.05,-0.00,0.00,-0.02,0.00
2026-06-26 18:18:10.895,994.09,994.08,-1.16,-1.43,0.00,1.37,0.69,9.40,-0.00,0.00,-0.02,0.00
2026-06-26 18:18:10.899,994.09,994.08,-1.16,-1.43,0.00,1.37,0.69,9.40,-0.00,0.00,-0.02,0.00
2026-06-26 18:18:10.905,994.09,994.08,-1.16,-1.43,0.00,1.37,0.69,9.40,-0.00,0.00,-0.02,0.00
2026-06-26 18:18:10.912,994.09,994.08,-1.16,-1.43,0.00,1.39,0.82,9.34,-0.00,0.00,-0.02,0.00
2026-06-26 18:18:10.914,994.09,994.08,-1.16,-1.43,0.00,1.11,0.79,9.18,-0.00,-0.01,-0.02,0.00
2026-06-26 18:18:10.915,994.09,994.08,-1.16,-1.43,0.00,1.11,0.79,9.18,-0.00,-0.01,-0.02,0.00
2026-06-26 18:18:10.917,994.09,994.08,-1.16,-1.43,0.00,1.11,0.79,9.18,-0.00,-0.01,-0.02,0.00
2026-06-26 18:18:10.918,994.09,994.08,-1.16,-1.43,0.00,1.11,0.79,9.18,-0.00,-0.01,-0.02,0.00
2026-06-26 18:18:10.921,994.09,994.08,-1.16,-1.43,0.00,1.11,0.79,9.18,-0.00,-0.01,-0.02,0.00
2026-06-26 18:18:10.964,994.10,994.08,-1.38,-1.56,0.00,1.37,0.23,9.17,-0.00,-0.05,0.02,0.00
2026-06-26 18:18:10.966,994.10,994.08,-1.38,-1.56,0.00,1.37,0.23,9.17,-0.00,-0.05,0.02,0.00
2026-06-26 18:18:10.969,994.10,994.08,-1.38,-1.56,0.00,1.37,0.23,9.17,-0.00,-0.05,0.02,0.00
2026-06-26 18:18:10.971,994.10,994.08,-1.38,-1.56,0.00,1.37,0.23,9.17,-0.00,-0.05,0.02,0.00
2026-06-26 18:18:10.973,994.10,994.08,-1.38,-1.56,0.00,1.35,0.29,9.10,-0.01,-0.05,0.03,0.00
2026-06-26 18:18:10.976,994.10,994.08,-1.38,-1.56,0.00,1.35,0.29,9.10,-0.01,-0.05,0.03,0.00
2026-06-26 18:18:10.977,994.10,994.08,-1.38,-1.56,0.00,1.35,0.29,9.10,-0.01,-0.05,0.03,0.00
2026-06-26 18:18:10.979,994.10,994.08,-1.38,-1.56,0.00,1.35,0.29,9.10,-0.01,-0.05,0.03,0.00
2026-06-26 18:18:10.980,994.10,994.08,-1.38,-1.56,0.00,1.35,0.29,9.10,-0.01,-0.05,0.03,0.00
2026-06-26 18:18:10.982,994.10,994.08,-1.38,-1.56,0.00,1.35,0.29,9.10,-0.01,-0.05,0.03,0.00
2026-06-26 18:18:11.024,994.10,994.08,-1.20,-1.45,0.00,1.22,0.25,9.19,-0.00,-0.03,0.02,0.00
2026-06-26 18:18:11.026,994.10,994.08,-1.20,-1.45,0.00,1.22,0.25,9.19,-0.00,-0.03,0.02,0.00
2026-06-26 18:18:11.028,994.10,994.08,-1.20,-1.45,0.00,1.22,0.25,9.19,-0.00,-0.03,0.02,0.00
2026-06-26 18:18:11.029,994.10,994.08,-1.20,-1.45,0.00,1.22,0.25,9.19,-0.00,-0.03,0.02,0.00
2026-06-26 18:18:11.031,994.10,994.08,-1.20,-1.45,0.00,1.22,0.25,9.19,-0.00,-0.03,0.02,0.00
2026-06-26 18:18:11.033,994.10,994.08,-1.20,-1.45,0.00,1.22,0.25,9.19,-0.00,-0.02,0.01,0.00
2026-06-26 18:18:11.034,994.10,994.08,-1.20,-1.45,0.00,1.18,0.17,9.45,-0.00,-0.02,0.01,0.00
2026-06-26 18:18:11.036,994.10,994.08,-1.20,-1.45,0.00,1.18,0.17,9.45,-0.00,-0.02,0.01,0.00
2026-06-26 18:18:11.042,994.10,994.08,-1.20,-1.45,0.00,1.18,0.17,9.45,-0.00,-0.02,0.01,0.00
2026-06-26 18:18:11.044,994.10,994.08,-1.20,-1.45,0.00,1.06,-0.02,9.28,0.00,-0.02,0.01,0.00
2026-06-26 18:18:11.045,994.10,994.08,-1.20,-1.45,0.00,1.06,-0.02,9.28,0.00,-0.02,0.01,0.00
2026-06-26 18:18:11.052,994.10,994.08,-1.20,-1.45,0.00,1.06,-0.02,9.28,0.00,-0.02,0.01,0.00
2026-06-26 18:18:11.053,994.10,994.08,-1.20,-1.45,0.00,1.06,-0.10,9.16,-0.00,-0.01,0.01,0.00
2026-06-26 18:18:11.055,994.10,994.08,-1.20,-1.45,0.00,1.06,-0.10,9.16,-0.00,-0.01,0.01,0.00
2026-06-26 18:18:11.058,994.10,994.08,-1.20,-1.45,0.00,1.06,-0.10,9.16,-0.00,-0.01,0.01,0.00
2026-06-26 18:18:11.065,994.10,994.08,-1.20,-1.45,0.00,1.06,-0.10,9.16,-0.00,-0.01,0.00,0.00
2026-06-26 18:18:11.104,994.10,994.08,-1.45,-1.60,0.00,1.30,0.24,9.22,-0.00,0.00,-0.01,0.00
2026-06-26 18:18:11.106,994.10,994.08,-1.45,-1.60,0.00,1.30,0.24,9.22,-0.00,0.00,-0.01,0.00
2026-06-26 18:18:11.113,994.10,994.08,-1.45,-1.60,0.00,1.30,0.24,9.22,-0.00,0.00,-0.01,0.00
2026-06-26 18:18:11.115,994.10,994.08,-1.45,-1.60,0.00,1.55,0.29,9.21,-0.00,0.00,-0.01,0.00
2026-06-26 18:18:11.118,994.10,994.08,-1.45,-1.60,0.00,1.55,0.29,9.21,-0.00,0.00,-0.01,0.00
2026-06-26 18:18:11.120,994.10,994.08,-1.45,-1.60,0.00,1.55,0.29,9.21,-0.00,0.00,-0.01,0.00
2026-06-26 18:18:11.123,994.10,994.08,-1.45,-1.60,0.00,1.29,0.27,9.44,0.00,0.00,-0.01,0.00
2026-06-26 18:18:11.167,994.10,994.09,-1.10,-1.39,0.00,1.36,0.35,9.47,-0.00,0.01,-0.01,0.00
2026-06-26 18:18:11.169,994.10,994.09,-1.10,-1.39,0.00,1.36,0.35,9.47,-0.00,0.01,-0.01,0.00
2026-06-26 18:18:11.172,994.10,994.09,-1.10,-1.39,0.00,1.36,0.35,9.47,-0.00,0.01,-0.01,0.00
2026-06-26 18:18:11.174,994.10,994.09,-1.10,-1.39,0.00,1.58,0.21,9.16,0.00,0.01,-0.00,0.00
2026-06-26 18:18:11.175,994.10,994.09,-1.10,-1.39,0.00,1.58,0.21,9.16,0.00,0.01,-0.00,0.00
2026-06-26 18:18:11.177,994.10,994.09,-1.10,-1.39,0.00,1.58,0.21,9.16,0.00,0.01,-0.00,0.00
2026-06-26 18:18:11.182,994.10,994.09,-1.10,-1.39,0.00,1.58,0.21,9.16,0.00,0.01,-0.00,0.00
2026-06-26 18:18:11.184,994.10,994.09,-1.10,-1.39,0.00,1.49,0.33,8.92,0.00,0.01,0.00,0.00
2026-06-26 18:18:11.185,994.10,994.09,-1.10,-1.39,0.00,1.49,0.33,8.92,0.00,0.01,0.00,0.00
2026-06-26 18:18:11.191,994.10,994.09,-1.10,-1.39,0.00,1.49,0.33,8.92,0.00,0.01,0.00,0.00
2026-06-26 18:18:11.193,994.10,994.09,-1.10,-1.39,0.00,1.21,0.18,9.50,-0.00,-0.01,0.01,0.00
2026-06-26 18:18:11.195,994.10,994.09,-1.10,-1.39,0.00,1.21,0.18,9.50,-0.00,-0.01,0.01,0.00
2026-06-26 18:18:11.196,994.10,994.09,-1.10,-1.39,0.00,1.21,0.18,9.50,-0.00,-0.01,0.01,0.00
2026-06-26 18:18:11.198,994.10,994.09,-1.10,-1.39,0.00,1.21,0.18,9.50,-0.00,-0.01,0.01,0.00
2026-06-26 18:18:11.202,994.10,994.09,-1.10,-1.39,0.00,1.21,0.18,9.50,0.00,-0.00,0.01,0.00
2026-06-26 18:18:11.243,994.10,994.09,-0.83,-1.21,0.00,0.92,0.17,9.78,-0.00,0.00,0.00,0.00
2026-06-26 18:18:11.245,994.10,994.09,-0.83,-1.21,0.00,1.29,0.15,9.74,-0.00,0.00,0.00,0.00
2026-06-26 18:18:11.248,994.10,994.09,-0.83,-1.21,0.00,1.29,0.15,9.74,-0.00,0.00,0.00,0.00
2026-06-26 18:18:11.253,994.10,994.09,-0.83,-1.21,0.00,1.29,0.15,9.74,0.00,0.00,-0.00,0.00
2026-06-26 18:18:11.254,994.10,994.09,-0.83,-1.21,0.00,1.34,0.26,9.71,0.00,0.00,-0.00,0.00
2026-06-26 18:18:11.263,994.10,994.09,-0.83,-1.21,0.00,1.34,0.26,9.71,0.00,0.00,-0.00,0.00
2026-06-26 18:18:11.265,994.10,994.09,-0.83,-1.21,0.00,1.16,0.07,9.64,0.00,0.00,-0.01,0.00
2026-06-26 18:18:11.266,994.10,994.09,-0.83,-1.21,0.00,1.16,0.07,9.64,0.00,0.00,-0.01,0.00
2026-06-26 18:18:11.313,994.10,994.08,-1.29,-1.51,0.00,1.30,0.13,9.77,-0.00,-0.01,-0.01,0.00
2026-06-26 18:18:11.315,994.10,994.08,-1.29,-1.51,0.00,1.29,0.21,9.69,-0.00,-0.01,-0.01,0.00
2026-06-26 18:18:11.316,994.10,994.08,-1.29,-1.51,0.00,1.29,0.21,9.69,-0.00,-0.01,-0.01,0.00
2026-06-26 18:18:11.318,994.10,994.08,-1.29,-1.51,0.00,1.29,0.21,9.69,-0.00,-0.01,-0.01,0.00
2026-06-26 18:18:11.319,994.10,994.08,-1.29,-1.51,0.00,1.29,0.21,9.69,-0.00,-0.01,-0.01,0.00
2026-06-26 18:18:11.323,994.10,994.08,-1.29,-1.51,0.00,1.29,0.21,9.69,-0.01,-0.01,-0.01,0.00
2026-06-26 18:18:11.325,994.10,994.08,-1.29,-1.51,0.00,1.07,0.56,9.87,-0.01,-0.01,-0.01,0.00
2026-06-26 18:18:11.328,994.10,994.08,-1.29,-1.51,0.00,1.07,0.56,9.87,-0.01,-0.01,-0.01,0.00
2026-06-26 18:18:11.333,994.10,994.08,-1.29,-1.51,0.00,1.07,0.56,9.87,-0.00,-0.01,-0.02,0.00
2026-06-26 18:18:11.334,994.10,994.08,-1.29,-1.51,0.00,1.14,0.28,9.83,-0.00,-0.01,-0.02,0.00
2026-06-26 18:18:11.336,994.10,994.08,-1.29,-1.51,0.00,1.14,0.28,9.83,-0.00,-0.01,-0.02,0.00
2026-06-26 18:18:11.342,994.10,994.08,-1.29,-1.51,0.00,1.14,0.28,9.83,-0.00,-0.01,-0.02,0.00
2026-06-26 18:18:11.383,994.10,994.08,-1.26,-1.49,0.00,1.28,0.05,9.84,-0.00,-0.00,-0.04,0.00
