timestamp,pressure_bag,pressure_bme,diff_pressure,v_wind_est,speed,accel_x,accel_y,accel_z,gyro_x,gyro_y,gyro_z,power
2026-06-26 19:04:51.467,994.09,994.07,-1.41,-1.57,0.00,1.34,0.19,9.23,0.00,0.00,-0.00,0.00
2026-06-26 19:04:51.468,994.09,994.07,-1.41,-1.57,0.00,1.34,0.19,9.23,0.00,0.00,-0.00,0.00
2026-06-26 19:04:51.470,994.09,994.07,-1.41,-1.57,0.00,1.34,0.19,9.23,0.00,0.00,-0.00,0.00
2026-06-26 19:04:51.471,994.09,994.07,-1.41,-1.57,0.00,1.34,0.19,9.23,0.00,0.00,-0.00,0.00
2026-06-26 19:04:51.476,994.09,994.07,-1.41,-1.57,0.00,1.34,0.19,9.23,0.00,0.00,-0.00,0.00
2026-06-26 19:04:51.477,994.09,994.07,-1.41,-1.57,0.00,1.35,0.22,9.20,0.00,-0.00,0.00,0.00
2026-06-26 19:04:51.478,994.09,994.07,-1.41,-1.57,0.00,1.35,0.22,9.20,0.00,-0.00,0.00,0.00
2026-06-26 19:04:51.480,994.09,994.07,-1.41,-1.57,0.00,1.35,0.22,9.20,0.00,-0.00,0.00,0.00
2026-06-26 19:04:51.482,994.09,994.07,-1.41,-1.57,0.00,1.35,0.22,9.20,0.00,-0.00,0.00,0.00
2026-06-26 19:04:51.486,994.09,994.07,-1.41,-1.57,0.00,1.35,0.22,9.20,-0.00,-0.00,0.00,0.00
2026-06-26 19:04:51.489,994.09,994.07,-1.41,-1.57,0.00,1.35,0.21,9.21,-0.00,-0.00,0.00,0.00
2026-06-26 19:04:51.491,994.09,994.07,-1.41,-1.57,0.00,1.35,0.21,9.21,-0.00,-0.00,0.00,0.00
2026-06-26 19:04:51.496,994.09,994.07,-1.41,-1.57,0.00,1.35,0.21,9.21,-0.00,-0.00,0.00,0.00
2026-06-26 19:04:51.500,994.09,994.07,-1.41,-1.57,0.00,1.35,0.22,9.22,-0.00,0.00,0.00,0.00
2026-06-26 19:04:51.503,994.09,994.07,-1.41,-1.57,0.00,1.35,0.22,9.22,-0.00,0.00,0.00,0.00
2026-06-26 19:04:51.510,994.09,994.07,-1.41,-1.57,0.00,1.35,0.22,9.22,0.00,0.00,0.00,0.00
2026-06-26 19:04:51.516,994.09,994.07,-1.41,-1.57,0.00,1.35,0.23,9.26,-0.00,-0.00,0.00,0.00
2026-06-26 19:04:51.518,994.09,994.07,-1.41,-1.57,0.00,1.35,0.18,9.21,-0.00,-0.00,0.00,0.00
2026-06-26 19:04:51.520,994.09,994.07,-1.41,-1.57,0.00,1.35,0.18,9.21,-0.00,-0.00,0.00,0.00
2026-06-26 19:04:51.526,994.09,994.07,-1.41,-1.57,0.00,1.35,0.18,9.21,-0.00,-0.00,0.00,0.00
2026-06-26 19:04:51.608,994.09,994.07,-1.46,-1.60,0.00,1.35,0.20,9.24,-0.00,0.00,0.00,0.00
2026-06-26 19:04:51.610,994.09,994.07,-1.46,-1.60,0.00,1.35,0.20,9.24,-0.00,0.00,0.00,0.00
2026-06-26 19:04:51.613,994.09,994.07,-1.46,-1.60,0.00,1.35,0.20,9.24,-0.00,0.00,0.00,0.00
2026-06-26 19:04:51.616,994.09,994.07,-1.46,-1.60,0.00,1.35,0.20,9.24,0.00,-0.00,-0.00,0.00
2026-06-26 19:04:51.618,994.09,994.07,-1.46,-1.60,0.00,1.35,0.19,9.25,0.00,-0.00,-0.00,0.00
2026-06-26 19:04:51.619,994.09,994.07,-1.46,-1.60,0.00,1.35,0.19,9.25,0.00,-0.00,-0.00,0.00
2026-06-26 19:04:51.621,994.09,994.07,-1.46,-1.60,0.00,1.35,0.19,9.25,0.00,-0.00,-0.00,0.00
2026-06-26 19:04:51.626,994.09,994.07,-1.46,-1.60,0.00,1.35,0.19,9.25,0.00,-0.00,-0.00,0.00
2026-06-26 19:04:51.628,994.09,994.07,-1.46,-1.60,0.00,1.35,0.22,9.22,0.00,0.00,-0.00,0.00
2026-06-26 19:04:51.629,994.09,994.07,-1.46,-1.60,0.00,1.35,0.22,9.22,0.00,0.00,-0.00,0.00
2026-06-26 19:04:51.630,994.09,994.07,-1.46,-1.60,0.00,1.35,0.22,9.22,0.00,0.00,-0.00,0.00
2026-06-26 19:04:51.631,994.09,994.07,-1.46,-1.60,0.00,1.35,0.22,9.22,0.00,0.00,-0.00,0.00
2026-06-26 19:04:51.635,994.09,994.07,-1.46,-1.60,0.00,1.35,0.22,9.22,0.00,0.00,-0.00,0.00
2026-06-26 19:04:51.637,994.09,994.07,-1.46,-1.60,0.00,1.35,0.22,9.21,-0.00,-0.00,0.00,0.00
2026-06-26 19:04:51.639,994.09,994.07,-1.46,-1.60,0.00,1.35,0.22,9.21,-0.00,-0.00,0.00,0.00
2026-06-26 19:04:51.640,994.09,994.07,-1.46,-1.60,0.00,1.35,0.22,9.21,-0.00,-0.00,0.00,0.00
2026-06-26 19:04:51.641,994.09,994.07,-1.46,-1.60,0.00,1.35,0.22,9.21,-0.00,-0.00,0.00,0.00
2026-06-26 19:04:51.647,994.09,994.07,-1.46,-1.60,0.00,1.35,0.22,9.21,0.00,0.00,0.00,0.00
2026-06-26 19:04:51.648,994.09,994.07,-1.46,-1.60,0.00,1.35,0.21,9.23,0.00,0.00,0.00,0.00
2026-06-26 19:04:51.649,994.09,994.07,-1.46,-1.60,0.00,1.35,0.21,9.23,0.00,0.00,0.00,0.00
2026-06-26 19:04:51.650,994.09,994.07,-1.46,-1.60,0.00,1.35,0.21,9.23,0.00,0.00,0.00,0.00
2026-06-26 19:04:51.652,994.09,994.07,-1.46,-1.60,0.00,1.35,0.21,9.23,0.00,0.00,0.00,0.00
2026-06-26 19:04:51.653,994.09,994.07,-1.46,-1.60,0.00,1.35,0.21,9.23,0.00,0.00,0.00,0.00
2026-06-26 19:04:51.656,994.09,994.07,-1.46,-1.60,0.00,1.35,0.21,9.23,0.00,0.00,-0.00,0.00
2026-06-26 19:04:51.658,994.09,994.07,-1.46,-1.60,0.00,1.34,0.20,9.23,0.00,0.00,-0.00,0.00
2026-06-26 19:04:51.659,994.09,994.07,-1.46,-1.60,0.00,1.34,0.20,9.23,0.00,0.00,-0.00,0.00
2026-06-26 19:04:51.660,994.09,994.07,-1.46,-1.60,0.00,1.34,0.20,9.23,0.00,0.00,-0.00,0.00
2026-06-26 19:04:51.661,994.09,994.07,-1.46,-1.60,0.00,1.34,0.20,9.23,0.00,0.00,-0.00,0.00
2026-06-26 19:04:51.666,994.09,994.07,-1.46,-1.60,0.00,1.34,0.20,9.23,0.00,0.00,-0.00,0.00
2026-06-26 19:04:51.669,994.09,994.07,-1.46,-1.60,0.00,1.35,0.21,9.25,0.00,-0.00,0.00,0.00
2026-06-26 19:04:51.748,994.09,994.07,-1.52,-1.63,0.00,1.34,0.21,9.25,0.00,0.00,-0.00,0.00
2026-06-26 19:04:51.749,994.09,994.07,-1.52,-1.63,0.00,1.34,0.21,9.25,0.00,0.00,-0.00,0.00
2026-06-26 19:04:51.751,994.09,994.07,-1.52,-1.63,0.00,1.34,0.21,9.25,0.00,0.00,-0.00,0.00
2026-06-26 19:04:51.752,994.09,994.07,-1.52,-1.63,0.00,1.34,0.21,9.25,0.00,0.00,-0.00,0.00
2026-06-26 19:04:51.753,994.09,994.07,-1.52,-1.63,0.00,1.34,0.21,9.25,0.00,0.00,-0.00,0.00
2026-06-26 19:04:51.757,994.09,994.07,-1.52,-1.63,0.00,1.34,0.21,9.25,-0.00,0.00,-0.00,0.00
2026-06-26 19:04:51.759,994.09,994.07,-1.52,-1.63,0.00,1.35,0.22,9.23,-0.00,0.00,-0.00,0.00
2026-06-26 19:04:51.761,994.09,994.07,-1.52,-1.63,0.00,1.35,0.22,9.23,-0.00,0.00,-0.00,0.00
2026-06-26 19:04:51.766,994.09,994.07,-1.52,-1.63,0.00,1.35,0.22,9.23,-0.00,0.00,-0.00,0.00
2026-06-26 19:04:51.767,994.09,994.07,-1.52,-1.63,0.00,1.35,0.18,9.25,0.00,0.00,0.00,0.00
2026-06-26 19:04:51.769,994.09,994.07,-1.52,-1.63,0.00,1.35,0.18,9.25,0.00,0.00,0.00,0.00
2026-06-26 19:04:51.770,994.09,994.07,-1.52,-1.63,0.00,1.35,0.18,9.25,0.00,0.00,0.00,0.00
2026-06-26 19:04:51.771,994.09,994.07,-1.52,-1.63,0.00,1.35,0.18,9.25,0.00,0.00,0.00,0.00
2026-06-26 19:04:51.776,994.09,994.07,-1.52,-1.63,0.00,1.35,0.18,9.25,0.00,0.00,0.00,0.00
2026-06-26 19:04:51.777,994.09,994.07,-1.52,-1.63,0.00,1.36,0.22,9.19,0.00,0.00,-0.00,0.00
2026-06-26 19:04:51.778,994.09,994.07,-1.52,-1.63,0.00,1.36,0.22,9.19,0.00,0.00,-0.00,0.00
2026-06-26 19:04:51.780,994.09,994.07,-1.52,-1.63,0.00,1.36,0.22,9.19,0.00,0.00,-0.00,0.00
2026-06-26 19:04:51.781,994.09,994.07,-1.52,-1.63,0.00,1.36,0.22,9.19,0.00,0.00,-0.00,0.00
2026-06-26 19:04:51.784,994.09,994.07,-1.52,-1.63,0.00,1.36,0.22,9.19,0.00,0.00,-0.00,0.00
2026-06-26 19:04:51.788,994.09,994.07,-1.52,-1.63,0.00,1.36,0.22,9.19,0.00,0.00,0.00,0.00
2026-06-26 19:04:51.790,994.09,994.07,-1.52,-1.63,0.00,1.36,0.20,9.24,0.00,0.00,0.00,0.00
2026-06-26 19:04:51.791,994.09,994.07,-1.52,-1.63,0.00,1.36,0.20,9.24,0.00,0.00,0.00,0.00
2026-06-26 19:04:51.796,994.09,994.07,-1.52,-1.63,0.00,1.36,0.20,9.24,0.00,0.00,0.00,0.00
2026-06-26 19:04:51.798,994.09,994.07,-1.52,-1.63,0.00,1.34,0.20,9.24,-0.00,0.00,0.00,0.00
2026-06-26 19:04:51.799,994.09,994.07,-1.52,-1.63,0.00,1.34,0.20,9.24,-0.00,0.00,0.00,0.00
2026-06-26 19:04:51.800,994.09,994.07,-1.52,-1.63,0.00,1.34,0.20,9.24,-0.00,0.00,0.00,0.00
2026-06-26 19:04:51.802,994.09,994.07,-1.52,-1.63,0.00,1.34,0.20,9.24,-0.00,0.00,0.00,0.00
2026-06-26 19:04:51.803,994.09,994.07,-1.52,-1.63,0.00,1.34,0.20,9.24,-0.00,0.00,0.00,0.00
2026-06-26 19:04:51.806,994.09,994.07,-1.52,-1.63,0.00,1.34,0.20,9.24,-0.00,0.00,0.00,0.00
2026-06-26 19:04:51.887,994.09,994.07,-1.17,-1.43,0.00,1.35,0.20,9.23,-0.00,0.00,0.00,0.00
2026-06-26 19:04:51.889,994.09,994.07,-1.17,-1.43,0.00,1.35,0.22,9.25,-0.00,0.00,0.00,0.00
2026-06-26 19:04:51.890,994.09,994.07,-1.17,-1.43,0.00,1.35,0.22,9.25,-0.00,0.00,0.00,0.00
2026-06-26 19:04:51.891,994.09,994.07,-1.17,-1.43,0.00,1.35,0.22,9.25,-0.00,0.00,0.00,0.00
2026-06-26 19:04:51.895,994.09,994.07,-1.17,-1.43,0.00,1.35,0.22,9.25,-0.00,0.00,0.00,0.00
2026-06-26 19:04:51.898,994.09,994.07,-1.17,-1.43,0.00,1.36,0.20,9.26,-0.00,0.00,0.00,0.00
2026-06-26 19:04:51.899,994.09,994.07,-1.17,-1.43,0.00,1.36,0.20,9.26,-0.00,0.00,0.00,0.00
2026-06-26 19:04:51.900,994.09,994.07,-1.17,-1.43,0.00,1.36,0.20,9.26,-0.00,0.00,0.00,0.00
2026-06-26 19:04:51.901,994.09,994.07,-1.17,-1.43,0.00,1.36,0.20,9.26,-0.00,0.00,0.00,0.00
2026-06-26 19:04:51.903,994.09,994.07,-1.17,-1.43,0.00,1.36,0.20,9.26,-0.00,0.00,0.00,0.00
2026-06-26 19:04:51.904,994.09,994.07,-1.17,-1.43,0.00,1.36,0.20,9.26,-0.00,0.00,0.00,0.00
2026-06-26 19:04:51.905,994.09,994.07,-1.17,-1.43,0.00,1.36,0.20,9.26,-0.00,0.00,0.00,0.00
2026-06-26 19:04:51.907,994.09,994.07,-1.17,-1.43,0.00,1.34,0.21,9.23,-0.00,0.00,0.00,0.00
2026-06-26 19:04:51.909,994.09,994.07,-1.17,-1.43,0.00,1.34,0.21,9.23,-0.00,0.00,0.00,0.00
2026-06-26 19:04:51.910,994.09,994.07,-1.17,-1.43,0.00,1.34,0.21,9.23,-0.00,0.00,0.00,0.00
2026-06-26 19:04:51.911,994.09,994.07,-1.17,-1.43,0.00,1.34,0.21,9.23,-0.00,0.00,0.00,0.00
2026-06-26 19:04:51.913,994.09,994.07,-1.17,-1.43,0.00,1.34,0.21,9.23,-0.00,0.00,0.00,0.00
2026-06-26 19:04:51.918,994.09,994.07,-1.17,-1.43,0.00,1.34,0.21,9.23,-0.00,0.00,0.00,0.00
2026-06-26 19:04:51.920,994.09,994.07,-1.17,-1.43,0.00,1.35,0.22,9.23,-0.00,0.00,0.00,0.00
2026-06-26 19:04:51.925,994.09,994.07,-1.17,-1.43,0.00,1.35,0.22,9.23,-0.00,0.00,0.00,0.00
2026-06-26 19:04:51.927,994.09,994.07,-1.17,-1.43,0.00,1.35,0.22,9.23,-0.00,0.00,0.00,0.00
2026-06-26 19:04:51.929,994.09,994.07,-1.17,-1.43,0.00,1.34,0.22,9.22,-0.00,0.00,0.00,0.00
2026-06-26 19:04:51.930,994.09,994.07,-1.17,-1.43,0.00,1.34,0.22,9.22,-0.00,0.00,0.00,0.00
2026-06-26 19:04:51.931,994.09,994.07,-1.17,-1.43,0.00,1.34,0.22,9.22,-0.00,0.00,0.00,0.00
2026-06-26 19:04:51.933,994.09,994.07,-1.17,-1.43,0.00,1.34,0.22,9.22,-0.00,0.00,0.00,0.00
2026-06-26 19:04:51.936,994.09,994.07,-1.17,-1.43,0.00,1.34,0.22,9.22,-0.00,0.00,0.00,0.00
2026-06-26 19:04:51.939,994.09,994.07,-1.17,-1.43,0.00,1.34,0.21,9.24,-0.00,0.00,0.00,0.00
2026-06-26 19:04:51.940,994.09,994.07,-1.17,-1.43,0.00,1.34,0.21,9.24,-0.00,0.00,0.00,0.00
2026-06-26 19:04:51.941,994.09,994.07,-1.17,-1.43,0.00,1.34,0.21,9.24,-0.00,0.00,0.00,0.00
2026-06-26 19:04:51.947,994.09,994.07,-1.17,-1.43,0.00,1.34,0.21,9.24,-0.00,0.00,0.00,0.00
2026-06-26 19:04:52.031,994.09,994.07,-1.37,-1.55,0.00,1.35,0.20,9.23,0.00,0.00,-0.00,0.00
2026-06-26 19:04:52.032,994.09,994.07,-1.37,-1.55,0.00,1.35,0.20,9.23,0.00,0.00,-0.00,0.00
2026-06-26 19:04:52.037,994.09,994.07,-1.37,-1.55,0.00,1.35,0.20,9.23,0.00,0.00,-0.00,0.00
2026-06-26 19:04:52.038,994.09,994.07,-1.37,-1.55,0.00,1.36,0.21,9.24,-0.00,0.00,0.00,0.00
2026-06-26 19:04:52.040,994.09,994.07,-1.37,-1.55,0.00,1.36,0.21,9.24,-0.00,0.00,0.00,0.00
2026-06-26 19:04:52.041,994.09,994.07,-1.37,-1.55,0.00,1.36,0.21,9.24,-0.00,0.00,0.00,0.00
2026-06-26 19:04:52.042,994.09,994.07,-1.37,-1.55,0.00,1.36,0.21,9.24,-0.00,0.00,0.00,0.00
2026-06-26 19:04:52.047,994.09,994.07,-1.37,-1.55,0.00,1.36,0.21,9.24,-0.00,0.00,0.00,0.00
2026-06-26 19:04:52.049,994.09,994.07,-1.37,-1.55,0.00,1.35,0.21,9.22,0.00,-0.00,-0.00,0.00
2026-06-26 19:04:52.050,994.09,994.07,-1.37,-1.55,0.00,1.35,0.21,9.22,0.00,-0.00,-0.00,0.00
2026-06-26 19:04:52.051,994.09,994.07,-1.37,-1.55,0.00,1.35,0.21,9.22,0.00,-0.00,-0.00,0.00
2026-06-26 19:04:52.052,994.09,994.07,-1.37,-1.55,0.00,1.35,0.21,9.22,0.00,-0.00,-0.00,0.00
2026-06-26 19:04:52.053,994.09,994.07,-1.37,-1.55,0.00,1.35,0.21,9.22,0.00,-0.00,-0.00,0.00
2026-06-26 19:04:52.055,994.09,994.07,-1.37,-1.55,0.00,1.35,0.21,9.22,0.00,-0.00,-0.00,0.00
2026-06-26 19:04:52.058,994.09,994.07,-1.37,-1.55,0.00,1.35,0.19,9.23,0.00,0.00,-0.00,0.00
2026-06-26 19:04:52.060,994.09,994.07,-1.37,-1.55,0.00,1.35,0.19,9.23,0.00,0.00,-0.00,0.00
2026-06-26 19:04:52.061,994.09,994.07,-1.37,-1.55,0.00,1.35,0.19,9.23,0.00,0.00,-0.00,0.00
2026-06-26 19:04:52.064,994.09,994.07,-1.37,-1.55,0.00,1.35,0.19,9.23,0.00,0.00,-0.00,0.00
2026-06-26 19:04:52.068,994.09,994.07,-1.37,-1.55,0.00,1.35,0.19,9.23,0.00,0.00,0.00,0.00
2026-06-26 19:04:52.070,994.09,994.07,-1.37,-1.55,0.00,1.35,0.18,9.22,0.00,0.00,0.00,0.00
2026-06-26 19:04:52.071,994.09,994.07,-1.37,-1.55,0.00,1.35,0.18,9.22,0.00,0.00,0.00,0.00
2026-06-26 19:04:52.077,994.09,994.07,-1.37,-1.55,0.00,1.35,0.18,9.22,0.00,0.00,0.00,0.00
2026-06-26 19:04:52.078,994.09,994.07,-1.37,-1.55,0.00,1.35,0.21,9.21,-0.00,0.00,0.00,0.00
2026-06-26 19:04:52.079,994.09,994.07,-1.37,-1.55,0.00,1.35,0.21,9.21,-0.00,0.00,0.00,0.00
2026-06-26 19:04:52.081,994.09,994.07,-1.37,-1.55,0.00,1.35,0.21,9.21,-0.00,0.00,0.00,0.00
2026-06-26 19:04:52.082,994.09,994.07,-1.37,-1.55,0.00,1.35,0.21,9.21,-0.00,0.00,0.00,0.00
2026-06-26 19:04:52.087,994.09,994.07,-1.37,-1.55,0.00,1.35,0.21,9.21,-0.00,0.00,0.00,0.00
2026-06-26 19:04:52.088,994.09,994.07,-1.37,-1.55,0.00,1.33,0.22,9.19,-0.00,0.00,0.00,0.00
2026-06-26 19:04:52.089,994.09,994.07,-1.37,-1.55,0.00,1.33,0.22,9.19,-0.00,0.00,0.00,0.00
2026-06-26 19:04:52.171,994.08,994.07,-1.65,-1.70,0.00,1.39,0.20,9.21,0.00,-0.00,0.00,0.00
2026-06-26 19:04:52.176,994.08,994.07,-1.65,-1.70,0.00,1.39,0.20,9.21,0.00,-0.00,0.00,0.00
2026-06-26 19:04:52.178,994.08,994.07,-1.65,-1.70,0.00,1.33,0.21,9.18,0.00,-0.00,0.00,0.00
2026-06-26 19:04:52.179,994.08,994.07,-1.65,-1.70,0.00,1.33,0.21,9.18,0.00,-0.00,0.00,0.00
2026-06-26 19:04:52.181,994.08,994.07,-1.65,-1.70,0.00,1.33,0.21,9.18,0.00,-0.00,0.00,0.00
2026-06-26 19:04:52.182,994.08,994.07,-1.65,-1.70,0.00,1.33,0.21,9.18,0.00,-0.00,0.00,0.00
2026-06-26 19:04:52.185,994.08,994.07,-1.65,-1.70,0.00,1.33,0.21,9.18,0.00,-0.00,0.00,0.00
2026-06-26 19:04:52.188,994.08,994.07,-1.65,-1.70,0.00,1.33,0.21,9.18,0.00,-0.00,-0.00,0.00
2026-06-26 19:04:52.189,994.08,994.07,-1.65,-1.70,0.00,1.32,0.21,9.22,0.00,-0.00,-0.00,0.00
2026-06-26 19:04:52.190,994.08,994.07,-1.65,-1.70,0.00,1.32,0.21,9.22,0.00,-0.00,-0.00,0.00
2026-06-26 19:04:52.191,994.08,994.07,-1.65,-1.70,0.00,1.32,0.21,9.22,0.00,-0.00,-0.00,0.00
2026-06-26 19:04:52.193,994.08,994.07,-1.65,-1.70,0.00,1.32,0.21,9.22,0.00,-0.00,-0.00,0.00
2026-06-26 19:04:52.198,994.08,994.07,-1.65,-1.70,0.00,1.32,0.21,9.22,0.00,-0.00,-0.00,0.00
2026-06-26 19:04:52.199,994.08,994.07,-1.65,-1.70,0.00,1.43,0.20,9.28,-0.00,0.00,-0.00,0.00
2026-06-26 19:04:52.200,994.08,994.07,-1.65,-1.70,0.00,1.43,0.20,9.28,-0.00,0.00,-0.00,0.00
2026-06-26 19:04:52.201,994.08,994.07,-1.65,-1.70,0.00,1.43,0.20,9.28,-0.00,0.00,-0.00,0.00
2026-06-26 19:04:52.202,994.08,994.07,-1.65,-1.70,0.00,1.43,0.20,9.28,-0.00,0.00,-0.00,0.00
2026-06-26 19:04:52.205,994.08,994.07,-1.65,-1.70,0.00,1.43,0.20,9.28,-0.00,0.00,-0.00,0.00
2026-06-26 19:04:52.208,994.08,994.07,-1.65,-1.70,0.00,1.43,0.20,9.28,0.00,0.00,0.00,0.00
2026-06-26 19:04:52.209,994.08,994.07,-1.65,-1.70,0.00,1.32,0.20,9.22,0.00,0.00,0.00,0.00
2026-06-26 19:04:52.210,994.08,994.07,-1.65,-1.70,0.00,1.32,0.20,9.22,0.00,0.00,0.00,0.00
2026-06-26 19:04:52.212,994.08,994.07,-1.65,-1.70,0.00,1.32,0.20,9.22,0.00,0.00,0.00,0.00
2026-06-26 19:04:52.215,994.08,994.07,-1.65,-1.70,0.00,1.32,0.20,9.22,0.00,0.00,0.00,0.00
2026-06-26 19:04:52.218,994.08,994.07,-1.65,-1.70,0.00,1.32,0.20,9.22,-0.00,-0.01,0.00,0.00
2026-06-26 19:04:52.219,994.08,994.07,-1.65,-1.70,0.00,1.31,0.22,9.23,-0.00,-0.01,0.00,0.00
2026-06-26 19:04:52.220,994.08,994.07,-1.65,-1.70,0.00,1.31,0.22,9.23,-0.00,-0.01,0.00,0.00
2026-06-26 19:04:52.222,994.08,994.07,-1.65,-1.70,0.00,1.31,0.22,9.23,-0.00,-0.01,0.00,0.00
2026-06-26 19:04:52.223,994.08,994.07,-1.65,-1.70,0.00,1.31,0.22,9.23,-0.00,-0.01,0.00,0.00
2026-06-26 19:04:52.227,994.08,994.07,-1.65,-1.70,0.00,1.31,0.22,9.23,-0.00,-0.01,0.00,0.00
2026-06-26 19:04:52.229,994.08,994.07,-1.65,-1.70,0.00,1.36,0.20,9.20,0.00,-0.00,0.00,0.00
2026-06-26 19:04:52.231,994.08,994.07,-1.65,-1.70,0.00,1.36,0.20,9.20,0.00,-0.00,0.00,0.00
2026-06-26 19:04:52.318,994.08,994.06,-1.89,-1.82,0.00,1.35,0.22,9.21,0.00,-0.00,0.00,0.00
2026-06-26 19:04:52.319,994.08,994.06,-1.89,-1.82,0.00,1.30,0.19,9.24,0.00,-0.00,0.00,0.00
2026-06-26 19:04:52.321,994.08,994.06,-1.89,-1.82,0.00,1.30,0.19,9.24,0.00,-0.00,0.00,0.00
2026-06-26 19:04:52.322,994.08,994.06,-1.89,-1.82,0.00,1.30,0.19,9.24,0.00,-0.00,0.00,0.00
2026-06-26 19:04:52.323,994.08,994.06,-1.89,-1.82,0.00,1.30,0.19,9.24,0.00,-0.00,0.00,0.00
2026-06-26 19:04:52.329,994.08,994.06,-1.89,-1.82,0.00,1.30,0.19,9.24,-0.00,-0.00,-0.00,0.00
2026-06-26 19:04:52.331,994.08,994.06,-1.89,-1.82,0.00,1.34,0.22,9.20,-0.00,-0.00,-0.00,0.00
2026-06-26 19:04:52.332,994.08,994.06,-1.89,-1.82,0.00,1.34,0.22,9.20,-0.00,-0.00,-0.00,0.00
2026-06-26 19:04:52.334,994.08,994.06,-1.89,-1.82,0.00,1.34,0.22,9.20,-0.00,-0.00,-0.00,0.00
2026-06-26 19:04:52.338,994.08,994.06,-1.89,-1.82,0.00,1.34,0.22,9.20,0.00,-0.00,0.00,0.00
2026-06-26 19:04:52.339,994.08,994.06,-1.89,-1.82,0.00,1.36,0.25,9.23,0.00,-0.00,0.00,0.00
2026-06-26 19:04:52.340,994.08,994.06,-1.89,-1.82,0.00,1.36,0.25,9.23,0.00,-0.00,0.00,0.00
2026-06-26 19:04:52.342,994.08,994.06,-1.89,-1.82,0.00,1.36,0.25,9.23,0.00,-0.00,0.00,0.00
2026-06-26 19:04:52.343,994.08,994.06,-1.89,-1.82,0.00,1.36,0.25,9.23,0.00,-0.00,0.00,0.00
2026-06-26 19:04:52.348,994.08,994.06,-1.89,-1.82,0.00,1.36,0.25,9.23,0.00,-0.00,0.00,0.00
2026-06-26 19:04:52.349,994.08,994.06,-1.89,-1.82,0.00,1.36,0.20,9.25,0.00,-0.00,0.00,0.00
2026-06-26 19:04:52.350,994.08,994.06,-1.89,-1.82,0.00,1.36,0.20,9.25,0.00,-0.00,0.00,0.00
2026-06-26 19:04:52.352,994.08,994.06,-1.89,-1.82,0.00,1.36,0.20,9.25,0.00,-0.00,0.00,0.00
2026-06-26 19:04:52.353,994.08,994.06,-1.89,-1.82,0.00,1.36,0.20,9.25,0.00,-0.00,0.00,0.00
2026-06-26 19:04:52.354,994.08,994.06,-1.89,-1.82,0.00,1.36,0.20,9.25,0.00,-0.00,0.00,0.00
2026-06-26 19:04:52.355,994.08,994.06,-1.89,-1.82,0.00,1.36,0.20,9.25,0.00,-0.00,0.00,0.00
2026-06-26 19:04:52.356,994.08,994.06,-1.89,-1.82,0.00,1.36,0.20,9.25,0.00,-0.00,0.00,0.00
2026-06-26 19:04:52.358,994.08,994.06,-1.89,-1.82,0.00,1.28,0.24,9.18,0.00,-0.00,0.00,0.00
2026-06-26 19:04:52.360,994.08,994.06,-1.89,-1.82,0.00,1.28,0.24,9.18,0.00,-0.00,0.00,0.00
2026-06-26 19:04:52.361,994.08,994.06,-1.89,-1.82,0.00,1.28,0.24,9.18,0.00,-0.00,0.00,0.00
2026-06-26 19:04:52.362,994.08,994.06,-1.89,-1.82,0.00,1.28,0.24,9.18,0.00,-0.00,0.00,0.00
2026-06-26 19:04:52.363,994.08,994.06,-1.89,-1.82,0.00,1.28,0.24,9.18,0.00,-0.00,0.00,0.00
2026-06-26 19:04:52.368,994.08,994.06,-1.89,-1.82,0.00,1.28,0.24,9.18,0.00,-0.00,0.00,0.00
2026-06-26 19:04:52.369,994.08,994.06,-1.89,-1.82,0.00,1.37,0.15,9.16,0.00,-0.00,-0.00,0.00
2026-06-26 19:04:52.371,994.08,994.06,-1.89,-1.82,0.00,1.37,0.15,9.16,0.00,-0.00,-0.00,0.00
2026-06-26 19:04:52.373,994.08,994.06,-1.89,-1.82,0.00,1.37,0.15,9.16,0.00,-0.00,-0.00,0.00
2026-06-26 19:04:52.455,994.08,994.06,-1.75,-1.75,0.00,2.48,-0.09,9.41,0.01,0.07,-0.05,0.00
2026-06-26 19:04:52.456,994.08,994.06,-1.75,-1.75,0.00,2.48,-0.09,9.41,0.01,0.07,-0.05,0.00
2026-06-26 19:04:52.458,994.08,994.06,-1.75,-1.75,0.00,2.48,-0.09,9.41,0.01,0.07,-0.05,0.00
2026-06-26 19:04:52.459,994.08,994.06,-1.75,-1.75,0.00,3.73,0.23,9.11,0.01,0.13,-0.07,0.00
2026-06-26 19:04:52.460,994.08,994.06,-1.75,-1.75,0.00,3.73,0.23,9.11,0.01,0.13,-0.07,0.00
2026-06-26 19:04:52.461,994.08,994.06,-1.75,-1.75,0.00,3.73,0.23,9.11,0.01,0.13,-0.07,0.00
2026-06-26 19:04:52.463,994.08,994.06,-1.75,-1.75,0.00,3.73,0.23,9.11,0.01,0.13,-0.07,0.00
2026-06-26 19:04:52.464,994.08,994.06,-1.75,-1.75,0.00,3.73,0.23,9.11,0.01,0.13,-0.07,0.00
2026-06-26 19:04:52.465,994.08,994.06,-1.75,-1.75,0.00,3.73,0.23,9.11,0.01,0.13,-0.07,0.00
2026-06-26 19:04:52.466,994.08,994.06,-1.75,-1.75,0.00,3.73,0.23,9.11,0.01,0.13,-0.07,0.00
2026-06-26 19:04:52.468,994.08,994.06,-1.75,-1.75,0.00,3.73,0.23,9.11,0.01,0.13,-0.07,0.00
2026-06-26 19:04:52.469,994.08,994.06,-1.75,-1.75,0.00,3.70,0.13,9.08,0.02,0.20,-0.07,0.00
2026-06-26 19:04:52.470,994.08,994.06,-1.75,-1.75,0.00,3.70,0.13,9.08,0.02,0.20,-0.07,0.00
2026-06-26 19:04:52.471,994.08,994.06,-1.75,-1.75,0.00,3.70,0.13,9.08,0.02,0.20,-0.07,0.00
2026-06-26 19:04:52.473,994.08,994.06,-1.75,-1.75,0.00,3.70,0.13,9.08,0.02,0.20,-0.07,0.00
2026-06-26 19:04:52.474,994.08,994.06,-1.75,-1.75,0.00,3.70,0.13,9.08,0.02,0.20,-0.07,0.00
2026-06-26 19:04:52.478,994.08,994.06,-1.75,-1.75,0.00,3.70,0.13,9.08,0.04,0.26,-0.07,0.00
2026-06-26 19:04:52.479,994.08,994.06,-1.75,-1.75,0.00,3.38,-0.11,9.24,0.04,0.26,-0.07,0.00
2026-06-26 19:04:52.481,994.08,994.06,-1.75,-1.75,0.00,3.38,-0.11,9.24,0.04,0.26,-0.07,0.00
2026-06-26 19:04:52.484,994.08,994.06,-1.75,-1.75,0.00,3.38,-0.11,9.24,0.04,0.26,-0.07,0.00
2026-06-26 19:04:52.488,994.08,994.06,-1.75,-1.75,0.00,3.38,-0.11,9.24,0.04,0.35,-0.05,0.00
2026-06-26 19:04:52.490,994.08,994.06,-1.75,-1.75,0.00,3.67,-0.25,9.37,0.04,0.35,-0.05,0.00
2026-06-26 19:04:52.491,994.08,994.06,-1.75,-1.75,0.00,3.67,-0.25,9.37,0.04,0.35,-0.05,0.00
2026-06-26 19:04:52.492,994.08,994.06,-1.75,-1.75,0.00,3.67,-0.25,9.37,0.04,0.35,-0.05,0.00
2026-06-26 19:04:52.497,994.08,994.06,-1.75,-1.75,0.00,3.67,-0.25,9.37,0.04,0.35,-0.05,0.00
2026-06-26 19:04:52.499,994.08,994.06,-1.75,-1.75,0.00,2.55,-0.06,9.18,0.05,0.42,-0.04,0.00
2026-06-26 19:04:52.500,994.08,994.06,-1.75,-1.75,0.00,2.55,-0.06,9.18,0.05,0.42,-0.04,0.00
2026-06-26 19:04:52.502,994.08,994.06,-1.75,-1.75,0.00,2.55,-0.06,9.18,0.05,0.42,-0.04,0.00
2026-06-26 19:04:52.503,994.08,994.06,-1.75,-1.75,0.00,2.55,-0.06,9.18,0.05,0.42,-0.04,0.00
2026-06-26 19:04:52.504,994.08,994.06,-1.75,-1.75,0.00,2.55,-0.06,9.18,0.05,0.42,-0.04,0.00
2026-06-26 19:04:52.505,994.08,994.06,-1.75,-1.75,0.00,2.55,-0.06,9.18,0.05,0.42,-0.04,0.00
2026-06-26 19:04:52.506,994.08,994.06,-1.75,-1.75,0.00,2.55,-0.06,9.18,0.05,0.42,-0.04,0.00
2026-06-26 19:04:52.508,994.08,994.06,-1.75,-1.75,0.00,2.55,-0.06,9.18,0.05,0.42,-0.04,0.00
2026-06-26 19:04:52.509,994.08,994.06,-1.75,-1.75,0.00,2.29,-0.07,8.96,0.06,0.47,-0.04,0.00
2026-06-26 19:04:52.510,994.08,994.06,-1.75,-1.75,0.00,2.29,-0.07,8.96,0.06,0.47,-0.04,0.00
2026-06-26 19:04:52.511,994.08,994.06,-1.75,-1.75,0.00,2.29,-0.07,8.96,0.06,0.47,-0.04,0.00
2026-06-26 19:04:52.513,994.08,994.06,-1.75,-1.75,0.00,2.29,-0.07,8.96,0.06,0.47,-0.04,0.00
2026-06-26 19:04:52.514,994.08,994.06,-1.75,-1.75,0.00,2.29,-0.07,8.96,0.06,0.47,-0.04,0.00
2026-06-26 19:04:52.552,994.08,994.06,-1.76,-1.76,0.00,0.93,0.19,9.03,0.07,0.62,-0.12,0.00
2026-06-26 19:04:52.553,994.08,994.06,-1.76,-1.76,0.00,0.93,0.19,9.03,0.07,0.62,-0.12,0.00
2026-06-26 19:04:52.554,994.08,994.06,-1.76,-1.76,0.00,0.93,0.19,9.03,0.07,0.62,-0.12,0.00
2026-06-26 19:04:52.599,994.08,994.06,-1.43,-1.59,0.00,0.63,0.22,9.28,0.07,0.60,-0.07,0.00
2026-06-26 19:04:52.600,994.08,994.06,-1.43,-1.59,0.00,-0.36,0.33,9.13,0.07,0.60,-0.07,0.00
2026-06-26 19:04:52.602,994.08,994.06,-1.43,-1.59,0.00,-0.36,0.33,9.13,0.07,0.60,-0.07,0.00
2026-06-26 19:04:52.603,994.08,994.06,-1.43,-1.59,0.00,-0.36,0.33,9.13,0.07,0.60,-0.07,0.00
2026-06-26 19:04:52.604,994.08,994.06,-1.43,-1.59,0.00,-0.36,0.33,9.13,0.07,0.60,-0.07,0.00
2026-06-26 19:04:52.605,994.08,994.06,-1.43,-1.59,0.00,-0.36,0.33,9.13,0.07,0.60,-0.07,0.00
2026-06-26 19:04:52.606,994.08,994.06,-1.43,-1.59,0.00,-0.36,0.33,9.13,0.07,0.60,-0.07,0.00
2026-06-26 19:04:52.609,994.08,994.06,-1.43,-1.59,0.00,-0.36,0.33,9.13,0.07,0.58,-0.08,0.00
2026-06-26 19:04:52.610,994.08,994.06,-1.43,-1.59,0.00,-0.56,0.33,9.28,0.07,0.58,-0.08,0.00
2026-06-26 19:04:52.612,994.08,994.06,-1.43,-1.59,0.00,-0.56,0.33,9.28,0.07,0.58,-0.08,0.00
2026-06-26 19:04:52.613,994.08,994.06,-1.43,-1.59,0.00,-0.56,0.33,9.28,0.07,0.58,-0.08,0.00
2026-06-26 19:04:52.614,994.08,994.06,-1.43,-1.59,0.00,-0.56,0.33,9.28,0.07,0.58,-0.08,0.00
2026-06-26 19:04:52.616,994.08,994.06,-1.43,-1.59,0.00,-0.56,0.33,9.28,0.07,0.58,-0.08,0.00
2026-06-26 19:04:52.617,994.08,994.06,-1.43,-1.59,0.00,-0.56,0.33,9.28,0.07,0.58,-0.08,0.00
2026-06-26 19:04:52.618,994.08,994.06,-1.43,-1.59,0.00,-0.56,0.33,9.28,0.07,0.58,-0.08,0.00
2026-06-26 19:04:52.619,994.08,994.06,-1.43,-1.59,0.00,-0.81,0.38,9.38,0.07,0.55,-0.09,0.00
2026-06-26 19:04:52.621,994.08,994.06,-1.43,-1.59,0.00,-0.81,0.38,9.38,0.07,0.55,-0.09,0.00
2026-06-26 19:04:52.622,994.08,994.06,-1.43,-1.59,0.00,-0.81,0.38,9.38,0.07,0.55,-0.09,0.00
2026-06-26 19:04:52.623,994.08,994.06,-1.43,-1.59,0.00,-0.81,0.38,9.38,0.07,0.55,-0.09,0.00
2026-06-26 19:04:52.624,994.08,994.06,-1.43,-1.59,0.00,-0.81,0.38,9.38,0.07,0.55,-0.09,0.00
2026-06-26 19:04:52.625,994.08,994.06,-1.43,-1.59,0.00,-0.81,0.38,9.38,0.07,0.55,-0.09,0.00
2026-06-26 19:04:52.627,994.08,994.06,-1.43,-1.59,0.00,-0.81,0.38,9.38,0.07,0.55,-0.09,0.00
2026-06-26 19:04:52.629,994.08,994.06,-1.43,-1.59,0.00,-0.81,0.38,9.38,0.07,0.53,-0.09,0.00
2026-06-26 19:04:52.630,994.08,994.06,-1.43,-1.59,0.00,-0.60,0.25,9.24,0.07,0.53,-0.09,0.00
2026-06-26 19:04:52.631,994.08,994.06,-1.43,-1.59,0.00,-0.60,0.25,9.24,0.07,0.53,-0.09,0.00
2026-06-26 19:04:52.633,994.08,994.06,-1.43,-1.59,0.00,-0.60,0.25,9.24,0.07,0.53,-0.09,0.00
2026-06-26 19:04:52.634,994.08,994.06,-1.43,-1.59,0.00,-0.60,0.25,9.24,0.07,0.53,-0.09,0.00
2026-06-26 19:04:52.638,994.08,994.06,-1.43,-1.59,0.00,-0.60,0.25,9.24,0.06,0.49,-0.09,0.00
2026-06-26 19:04:52.640,994.08,994.06,-1.43,-1.59,0.00,-0.67,0.40,9.14,0.06,0.49,-0.09,0.00
2026-06-26 19:04:52.641,994.08,994.06,-1.43,-1.59,0.00,-0.67,0.40,9.14,0.06,0.49,-0.09,0.00
2026-06-26 19:04:52.642,994.08,994.06,-1.43,-1.59,0.00,-0.67,0.40,9.14,0.06,0.49,-0.09,0.00
2026-06-26 19:04:52.644,994.08,994.06,-1.43,-1.59,0.00,-0.67,0.40,9.14,0.06,0.49,-0.09,0.00
2026-06-26 19:04:52.649,994.08,994.06,-1.43,-1.59,0.00,-0.67,0.40,9.14,0.05,0.44,-0.07,0.00
2026-06-26 19:04:52.650,994.08,994.06,-1.43,-1.59,0.00,-1.11,0.51,9.42,0.05,0.44,-0.07,0.00
2026-06-26 19:04:52.652,994.08,994.06,-1.43,-1.59,0.00,-1.11,0.51,9.42,0.05,0.44,-0.07,0.00
2026-06-26 19:04:52.692,994.08,994.06,-1.51,-1.63,0.00,-0.22,0.11,9.25,0.04,0.29,-0.05,0.00
2026-06-26 19:04:52.695,994.08,994.06,-1.51,-1.63,0.00,-0.22,0.11,9.25,0.04,0.29,-0.05,0.00
2026-06-26 19:04:52.699,994.08,994.06,-1.51,-1.63,0.00,-0.22,0.11,9.25,0.03,0.26,-0.05,0.00
2026-06-26 19:04:52.739,994.08,994.06,-1.84,-1.79,0.00,0.37,0.42,9.25,0.02,0.19,-0.03,0.00
2026-06-26 19:04:52.741,994.08,994.06,-1.84,-1.79,0.00,0.56,0.60,9.30,0.02,0.19,-0.03,0.00
2026-06-26 19:04:52.742,994.08,994.06,-1.84,-1.79,0.00,0.56,0.60,9.30,0.02,0.19,-0.03,0.00
2026-06-26 19:04:52.743,994.08,994.06,-1.84,-1.79,0.00,0.56,0.60,9.30,0.02,0.19,-0.03,0.00
2026-06-26 19:04:52.749,994.08,994.06,-1.84,-1.79,0.00,0.56,0.60,9.30,0.02,0.19,-0.03,0.00
2026-06-26 19:04:52.750,994.08,994.06,-1.84,-1.79,0.00,0.76,0.79,9.54,0.02,0.19,-0.03,0.00
2026-06-26 19:04:52.752,994.08,994.06,-1.84,-1.79,0.00,0.76,0.79,9.54,0.02,0.19,-0.03,0.00
2026-06-26 19:04:52.753,994.08,994.06,-1.84,-1.79,0.00,0.76,0.79,9.54,0.02,0.19,-0.03,0.00
2026-06-26 19:04:52.754,994.08,994.06,-1.84,-1.79,0.00,0.76,0.79,9.54,0.02,0.19,-0.03,0.00
2026-06-26 19:04:52.755,994.08,994.06,-1.84,-1.79,0.00,0.76,0.79,9.54,0.02,0.19,-0.03,0.00
2026-06-26 19:04:52.756,994.08,994.06,-1.84,-1.79,0.00,0.76,0.79,9.54,0.02,0.19,-0.03,0.00
2026-06-26 19:04:52.759,994.08,994.06,-1.84,-1.79,0.00,0.76,0.79,9.54,0.02,0.19,-0.03,0.00
2026-06-26 19:04:52.761,994.08,994.06,-1.84,-1.79,0.00,0.65,0.79,9.52,0.02,0.20,-0.02,0.00
2026-06-26 19:04:52.762,994.08,994.06,-1.84,-1.79,0.00,0.65,0.79,9.52,0.02,0.20,-0.02,0.00
2026-06-26 19:04:52.763,994.08,994.06,-1.84,-1.79,0.00,0.65,0.79,9.52,0.02,0.20,-0.02,0.00
2026-06-26 19:04:52.764,994.08,994.06,-1.84,-1.79,0.00,0.65,0.79,9.52,0.02,0.20,-0.02,0.00
2026-06-26 19:04:52.766,994.08,994.06,-1.84,-1.79,0.00,0.65,0.79,9.52,0.02,0.20,-0.02,0.00
2026-06-26 19:04:52.767,994.08,994.06,-1.84,-1.79,0.00,0.65,0.79,9.52,0.02,0.20,-0.02,0.00
2026-06-26 19:04:52.768,994.08,994.06,-1.84,-1.79,0.00,0.65,0.79,9.52,0.02,0.20,-0.02,0.00
2026-06-26 19:04:52.769,994.08,994.06,-1.84,-1.79,0.00,0.65,0.79,9.52,0.03,0.20,-0.02,0.00
2026-06-26 19:04:52.772,994.08,994.06,-1.84,-1.79,0.00,0.35,0.82,9.43,0.03,0.20,-0.02,0.00
2026-06-26 19:04:52.774,994.08,994.06,-1.84,-1.79,0.00,0.35,0.82,9.43,0.03,0.20,-0.02,0.00
2026-06-26 19:04:52.776,994.08,994.06,-1.84,-1.79,0.00,0.35,0.82,9.43,0.03,0.20,-0.02,0.00
2026-06-26 19:04:52.779,994.08,994.06,-1.84,-1.79,0.00,0.35,0.82,9.43,0.03,0.21,-0.02,0.00
2026-06-26 19:04:52.780,994.08,994.06,-1.84,-1.79,0.00,0.45,0.75,9.27,0.03,0.21,-0.02,0.00
2026-06-26 19:04:52.782,994.08,994.06,-1.84,-1.79,0.00,0.45,0.75,9.27,0.03,0.21,-0.02,0.00
2026-06-26 19:04:52.783,994.08,994.06,-1.84,-1.79,0.00,0.45,0.75,9.27,0.03,0.21,-0.02,0.00
2026-06-26 19:04:52.788,994.08,994.06,-1.84,-1.79,0.00,0.45,0.75,9.27,0.03,0.21,-0.02,0.00
2026-06-26 19:04:52.790,994.08,994.06,-1.84,-1.79,0.00,0.16,0.65,9.41,0.03,0.22,-0.02,0.00
2026-06-26 19:04:52.791,994.08,994.06,-1.84,-1.79,0.00,0.16,0.65,9.41,0.03,0.22,-0.02,0.00
2026-06-26 19:04:52.837,994.08,994.07,-1.59,-1.67,0.00,0.18,0.56,11.46,0.05,0.20,0.00,0.00
2026-06-26 19:04:52.840,994.08,994.07,-1.59,-1.67,0.00,0.18,0.56,11.46,0.08,0.20,-0.02,0.00
2026-06-26 19:04:52.881,994.09,994.07,-1.92,-1.83,0.00,-0.24,0.97,12.53,0.31,0.07,-0.05,0.00
2026-06-26 19:04:52.882,994.09,994.07,-1.92,-1.83,0.00,-0.24,0.97,12.53,0.31,0.07,-0.05,0.00
2026-06-26 19:04:52.884,994.09,994.07,-1.92,-1.83,0.00,-0.24,0.97,12.53,0.31,0.07,-0.05,0.00
2026-06-26 19:04:52.889,994.09,994.07,-1.92,-1.83,0.00,-0.24,0.97,12.53,0.36,0.04,-0.06,0.00
2026-06-26 19:04:52.891,994.09,994.07,-1.92,-1.83,0.00,-0.93,1.57,11.77,0.36,0.04,-0.06,0.00
2026-06-26 19:04:52.892,994.09,994.07,-1.92,-1.83,0.00,-0.93,1.57,11.77,0.36,0.04,-0.06,0.00
2026-06-26 19:04:52.893,994.09,994.07,-1.92,-1.83,0.00,-0.93,1.57,11.77,0.36,0.04,-0.06,0.00
2026-06-26 19:04:52.899,994.09,994.07,-1.92,-1.83,0.00,-0.93,1.57,11.77,0.36,0.04,-0.06,0.00
2026-06-26 19:04:52.901,994.09,994.07,-1.92,-1.83,0.00,-0.37,1.47,11.40,0.42,0.03,-0.08,0.00
2026-06-26 19:04:52.902,994.09,994.07,-1.92,-1.83,0.00,-0.37,1.47,11.40,0.42,0.03,-0.08,0.00
2026-06-26 19:04:52.903,994.09,994.07,-1.92,-1.83,0.00,-0.37,1.47,11.40,0.42,0.03,-0.08,0.00
2026-06-26 19:04:52.904,994.09,994.07,-1.92,-1.83,0.00,-0.37,1.47,11.40,0.42,0.03,-0.08,0.00
2026-06-26 19:04:52.905,994.09,994.07,-1.92,-1.83,0.00,-0.37,1.47,11.40,0.42,0.03,-0.08,0.00
2026-06-26 19:04:52.907,994.09,994.07,-1.92,-1.83,0.00,-0.37,1.47,11.40,0.42,0.03,-0.08,0.00
2026-06-26 19:04:52.908,994.09,994.07,-1.92,-1.83,0.00,-0.37,1.47,11.40,0.42,0.03,-0.08,0.00
2026-06-26 19:04:52.909,994.09,994.07,-1.92,-1.83,0.00,-0.37,1.47,11.40,0.47,0.01,-0.10,0.00
2026-06-26 19:04:52.910,994.09,994.07,-1.92,-1.83,0.00,0.11,1.45,11.16,0.47,0.01,-0.10,0.00
2026-06-26 19:04:52.912,994.09,994.07,-1.92,-1.83,0.00,0.11,1.45,11.16,0.47,0.01,-0.10,0.00
2026-06-26 19:04:52.914,994.09,994.07,-1.92,-1.83,0.00,0.11,1.45,11.16,0.47,0.01,-0.10,0.00
2026-06-26 19:04:52.916,994.09,994.07,-1.92,-1.83,0.00,0.11,1.45,11.16,0.47,0.01,-0.10,0.00
2026-06-26 19:04:52.917,994.09,994.07,-1.92,-1.83,0.00,0.11,1.45,11.16,0.47,0.01,-0.10,0.00
2026-06-26 19:04:52.918,994.09,994.07,-1.92,-1.83,0.00,0.11,1.45,11.16,0.47,0.01,-0.10,0.00
2026-06-26 19:04:52.919,994.09,994.07,-1.92,-1.83,0.00,0.11,1.45,11.16,0.50,-0.01,-0.12,0.00
2026-06-26 19:04:52.930,994.09,994.07,-1.92,-1.83,0.00,-0.09,1.69,10.22,0.53,-0.06,-0.10,0.00
2026-06-26 19:04:52.931,994.09,994.07,-1.92,-1.83,0.00,-0.09,1.69,10.22,0.53,-0.06,-0.10,0.00
2026-06-26 19:04:52.933,994.09,994.07,-1.92,-1.83,0.00,-0.09,1.69,10.22,0.53,-0.06,-0.10,0.00
2026-06-26 19:04:52.971,994.09,994.07,-2.01,-1.88,0.00,-0.35,1.59,9.63,0.59,-0.16,-0.10,0.00
2026-06-26 19:04:52.973,994.09,994.07,-2.01,-1.88,0.00,-0.35,1.59,9.63,0.59,-0.16,-0.10,0.00
2026-06-26 19:04:52.979,994.09,994.07,-2.01,-1.88,0.00,-0.35,1.59,9.63,0.59,-0.16,-0.10,0.00
2026-06-26 19:04:52.981,994.09,994.07,-2.01,-1.88,0.00,0.45,1.45,9.41,0.59,-0.17,-0.12,0.00
2026-06-26 19:04:53.026,994.08,994.07,-1.90,-1.82,0.00,-0.07,0.77,7.77,0.58,-0.23,-0.10,0.00
2026-06-26 19:04:53.030,994.08,994.07,-1.90,-1.82,0.00,-0.07,0.77,7.77,0.56,-0.21,-0.12,0.00
2026-06-26 19:04:53.031,994.08,994.07,-1.90,-1.82,0.00,-0.02,0.37,7.08,0.56,-0.21,-0.12,0.00
2026-06-26 19:04:53.032,994.08,994.07,-1.90,-1.82,0.00,-0.02,0.37,7.08,0.56,-0.21,-0.12,0.00
2026-06-26 19:04:53.033,994.08,994.07,-1.90,-1.82,0.00,-0.02,0.37,7.08,0.56,-0.21,-0.12,0.00
2026-06-26 19:04:53.035,994.08,994.07,-1.90,-1.82,0.00,-0.02,0.37,7.08,0.56,-0.21,-0.12,0.00
2026-06-26 19:04:53.039,994.08,994.07,-1.90,-1.82,0.00,-0.02,0.37,7.08,0.56,-0.21,-0.12,0.00
2026-06-26 19:04:53.041,994.08,994.07,-1.90,-1.82,0.00,0.30,0.16,6.81,0.53,-0.19,-0.13,0.00
2026-06-26 19:04:53.042,994.08,994.07,-1.90,-1.82,0.00,0.30,0.16,6.81,0.53,-0.19,-0.13,0.00
2026-06-26 19:04:53.043,994.08,994.07,-1.90,-1.82,0.00,0.30,0.16,6.81,0.53,-0.19,-0.13,0.00
2026-06-26 19:04:53.048,994.08,994.07,-1.90,-1.82,0.00,0.30,0.16,6.81,0.53,-0.19,-0.13,0.00
2026-06-26 19:04:53.051,994.08,994.07,-1.90,-1.82,0.00,0.19,-0.10,6.44,0.49,-0.19,-0.14,0.00
2026-06-26 19:04:53.053,994.08,994.07,-1.90,-1.82,0.00,0.19,-0.10,6.44,0.49,-0.19,-0.14,0.00
2026-06-26 19:04:53.054,994.08,994.07,-1.90,-1.82,0.00,0.19,-0.10,6.44,0.49,-0.19,-0.14,0.00
2026-06-26 19:04:53.056,994.08,994.07,-1.90,-1.82,0.00,0.19,-0.10,6.44,0.49,-0.19,-0.14,0.00
2026-06-26 19:04:53.058,994.08,994.07,-1.90,-1.82,0.00,0.19,-0.10,6.44,0.49,-0.19,-0.14,0.00
2026-06-26 19:04:53.060,994.08,994.07,-1.90,-1.82,0.00,0.19,-0.10,6.44,0.49,-0.19,-0.14,0.00
2026-06-26 19:04:53.062,994.08,994.07,-1.90,-1.82,0.00,-0.24,-0.18,6.09,0.44,-0.20,-0.13,0.00
2026-06-26 19:04:53.065,994.08,994.07,-1.90,-1.82,0.00,-0.24,-0.18,6.09,0.44,-0.20,-0.13,0.00
2026-06-26 19:04:53.066,994.08,994.07,-1.90,-1.82,0.00,-0.24,-0.18,6.09,0.44,-0.20,-0.13,0.00
2026-06-26 19:04:53.068,994.08,994.07,-1.90,-1.82,0.00,-0.24,-0.18,6.09,0.44,-0.20,-0.13,0.00
2026-06-26 19:04:53.071,994.08,994.07,-1.90,-1.82,0.00,-1.10,-0.19,5.43,0.38,-0.20,-0.12,0.00
2026-06-26 19:04:53.113,994.08,994.06,-2.01,-1.88,0.00,0.06,-1.01,4.20,0.08,-0.14,-0.15,0.00
2026-06-26 19:04:53.115,994.08,994.06,-2.01,-1.88,0.00,0.06,-1.01,4.20,0.08,-0.14,-0.15,0.00
2026-06-26 19:04:53.116,994.08,994.06,-2.01,-1.88,0.00,0.06,-1.01,4.20,0.08,-0.14,-0.15,0.00
2026-06-26 19:04:53.117,994.08,994.06,-2.01,-1.88,0.00,0.06,-1.01,4.20,0.08,-0.14,-0.15,0.00
2026-06-26 19:04:53.118,994.08,994.06,-2.01,-1.88,0.00,0.06,-1.01,4.20,0.08,-0.14,-0.15,0.00
2026-06-26 19:04:53.120,994.08,994.06,-2.01,-1.88,0.00,0.06,-1.01,4.20,0.08,-0.14,-0.15,0.00
2026-06-26 19:04:53.121,994.08,994.06,-2.01,-1.88,0.00,-0.18,-0.98,4.03,-0.01,-0.14,-0.14,0.00
2026-06-26 19:04:53.122,994.08,994.06,-2.01,-1.88,0.00,-0.18,-0.98,4.03,-0.01,-0.14,-0.14,0.00
2026-06-26 19:04:53.165,994.08,994.06,-1.72,-1.74,0.00,-0.11,-1.18,3.98,-0.51,-0.08,-0.17,0.00
2026-06-26 19:04:53.166,994.08,994.06,-1.72,-1.74,0.00,-0.11,-1.18,3.98,-0.51,-0.08,-0.17,0.00
2026-06-26 19:04:53.167,994.08,994.06,-1.72,-1.74,0.00,-0.11,-1.18,3.98,-0.51,-0.08,-0.17,0.00
2026-06-26 19:04:53.169,994.08,994.06,-1.72,-1.74,0.00,-0.11,-1.18,3.98,-0.51,-0.08,-0.17,0.00
2026-06-26 19:04:53.170,994.08,994.06,-1.72,-1.74,0.00,-0.11,-1.18,3.98,-0.51,-0.08,-0.17,0.00
2026-06-26 19:04:53.171,994.08,994.06,-1.72,-1.74,0.00,-0.14,-1.16,3.87,-0.51,-0.08,-0.17,0.00
2026-06-26 19:04:53.173,994.08,994.06,-1.72,-1.74,0.00,-0.14,-1.16,3.87,-0.51,-0.08,-0.17,0.00
2026-06-26 19:04:53.174,994.08,994.06,-1.72,-1.74,0.00,-0.14,-1.16,3.87,-0.51,-0.08,-0.17,0.00
2026-06-26 19:04:53.178,994.08,994.06,-1.72,-1.74,0.00,-0.14,-1.16,3.87,-0.51,-0.08,-0.17,0.00
2026-06-26 19:04:53.181,994.08,994.06,-1.72,-1.74,0.00,-0.14,-1.16,3.87,-0.62,-0.08,-0.16,0.00
2026-06-26 19:04:53.182,994.08,994.06,-1.72,-1.74,0.00,-0.15,-1.23,3.83,-0.62,-0.08,-0.16,0.00
2026-06-26 19:04:53.183,994.08,994.06,-1.72,-1.74,0.00,-0.15,-1.23,3.83,-0.62,-0.08,-0.16,0.00
2026-06-26 19:04:53.185,994.08,994.06,-1.72,-1.74,0.00,-0.15,-1.23,3.83,-0.62,-0.08,-0.16,0.00
2026-06-26 19:04:53.190,994.08,994.06,-1.72,-1.74,0.00,-0.15,-1.23,3.83,-0.62,-0.08,-0.16,0.00
2026-06-26 19:04:53.191,994.08,994.06,-1.72,-1.74,0.00,-0.44,-1.25,3.94,-0.82,-0.06,-0.16,0.00
2026-06-26 19:04:53.192,994.08,994.06,-1.72,-1.74,0.00,-0.44,-1.25,3.94,-0.82,-0.06,-0.16,0.00
2026-06-26 19:04:53.194,994.08,994.06,-1.72,-1.74,0.00,-0.44,-1.25,3.94,-0.82,-0.06,-0.16,0.00
2026-06-26 19:04:53.197,994.08,994.06,-1.72,-1.74,0.00,-0.44,-1.25,3.94,-0.82,-0.06,-0.16,0.00
2026-06-26 19:04:53.200,994.08,994.06,-1.72,-1.74,0.00,-0.44,-1.25,3.94,-0.93,-0.05,-0.17,0.00
2026-06-26 19:04:53.202,994.08,994.06,-1.72,-1.74,0.00,-0.47,-1.30,3.97,-0.93,-0.05,-0.17,0.00
2026-06-26 19:04:53.203,994.08,994.06,-1.72,-1.74,0.00,-0.47,-1.30,3.97,-0.93,-0.05,-0.17,0.00
2026-06-26 19:04:53.204,994.08,994.06,-1.72,-1.74,0.00,-0.47,-1.30,3.97,-0.93,-0.05,-0.17,0.00
2026-06-26 19:04:53.205,994.08,994.06,-1.72,-1.74,0.00,-0.47,-1.30,3.97,-0.93,-0.05,-0.17,0.00
2026-06-26 19:04:53.206,994.08,994.06,-1.72,-1.74,0.00,-0.47,-1.30,3.97,-0.93,-0.05,-0.17,0.00
2026-06-26 19:04:53.210,994.08,994.06,-1.72,-1.74,0.00,-0.47,-1.30,3.97,-0.93,-0.05,-0.17,0.00
2026-06-26 19:04:53.212,994.08,994.06,-1.72,-1.74,0.00,-0.41,-1.35,3.77,-1.02,-0.04,-0.18,0.00
2026-06-26 19:04:53.254,994.08,994.06,-1.81,-1.78,0.00,-0.34,-1.74,4.78,-1.41,0.01,-0.19,0.00
2026-06-26 19:04:53.255,994.08,994.06,-1.81,-1.78,0.00,-0.34,-1.74,4.78,-1.41,0.01,-0.19,0.00
2026-06-26 19:04:53.256,994.08,994.06,-1.81,-1.78,0.00,-0.34,-1.74,4.78,-1.41,0.01,-0.19,0.00
2026-06-26 19:04:53.257,994.08,994.06,-1.81,-1.78,0.00,-0.34,-1.74,4.78,-1.41,0.01,-0.19,0.00
2026-06-26 19:04:53.259,994.08,994.06,-1.81,-1.78,0.00,-0.34,-1.74,4.78,-1.41,0.01,-0.19,0.00
2026-06-26 19:04:53.260,994.08,994.06,-1.81,-1.78,0.00,-0.34,-1.74,4.78,-1.47,0.01,-0.19,0.00
2026-06-26 19:04:53.261,994.08,994.06,-1.81,-1.78,0.00,0.16,1.28,6.82,-1.47,0.01,-0.19,0.00
2026-06-26 19:04:53.263,994.08,994.06,-1.81,-1.78,0.00,0.16,1.28,6.82,-1.47,0.01,-0.19,0.00
2026-06-26 19:04:53.264,994.08,994.06,-1.81,-1.78,0.00,0.16,1.28,6.82,-1.47,0.01,-0.19,0.00
2026-06-26 19:04:53.306,994.07,994.06,-1.12,-1.40,0.00,1.65,6.27,1.59,0.84,-0.49,0.03,0.00
2026-06-26 19:04:53.307,994.07,994.06,-1.12,-1.40,0.00,1.65,6.27,1.59,0.84,-0.49,0.03,0.00
2026-06-26 19:04:53.309,994.07,994.06,-1.12,-1.40,0.00,1.65,6.27,1.59,0.84,-0.49,0.03,0.00
2026-06-26 19:04:53.310,994.07,994.06,-1.12,-1.40,0.00,1.65,6.27,1.59,0.84,-0.49,0.03,0.00
2026-06-26 19:04:53.311,994.07,994.06,-1.12,-1.40,0.00,1.16,-12.63,2.37,0.77,-0.63,0.14,0.00
2026-06-26 19:04:53.312,994.07,994.06,-1.12,-1.40,0.00,1.16,-12.63,2.37,0.77,-0.63,0.14,0.00
2026-06-26 19:04:53.314,994.07,994.06,-1.12,-1.40,0.00,1.16,-12.63,2.37,0.77,-0.63,0.14,0.00
2026-06-26 19:04:53.316,994.07,994.06,-1.12,-1.40,0.00,1.16,-12.63,2.37,0.77,-0.63,0.14,0.00
2026-06-26 19:04:53.318,994.07,994.06,-1.12,-1.40,0.00,1.16,-12.63,2.37,0.77,-0.63,0.14,0.00
2026-06-26 19:04:53.320,994.07,994.06,-1.12,-1.40,0.00,1.16,-12.63,2.37,0.77,-0.63,0.14,0.00
2026-06-26 19:04:53.322,994.07,994.06,-1.12,-1.40,0.00,-2.59,4.20,4.27,0.73,-0.47,0.01,0.00
2026-06-26 19:04:53.323,994.07,994.06,-1.12,-1.40,0.00,-2.59,4.20,4.27,0.73,-0.47,0.01,0.00
2026-06-26 19:04:53.324,994.07,994.06,-1.12,-1.40,0.00,-2.59,4.20,4.27,0.73,-0.47,0.01,0.00
2026-06-26 19:04:53.325,994.07,994.06,-1.12,-1.40,0.00,-2.59,4.20,4.27,0.73,-0.47,0.01,0.00
2026-06-26 19:04:53.326,994.07,994.06,-1.12,-1.40,0.00,-2.59,4.20,4.27,0.73,-0.47,0.01,0.00
2026-06-26 19:04:53.330,994.07,994.06,-1.12,-1.40,0.00,-2.59,4.20,4.27,0.73,-0.47,0.01,0.00
2026-06-26 19:04:53.331,994.07,994.06,-1.12,-1.40,0.00,12.76,-5.69,-4.59,0.75,-0.48,0.06,0.00
2026-06-26 19:04:53.333,994.07,994.06,-1.12,-1.40,0.00,12.76,-5.69,-4.59,0.75,-0.48,0.06,0.00
2026-06-26 19:04:53.334,994.07,994.06,-1.12,-1.40,0.00,12.76,-5.69,-4.59,0.75,-0.48,0.06,0.00
2026-06-26 19:04:53.335,994.07,994.06,-1.12,-1.40,0.00,12.76,-5.69,-4.59,0.75,-0.48,0.06,0.00
2026-06-26 19:04:53.339,994.07,994.06,-1.12,-1.40,0.00,12.76,-5.69,-4.59,0.75,-0.48,0.06,0.00
2026-06-26 19:04:53.341,994.07,994.06,-1.12,-1.40,0.00,12.76,-5.69,-4.59,0.70,-0.60,0.06,0.00
2026-06-26 19:04:53.342,994.07,994.06,-1.12,-1.40,0.00,-7.72,-5.31,5.87,0.70,-0.60,0.06,0.00
2026-06-26 19:04:53.343,994.07,994.06,-1.12,-1.40,0.00,-7.72,-5.31,5.87,0.70,-0.60,0.06,0.00
2026-06-26 19:04:53.344,994.07,994.06,-1.12,-1.40,0.00,-7.72,-5.31,5.87,0.70,-0.60,0.06,0.00
2026-06-26 19:04:53.349,994.07,994.06,-1.12,-1.40,0.00,-7.72,-5.31,5.87,0.70,-0.60,0.06,0.00
2026-06-26 19:04:53.352,994.07,994.06,-1.12,-1.40,0.00,-7.72,-5.31,5.87,0.54,-0.54,0.07,0.00
2026-06-26 19:04:53.394,994.07,994.07,-0.56,-0.99,0.00,2.65,-4.82,3.66,0.15,-0.33,-0.09,0.00
2026-06-26 19:04:53.401,994.07,994.07,-0.56,-0.99,0.00,2.65,-4.82,3.66,0.15,-0.33,-0.09,0.00
2026-06-26 19:04:53.402,994.07,994.07,-0.56,-0.99,0.00,-3.82,6.17,2.49,0.10,-0.33,-0.13,0.00
2026-06-26 19:04:53.404,994.07,994.07,-0.56,-0.99,0.00,-3.82,6.17,2.49,0.10,-0.33,-0.13,0.00
2026-06-26 19:04:53.405,994.07,994.07,-0.56,-0.99,0.00,-3.82,6.17,2.49,0.10,-0.33,-0.13,0.00
2026-06-26 19:04:53.451,994.07,994.07,0.04,0.25,0.00,-6.09,1.80,-2.99,-0.49,-0.39,0.02,0.00
2026-06-26 19:04:53.454,994.07,994.07,0.04,0.25,0.00,2.71,-7.10,1.91,-0.49,-0.39,0.02,0.00
2026-06-26 19:04:53.455,994.07,994.07,0.04,0.25,0.00,2.71,-7.10,1.91,-0.49,-0.39,0.02,0.00
2026-06-26 19:04:53.456,994.07,994.07,0.04,0.25,0.00,2.71,-7.10,1.91,-0.49,-0.39,0.02,0.00
2026-06-26 19:04:53.458,994.07,994.07,0.04,0.25,0.00,2.71,-7.10,1.91,-0.49,-0.39,0.02,0.00
2026-06-26 19:04:53.459,994.07,994.07,0.04,0.25,0.00,2.71,-7.10,1.91,-0.49,-0.39,0.02,0.00
2026-06-26 19:04:53.460,994.07,994.07,0.04,0.25,0.00,2.71,-7.10,1.91,-0.49,-0.39,0.02,0.00
2026-06-26 19:04:53.461,994.07,994.07,0.04,0.25,0.00,2.71,-7.10,1.91,-0.62,-0.37,-0.01,0.00
2026-06-26 19:04:53.463,994.07,994.07,0.04,0.25,0.00,-1.16,1.47,9.35,-0.62,-0.37,-0.01,0.00
2026-06-26 19:04:53.464,994.07,994.07,0.04,0.25,0.00,-1.16,1.47,9.35,-0.62,-0.37,-0.01,0.00
2026-06-26 19:04:53.466,994.07,994.07,0.04,0.25,0.00,-1.16,1.47,9.35,-0.62,-0.37,-0.01,0.00
2026-06-26 19:04:53.467,994.07,994.07,0.04,0.25,0.00,-1.16,1.47,9.35,-0.62,-0.37,-0.01,0.00
2026-06-26 19:04:53.469,994.07,994.07,0.04,0.25,0.00,-1.16,1.47,9.35,-0.62,-0.37,-0.01,0.00
2026-06-26 19:04:53.470,994.07,994.07,0.04,0.25,0.00,-1.16,1.47,9.35,-0.62,-0.37,-0.01,0.00
2026-06-26 19:04:53.471,994.07,994.07,0.04,0.25,0.00,-6.37,-7.27,10.20,-0.71,-0.33,-0.01,0.00
2026-06-26 19:04:53.472,994.07,994.07,0.04,0.25,0.00,-6.37,-7.27,10.20,-0.71,-0.33,-0.01,0.00
2026-06-26 19:04:53.474,994.07,994.07,0.04,0.25,0.00,-6.37,-7.27,10.20,-0.71,-0.33,-0.01,0.00
2026-06-26 19:04:53.475,994.07,994.07,0.04,0.25,0.00,-6.37,-7.27,10.20,-0.71,-0.33,-0.01,0.00
2026-06-26 19:04:53.476,994.07,994.07,0.04,0.25,0.00,-6.37,-7.27,10.20,-0.71,-0.33,-0.01,0.00
2026-06-26 19:04:53.477,994.07,994.07,0.04,0.25,0.00,-6.37,-7.27,10.20,-0.71,-0.33,-0.01,0.00
2026-06-26 19:04:53.479,994.07,994.07,0.04,0.25,0.00,-6.37,-7.27,10.20,-0.71,-0.33,-0.01,0.00
2026-06-26 19:04:53.481,994.07,994.07,0.04,0.25,0.00,1.98,-4.23,1.42,-0.97,-0.15,-0.10,0.00
2026-06-26 19:04:53.482,994.07,994.07,0.04,0.25,0.00,1.98,-4.23,1.42,-0.97,-0.15,-0.10,0.00
2026-06-26 19:04:53.484,994.07,994.07,0.04,0.25,0.00,1.98,-4.23,1.42,-0.97,-0.15,-0.10,0.00
2026-06-26 19:04:53.485,994.07,994.07,0.04,0.25,0.00,1.98,-4.23,1.42,-0.97,-0.15,-0.10,0.00
2026-06-26 19:04:53.490,994.07,994.07,0.04,0.25,0.00,1.98,-4.23,1.42,-0.97,-0.15,-0.10,0.00
2026-06-26 19:04:53.492,994.07,994.07,0.04,0.25,0.00,4.15,1.97,3.47,-1.05,-0.25,-0.04,0.00
2026-06-26 19:04:53.534,994.07,994.08,1.52,1.63,0.00,-4.95,0.52,18.22,0.16,-0.52,0.23,0.00
2026-06-26 19:04:53.537,994.07,994.08,1.52,1.63,0.00,-4.95,0.52,18.22,0.16,-0.52,0.23,0.00
2026-06-26 19:04:53.541,994.07,994.08,1.52,1.63,0.00,-4.95,0.52,18.22,0.73,-0.67,0.28,0.00
2026-06-26 19:04:53.542,994.07,994.08,1.52,1.63,0.00,1.64,4.32,-1.08,0.73,-0.67,0.28,0.00
2026-06-26 19:04:53.543,994.07,994.08,1.52,1.63,0.00,1.64,4.32,-1.08,0.73,-0.67,0.28,0.00
2026-06-26 19:04:53.545,994.07,994.08,1.52,1.63,0.00,1.64,4.32,-1.08,0.73,-0.67,0.28,0.00
2026-06-26 19:04:53.548,994.07,994.08,1.52,1.63,0.00,1.64,4.32,-1.08,0.73,-0.67,0.28,0.00
2026-06-26 19:04:53.591,994.08,994.08,0.84,1.22,0.00,-2.58,-5.43,3.06,0.21,-0.13,0.13,0.00
2026-06-26 19:04:53.593,994.08,994.08,0.84,1.22,0.00,3.94,-6.12,2.89,0.21,-0.13,0.13,0.00
2026-06-26 19:04:53.594,994.08,994.08,0.84,1.22,0.00,3.94,-6.12,2.89,0.21,-0.13,0.13,0.00
2026-06-26 19:04:53.595,994.08,994.08,0.84,1.22,0.00,3.94,-6.12,2.89,0.21,-0.13,0.13,0.00
2026-06-26 19:04:53.600,994.08,994.08,0.84,1.22,0.00,3.94,-6.12,2.89,0.21,-0.13,0.13,0.00
2026-06-26 19:04:53.603,994.08,994.08,0.84,1.22,0.00,-2.64,3.37,0.86,0.07,-0.28,0.21,0.00
2026-06-26 19:04:53.604,994.08,994.08,0.84,1.22,0.00,-2.64,3.37,0.86,0.07,-0.28,0.21,0.00
2026-06-26 19:04:53.605,994.08,994.08,0.84,1.22,0.00,-2.64,3.37,0.86,0.07,-0.28,0.21,0.00
2026-06-26 19:04:53.607,994.08,994.08,0.84,1.22,0.00,-2.64,3.37,0.86,0.07,-0.28,0.21,0.00
2026-06-26 19:04:53.608,994.08,994.08,0.84,1.22,0.00,-2.64,3.37,0.86,0.07,-0.28,0.21,0.00
2026-06-26 19:04:53.611,994.08,994.08,0.84,1.22,0.00,-2.64,3.37,0.86,0.07,-0.28,0.21,0.00
2026-06-26 19:04:53.612,994.08,994.08,0.84,1.22,0.00,-3.60,-2.98,8.70,0.11,-0.20,0.18,0.00
2026-06-26 19:04:53.614,994.08,994.08,0.84,1.22,0.00,-3.60,-2.98,8.70,0.11,-0.20,0.18,0.00
2026-06-26 19:04:53.615,994.08,994.08,0.84,1.22,0.00,-3.60,-2.98,8.70,0.11,-0.20,0.18,0.00
2026-06-26 19:04:53.616,994.08,994.08,0.84,1.22,0.00,-3.60,-2.98,8.70,0.11,-0.20,0.18,0.00
2026-06-26 19:04:53.617,994.08,994.08,0.84,1.22,0.00,-3.60,-2.98,8.70,0.11,-0.20,0.18,0.00
2026-06-26 19:04:53.618,994.08,994.08,0.84,1.22,0.00,-3.60,-2.98,8.70,0.11,-0.20,0.18,0.00
2026-06-26 19:04:53.620,994.08,994.08,0.84,1.22,0.00,-3.60,-2.98,8.70,0.11,-0.20,0.18,0.00
2026-06-26 19:04:53.621,994.08,994.08,0.84,1.22,0.00,-3.60,-2.98,8.70,0.02,-0.11,0.17,0.00
2026-06-26 19:04:53.623,994.08,994.08,0.84,1.22,0.00,1.53,-4.36,4.24,0.02,-0.11,0.17,0.00
2026-06-26 19:04:53.625,994.08,994.08,0.84,1.22,0.00,1.53,-4.36,4.24,0.02,-0.11,0.17,0.00
2026-06-26 19:04:53.626,994.08,994.08,0.84,1.22,0.00,1.53,-4.36,4.24,0.02,-0.11,0.17,0.00
2026-06-26 19:04:53.627,994.08,994.08,0.84,1.22,0.00,1.53,-4.36,4.24,0.02,-0.11,0.17,0.00
2026-06-26 19:04:53.628,994.08,994.08,0.84,1.22,0.00,1.53,-4.36,4.24,0.02,-0.11,0.17,0.00
2026-06-26 19:04:53.631,994.08,994.08,0.84,1.22,0.00,1.53,-4.36,4.24,-0.11,-0.14,0.17,0.00
2026-06-26 19:04:53.633,994.08,994.08,0.84,1.22,0.00,4.72,-4.50,9.83,-0.11,-0.14,0.17,0.00
2026-06-26 19:04:53.634,994.08,994.08,0.84,1.22,0.00,4.72,-4.50,9.83,-0.11,-0.14,0.17,0.00
2026-06-26 19:04:53.679,994.08,994.07,-0.13,-0.48,0.00,-3.69,-2.09,6.43,-0.37,-0.03,0.25,0.00
2026-06-26 19:04:53.682,994.08,994.07,-0.13,-0.48,0.00,12.03,-6.70,4.78,-0.50,0.20,0.22,0.00
2026-06-26 19:04:53.683,994.08,994.07,-0.13,-0.48,0.00,12.03,-6.70,4.78,-0.50,0.20,0.22,0.00
2026-06-26 19:04:53.684,994.08,994.07,-0.13,-0.48,0.00,12.03,-6.70,4.78,-0.50,0.20,0.22,0.00
2026-06-26 19:04:53.685,994.08,994.07,-0.13,-0.48,0.00,12.03,-6.70,4.78,-0.50,0.20,0.22,0.00
2026-06-26 19:04:53.690,994.08,994.07,-0.13,-0.48,0.00,12.03,-6.70,4.78,-0.50,0.20,0.22,0.00
2026-06-26 19:04:53.734,994.07,994.07,0.25,0.66,0.00,-11.67,-2.53,1.92,0.52,-0.35,0.11,0.00
2026-06-26 19:04:53.735,994.07,994.07,0.25,0.66,0.00,-11.67,-2.53,1.92,0.52,-0.35,0.11,0.00
2026-06-26 19:04:53.738,994.07,994.07,0.25,0.66,0.00,-11.67,-2.53,1.92,0.52,-0.35,0.11,0.00
2026-06-26 19:04:53.742,994.07,994.07,0.25,0.66,0.00,-11.67,-2.53,1.92,0.42,0.02,-0.17,0.00
2026-06-26 19:04:53.743,994.07,994.07,0.25,0.66,0.00,-15.55,6.62,2.71,0.42,0.02,-0.17,0.00
2026-06-26 19:04:53.744,994.07,994.07,0.25,0.66,0.00,-15.55,6.62,2.71,0.42,0.02,-0.17,0.00
2026-06-26 19:04:53.746,994.07,994.07,0.25,0.66,0.00,-15.55,6.62,2.71,0.42,0.02,-0.17,0.00
2026-06-26 19:04:53.751,994.07,994.07,0.25,0.66,0.00,-15.55,6.62,2.71,0.37,0.11,-0.24,0.00
2026-06-26 19:04:53.753,994.07,994.07,0.25,0.66,0.00,10.38,-3.15,0.44,0.37,0.11,-0.24,0.00
2026-06-26 19:04:53.754,994.07,994.07,0.25,0.66,0.00,10.38,-3.15,0.44,0.37,0.11,-0.24,0.00
2026-06-26 19:04:53.755,994.07,994.07,0.25,0.66,0.00,10.38,-3.15,0.44,0.37,0.11,-0.24,0.00
2026-06-26 19:04:53.756,994.07,994.07,0.25,0.66,0.00,10.38,-3.15,0.44,0.37,0.11,-0.24,0.00
2026-06-26 19:04:53.758,994.07,994.07,0.25,0.66,0.00,10.38,-3.15,0.44,0.37,0.11,-0.24,0.00
2026-06-26 19:04:53.759,994.07,994.07,0.25,0.66,0.00,10.38,-3.15,0.44,0.37,0.11,-0.24,0.00
2026-06-26 19:04:53.760,994.07,994.07,0.25,0.66,0.00,10.38,-3.15,0.44,0.37,0.11,-0.24,0.00
2026-06-26 19:04:53.765,994.07,994.07,0.25,0.66,0.00,-2.05,1.87,3.70,0.26,-0.14,-0.08,0.00
2026-06-26 19:04:53.766,994.07,994.07,0.25,0.66,0.00,-2.05,1.87,3.70,0.26,-0.14,-0.08,0.00
2026-06-26 19:04:53.767,994.07,994.07,0.25,0.66,0.00,-2.05,1.87,3.70,0.26,-0.14,-0.08,0.00
2026-06-26 19:04:53.769,994.07,994.07,0.25,0.66,0.00,-2.05,1.87,3.70,0.26,-0.14,-0.08,0.00
2026-06-26 19:04:53.770,994.07,994.07,0.25,0.66,0.00,-2.05,1.87,3.70,0.26,-0.14,-0.08,0.00
2026-06-26 19:04:53.771,994.07,994.07,0.25,0.66,0.00,-2.05,1.87,3.70,0.21,-0.16,0.07,0.00
2026-06-26 19:04:53.772,994.07,994.07,0.25,0.66,0.00,5.38,-2.48,5.22,0.21,-0.16,0.07,0.00
2026-06-26 19:04:53.774,994.07,994.07,0.25,0.66,0.00,5.38,-2.48,5.22,0.21,-0.16,0.07,0.00
2026-06-26 19:04:53.775,994.07,994.07,0.25,0.66,0.00,5.38,-2.48,5.22,0.21,-0.16,0.07,0.00
2026-06-26 19:04:53.817,994.07,994.07,0.33,0.76,0.00,5.85,-0.96,0.22,-0.17,0.10,0.13,0.00
2026-06-26 19:04:53.818,994.07,994.07,0.33,0.76,0.00,5.85,-0.96,0.22,-0.17,0.10,0.13,0.00
2026-06-26 19:04:53.819,994.07,994.07,0.33,0.76,0.00,5.85,-0.96,0.22,-0.17,0.10,0.13,0.00
2026-06-26 19:04:53.821,994.07,994.07,0.33,0.76,0.00,5.85,-0.96,0.22,-0.17,0.10,0.13,0.00
2026-06-26 19:04:53.822,994.07,994.07,0.33,0.76,0.00,1.10,-1.68,6.42,-0.24,0.14,0.22,0.00
2026-06-26 19:04:53.823,994.07,994.07,0.33,0.76,0.00,1.10,-1.68,6.42,-0.24,0.14,0.22,0.00
2026-06-26 19:04:53.825,994.07,994.07,0.33,0.76,0.00,1.10,-1.68,6.42,-0.24,0.14,0.22,0.00
2026-06-26 19:04:53.827,994.07,994.07,0.33,0.76,0.00,1.10,-1.68,6.42,-0.24,0.14,0.22,0.00
2026-06-26 19:04:53.831,994.07,994.07,0.33,0.76,0.00,1.10,-1.68,6.42,-0.37,0.20,0.26,0.00
2026-06-26 19:04:53.833,994.07,994.07,0.33,0.76,0.00,4.53,-5.59,6.75,-0.37,0.20,0.26,0.00
2026-06-26 19:04:53.874,994.06,994.07,1.46,1.60,0.00,-9.67,-0.46,4.91,0.38,0.05,-0.16,0.00
2026-06-26 19:04:53.878,994.06,994.07,1.46,1.60,0.00,-9.67,-0.46,4.91,0.38,0.05,-0.16,0.00
2026-06-26 19:04:53.882,994.06,994.07,1.46,1.60,0.00,-9.67,-0.46,4.91,0.21,0.31,-0.28,0.00
2026-06-26 19:04:53.883,994.06,994.07,1.46,1.60,0.00,3.71,0.50,1.95,0.21,0.31,-0.28,0.00
2026-06-26 19:04:53.885,994.06,994.07,1.46,1.60,0.00,3.71,0.50,1.95,0.21,0.31,-0.28,0.00
2026-06-26 19:04:53.886,994.06,994.07,1.46,1.60,0.00,3.71,0.50,1.95,0.21,0.31,-0.28,0.00
2026-06-26 19:04:53.891,994.06,994.07,1.46,1.60,0.00,3.71,0.50,1.95,0.21,0.31,-0.28,0.00
2026-06-26 19:04:53.892,994.06,994.07,1.46,1.60,0.00,5.92,-0.77,0.63,0.06,0.15,-0.14,0.00
2026-06-26 19:04:53.895,994.06,994.07,1.46,1.60,0.00,5.92,-0.77,0.63,0.06,0.15,-0.14,0.00
2026-06-26 19:04:53.902,994.06,994.07,1.46,1.60,0.00,5.92,-0.77,0.63,0.06,0.15,-0.14,0.00
2026-06-26 19:04:53.903,994.06,994.07,1.46,1.60,0.00,-1.99,0.29,3.12,-0.04,-0.05,0.08,0.00
2026-06-26 19:04:53.904,994.06,994.07,1.46,1.60,0.00,-1.99,0.29,3.12,-0.04,-0.05,0.08,0.00
2026-06-26 19:04:53.907,994.06,994.07,1.46,1.60,0.00,-1.99,0.29,3.12,-0.04,-0.05,0.08,0.00
2026-06-26 19:04:53.909,994.06,994.07,1.46,1.60,0.00,-1.99,0.29,3.12,-0.04,-0.05,0.08,0.00
2026-06-26 19:04:53.910,994.06,994.07,1.46,1.60,0.00,-1.99,0.29,3.12,-0.04,-0.05,0.08,0.00
2026-06-26 19:04:53.911,994.06,994.07,1.46,1.60,0.00,-1.99,0.29,3.12,-0.04,-0.05,0.08,0.00
2026-06-26 19:04:53.913,994.06,994.07,1.46,1.60,0.00,-5.22,-0.11,5.48,-0.09,-0.02,0.08,0.00
2026-06-26 19:04:53.914,994.06,994.07,1.46,1.60,0.00,-5.22,-0.11,5.48,-0.09,-0.02,0.08,0.00
2026-06-26 19:04:53.915,994.06,994.07,1.46,1.60,0.00,-5.22,-0.11,5.48,-0.09,-0.02,0.08,0.00
2026-06-26 19:04:53.916,994.06,994.07,1.46,1.60,0.00,-5.22,-0.11,5.48,-0.09,-0.02,0.08,0.00
2026-06-26 19:04:53.957,994.06,994.07,1.02,1.34,0.00,-1.00,-1.13,13.36,0.20,-0.13,-0.08,0.00
2026-06-26 19:04:53.959,994.06,994.07,1.02,1.34,0.00,-1.00,-1.13,13.36,0.20,-0.13,-0.08,0.00
2026-06-26 19:04:53.960,994.06,994.07,1.02,1.34,0.00,-1.00,-1.13,13.36,0.20,-0.13,-0.08,0.00
2026-06-26 19:04:53.962,994.06,994.07,1.02,1.34,0.00,-1.00,-1.13,13.36,0.22,-0.18,-0.01,0.00
2026-06-26 19:04:53.964,994.06,994.07,1.02,1.34,0.00,-0.85,1.75,4.05,0.22,-0.18,-0.01,0.00
2026-06-26 19:04:53.965,994.06,994.07,1.02,1.34,0.00,-0.85,1.75,4.05,0.22,-0.18,-0.01,0.00
2026-06-26 19:04:53.966,994.06,994.07,1.02,1.34,0.00,-0.85,1.75,4.05,0.22,-0.18,-0.01,0.00
2026-06-26 19:04:53.967,994.06,994.07,1.02,1.34,0.00,-0.85,1.75,4.05,0.22,-0.18,-0.01,0.00
2026-06-26 19:04:53.968,994.06,994.07,1.02,1.34,0.00,-0.85,1.75,4.05,0.22,-0.18,-0.01,0.00
2026-06-26 19:04:53.970,994.06,994.07,1.02,1.34,0.00,-0.85,1.75,4.05,0.22,-0.18,-0.01,0.00
2026-06-26 19:04:53.971,994.06,994.07,1.02,1.34,0.00,-0.85,1.75,4.05,0.22,-0.18,-0.01,0.00
2026-06-26 19:04:53.972,994.06,994.07,1.02,1.34,0.00,-0.85,1.75,4.05,0.10,-0.06,-0.07,0.00
2026-06-26 19:04:53.974,994.06,994.07,1.02,1.34,0.00,-2.15,-3.05,1.33,0.10,-0.06,-0.07,0.00
2026-06-26 19:04:54.016,994.07,994.07,0.26,0.68,0.00,4.52,3.83,32.29,-0.16,-0.09,0.06,0.00
2026-06-26 19:04:54.018,994.07,994.07,0.26,0.68,0.00,4.52,3.83,32.29,-0.16,-0.09,0.06,0.00
2026-06-26 19:04:54.019,994.07,994.07,0.26,0.68,0.00,4.52,3.83,32.29,-0.16,-0.09,0.06,0.00
2026-06-26 19:04:54.021,994.07,994.07,0.26,0.68,0.00,4.52,3.83,32.29,-0.16,-0.09,0.06,0.00
2026-06-26 19:04:54.023,994.07,994.07,0.26,0.68,0.00,-4.56,3.62,19.75,0.04,-0.17,0.04,0.00
2026-06-26 19:04:54.024,994.07,994.07,0.26,0.68,0.00,-4.56,3.62,19.75,0.04,-0.17,0.04,0.00
2026-06-26 19:04:54.025,994.07,994.07,0.26,0.68,0.00,-4.56,3.62,19.75,0.04,-0.17,0.04,0.00
2026-06-26 19:04:54.026,994.07,994.07,0.26,0.68,0.00,-4.56,3.62,19.75,0.04,-0.17,0.04,0.00
2026-06-26 19:04:54.032,994.07,994.07,0.26,0.68,0.00,-4.56,3.62,19.75,0.04,-0.17,0.04,0.00
2026-06-26 19:04:54.033,994.07,994.07,0.26,0.68,0.00,2.64,0.40,0.33,0.16,0.04,-0.04,0.00
2026-06-26 19:04:54.034,994.07,994.07,0.26,0.68,0.00,2.64,0.40,0.33,0.16,0.04,-0.04,0.00
2026-06-26 19:04:54.035,994.07,994.07,0.26,0.68,0.00,2.64,0.40,0.33,0.16,0.04,-0.04,0.00
2026-06-26 19:04:54.036,994.07,994.07,0.26,0.68,0.00,2.64,0.40,0.33,0.16,0.04,-0.04,0.00
2026-06-26 19:04:54.039,994.07,994.07,0.26,0.68,0.00,2.64,0.40,0.33,0.16,0.04,-0.04,0.00
2026-06-26 19:04:54.042,994.07,994.07,0.26,0.68,0.00,2.64,0.40,0.33,0.13,0.22,-0.11,0.00
2026-06-26 19:04:54.044,994.07,994.07,0.26,0.68,0.00,6.50,-2.89,2.01,0.13,0.22,-0.11,0.00
2026-06-26 19:04:54.045,994.07,994.07,0.26,0.68,0.00,6.50,-2.89,2.01,0.13,0.22,-0.11,0.00
2026-06-26 19:04:54.046,994.07,994.07,0.26,0.68,0.00,6.50,-2.89,2.01,0.13,0.22,-0.11,0.00
2026-06-26 19:04:54.051,994.07,994.07,0.26,0.68,0.00,6.50,-2.89,2.01,0.13,0.22,-0.11,0.00
2026-06-26 19:04:54.053,994.07,994.07,0.26,0.68,0.00,6.51,-4.08,4.71,0.01,0.09,0.01,0.00
2026-06-26 19:04:54.054,994.07,994.07,0.26,0.68,0.00,6.51,-4.08,4.71,0.01,0.09,0.01,0.00
2026-06-26 19:04:54.055,994.07,994.07,0.26,0.68,0.00,6.51,-4.08,4.71,0.01,0.09,0.01,0.00
2026-06-26 19:04:54.056,994.07,994.07,0.26,0.68,0.00,6.51,-4.08,4.71,0.01,0.09,0.01,0.00
2026-06-26 19:04:54.102,994.07,994.07,-0.17,-0.55,0.00,-2.59,0.90,5.90,0.12,0.06,-0.02,0.00
2026-06-26 19:04:54.103,994.07,994.07,-0.17,-0.55,0.00,3.19,-4.11,4.25,0.08,0.16,-0.11,0.00
2026-06-26 19:04:54.105,994.07,994.07,-0.17,-0.55,0.00,3.19,-4.11,4.25,0.08,0.16,-0.11,0.00
2026-06-26 19:04:54.106,994.07,994.07,-0.17,-0.55,0.00,3.19,-4.11,4.25,0.08,0.16,-0.11,0.00
2026-06-26 19:04:54.107,994.07,994.07,-0.17,-0.55,0.00,3.19,-4.11,4.25,0.08,0.16,-0.11,0.00
2026-06-26 19:04:54.108,994.07,994.07,-0.17,-0.55,0.00,3.19,-4.11,4.25,0.08,0.16,-0.11,0.00
2026-06-26 19:04:54.110,994.07,994.07,-0.17,-0.55,0.00,3.19,-4.11,4.25,0.08,0.16,-0.11,0.00
2026-06-26 19:04:54.112,994.07,994.07,-0.17,-0.55,0.00,3.19,-4.11,4.25,0.08,0.16,-0.11,0.00
2026-06-26 19:04:54.114,994.07,994.07,-0.17,-0.55,0.00,5.00,-0.10,8.31,-0.05,0.05,-0.03,0.00
2026-06-26 19:04:54.115,994.07,994.07,-0.17,-0.55,0.00,5.00,-0.10,8.31,-0.05,0.05,-0.03,0.00
2026-06-26 19:04:54.158,994.07,994.07,-0.24,-0.65,0.00,3.76,1.21,6.71,0.00,0.05,-0.04,0.00
2026-06-26 19:04:54.160,994.07,994.07,-0.24,-0.65,0.00,3.76,1.21,6.71,0.00,0.05,-0.04,0.00
2026-06-26 19:04:54.161,994.07,994.07,-0.24,-0.65,0.00,3.76,1.21,6.71,0.00,0.05,-0.04,0.00
2026-06-26 19:04:54.162,994.07,994.07,-0.24,-0.65,0.00,3.76,1.21,6.71,-0.06,0.05,-0.08,0.00
2026-06-26 19:04:54.163,994.07,994.07,-0.24,-0.65,0.00,8.11,1.50,9.27,-0.06,0.05,-0.08,0.00
2026-06-26 19:04:54.165,994.07,994.07,-0.24,-0.65,0.00,8.11,1.50,9.27,-0.06,0.05,-0.08,0.00
2026-06-26 19:04:54.166,994.07,994.07,-0.24,-0.65,0.00,8.11,1.50,9.27,-0.06,0.05,-0.08,0.00
2026-06-26 19:04:54.167,994.07,994.07,-0.24,-0.65,0.00,8.11,1.50,9.27,-0.06,0.05,-0.08,0.00
2026-06-26 19:04:54.168,994.07,994.07,-0.24,-0.65,0.00,8.11,1.50,9.27,-0.06,0.05,-0.08,0.00
2026-06-26 19:04:54.169,994.07,994.07,-0.24,-0.65,0.00,8.11,1.50,9.27,-0.06,0.05,-0.08,0.00
2026-06-26 19:04:54.171,994.07,994.07,-0.24,-0.65,0.00,8.11,1.50,9.27,-0.06,0.05,-0.08,0.00
2026-06-26 19:04:54.172,994.07,994.07,-0.24,-0.65,0.00,8.11,1.50,9.27,-0.01,-0.08,-0.03,0.00
2026-06-26 19:04:54.173,994.07,994.07,-0.24,-0.65,0.00,0.08,0.31,11.07,-0.01,-0.08,-0.03,0.00
2026-06-26 19:04:54.175,994.07,994.07,-0.24,-0.65,0.00,0.08,0.31,11.07,-0.01,-0.08,-0.03,0.00
2026-06-26 19:04:54.176,994.07,994.07,-0.24,-0.65,0.00,0.08,0.31,11.07,-0.01,-0.08,-0.03,0.00
2026-06-26 19:04:54.177,994.07,994.07,-0.24,-0.65,0.00,0.08,0.31,11.07,-0.01,-0.08,-0.03,0.00
2026-06-26 19:04:54.178,994.07,994.07,-0.24,-0.65,0.00,0.08,0.31,11.07,-0.01,-0.08,-0.03,0.00
2026-06-26 19:04:54.181,994.07,994.07,-0.24,-0.65,0.00,0.08,0.31,11.07,-0.01,-0.08,-0.03,0.00
2026-06-26 19:04:54.183,994.07,994.07,-0.24,-0.65,0.00,-3.40,1.36,9.54,0.02,-0.14,0.02,0.00
2026-06-26 19:04:54.184,994.07,994.07,-0.24,-0.65,0.00,-3.40,1.36,9.54,0.02,-0.14,0.02,0.00
2026-06-26 19:04:54.185,994.07,994.07,-0.24,-0.65,0.00,-3.40,1.36,9.54,0.02,-0.14,0.02,0.00
2026-06-26 19:04:54.186,994.07,994.07,-0.24,-0.65,0.00,-3.40,1.36,9.54,0.02,-0.14,0.02,0.00
2026-06-26 19:04:54.192,994.07,994.07,-0.24,-0.65,0.00,-3.40,1.36,9.54,0.02,-0.14,0.02,0.00
2026-06-26 19:04:54.193,994.07,994.07,-0.24,-0.65,0.00,-3.46,-0.43,6.89,0.02,-0.03,0.02,0.00
2026-06-26 19:04:54.195,994.07,994.07,-0.24,-0.65,0.00,-3.46,-0.43,6.89,0.02,-0.03,0.02,0.00
2026-06-26 19:04:54.197,994.07,994.07,-0.24,-0.65,0.00,-3.46,-0.43,6.89,0.02,-0.03,0.02,0.00
2026-06-26 19:04:54.243,994.07,994.07,-0.15,-0.51,0.00,-2.79,-1.97,7.82,-0.03,0.04,-0.05,0.00
2026-06-26 19:04:54.244,994.07,994.07,-0.15,-0.51,0.00,-0.75,0.06,8.82,-0.03,0.04,-0.05,0.00
2026-06-26 19:04:54.245,994.07,994.07,-0.15,-0.51,0.00,-0.75,0.06,8.82,-0.03,0.04,-0.05,0.00
2026-06-26 19:04:54.247,994.07,994.07,-0.15,-0.51,0.00,-0.75,0.06,8.82,-0.03,0.04,-0.05,0.00
2026-06-26 19:04:54.252,994.07,994.07,-0.15,-0.51,0.00,-0.75,0.06,8.82,-0.03,0.04,-0.05,0.00
2026-06-26 19:04:54.254,994.07,994.07,-0.15,-0.51,0.00,3.59,0.84,9.94,-0.03,0.09,-0.06,0.00
2026-06-26 19:04:54.255,994.07,994.07,-0.15,-0.51,0.00,3.59,0.84,9.94,-0.03,0.09,-0.06,0.00
2026-06-26 19:04:54.256,994.07,994.07,-0.15,-0.51,0.00,3.59,0.84,9.94,-0.03,0.09,-0.06,0.00
2026-06-26 19:04:54.257,994.07,994.07,-0.15,-0.51,0.00,3.59,0.84,9.94,-0.03,0.09,-0.06,0.00
2026-06-26 19:04:54.303,994.07,994.07,-0.77,-1.16,0.00,2.63,-0.03,9.57,0.00,0.05,-0.05,0.00
2026-06-26 19:04:54.304,994.07,994.07,-0.77,-1.16,0.00,4.95,0.67,9.71,0.00,0.05,-0.05,0.00
2026-06-26 19:04:54.305,994.07,994.07,-0.77,-1.16,0.00,4.95,0.67,9.71,0.00,0.05,-0.05,0.00
2026-06-26 19:04:54.307,994.07,994.07,-0.77,-1.16,0.00,4.95,0.67,9.71,0.00,0.05,-0.05,0.00
2026-06-26 19:04:54.308,994.07,994.07,-0.77,-1.16,0.00,4.95,0.67,9.71,0.00,0.05,-0.05,0.00
2026-06-26 19:04:54.309,994.07,994.07,-0.77,-1.16,0.00,4.95,0.67,9.71,0.00,0.05,-0.05,0.00
2026-06-26 19:04:54.310,994.07,994.07,-0.77,-1.16,0.00,4.95,0.67,9.71,0.00,0.05,-0.05,0.00
2026-06-26 19:04:54.314,994.07,994.07,-0.77,-1.16,0.00,4.95,0.67,9.71,0.02,-0.03,-0.02,0.00
2026-06-26 19:04:54.316,994.07,994.07,-0.77,-1.16,0.00,2.83,0.35,9.30,0.02,-0.03,-0.02,0.00
2026-06-26 19:04:54.317,994.07,994.07,-0.77,-1.16,0.00,2.83,0.35,9.30,0.02,-0.03,-0.02,0.00
2026-06-26 19:04:54.318,994.07,994.07,-0.77,-1.16,0.00,2.83,0.35,9.30,0.02,-0.03,-0.02,0.00
2026-06-26 19:04:54.320,994.07,994.07,-0.77,-1.16,0.00,2.83,0.35,9.30,0.02,-0.03,-0.02,0.00
2026-06-26 19:04:54.323,994.07,994.07,-0.77,-1.16,0.00,2.83,0.35,9.30,-0.00,-0.07,0.00,0.00
2026-06-26 19:04:54.325,994.07,994.07,-0.77,-1.16,0.00,-0.15,-0.57,8.75,-0.00,-0.07,0.00,0.00
2026-06-26 19:04:54.326,994.07,994.07,-0.77,-1.16,0.00,-0.15,-0.57,8.75,-0.00,-0.07,0.00,0.00
2026-06-26 19:04:54.327,994.07,994.07,-0.77,-1.16,0.00,-0.15,-0.57,8.75,-0.00,-0.07,0.00,0.00
2026-06-26 19:04:54.328,994.07,994.07,-0.77,-1.16,0.00,-0.15,-0.57,8.75,-0.00,-0.07,0.00,0.00
2026-06-26 19:04:54.333,994.07,994.07,-0.77,-1.16,0.00,-0.15,-0.57,8.75,-0.03,-0.04,0.01,0.00
2026-06-26 19:04:54.334,994.07,994.07,-0.77,-1.16,0.00,-1.19,1.32,9.79,-0.03,-0.04,0.01,0.00
2026-06-26 19:04:54.337,994.07,994.07,-0.77,-1.16,0.00,-1.19,1.32,9.79,-0.03,-0.04,0.01,0.00
2026-06-26 19:04:54.342,994.07,994.07,-0.77,-1.16,0.00,-1.19,1.32,9.79,-0.03,-0.04,0.01,0.00
2026-06-26 19:04:54.384,994.07,994.07,-0.94,-1.29,0.00,0.70,0.02,9.23,-0.00,0.00,-0.01,0.00
2026-06-26 19:04:54.385,994.07,994.07,-0.94,-1.29,0.00,0.70,0.02,9.23,-0.00,0.00,-0.01,0.00
2026-06-26 19:04:54.387,994.07,994.07,-0.94,-1.29,0.00,0.70,0.02,9.23,-0.00,0.00,-0.01,0.00
2026-06-26 19:04:54.393,994.07,994.07,-0.94,-1.29,0.00,0.70,0.02,9.23,0.02,0.03,-0.01,0.00
2026-06-26 19:04:54.395,994.07,994.07,-0.94,-1.29,0.00,2.04,0.38,9.44,0.02,0.03,-0.01,0.00
2026-06-26 19:04:54.397,994.07,994.07,-0.94,-1.29,0.00,2.04,0.38,9.44,0.02,0.03,-0.01,0.00
2026-06-26 19:04:54.403,994.07,994.07,-0.94,-1.29,0.00,2.04,0.38,9.44,0.02,0.03,-0.01,0.00
2026-06-26 19:04:54.446,994.07,994.07,-0.87,-1.24,0.00,2.03,-0.78,9.01,0.01,0.02,-0.01,0.00
2026-06-26 19:04:54.452,994.07,994.07,-0.87,-1.24,0.00,2.03,-0.78,9.01,0.01,0.02,-0.01,0.00
2026-06-26 19:04:54.454,994.07,994.07,-0.87,-1.24,0.00,1.83,0.09,9.34,-0.00,-0.00,0.00,0.00
2026-06-26 19:04:54.455,994.07,994.07,-0.87,-1.24,0.00,1.83,0.09,9.34,-0.00,-0.00,0.00,0.00
2026-06-26 19:04:54.456,994.07,994.07,-0.87,-1.24,0.00,1.83,0.09,9.34,-0.00,-0.00,0.00,0.00
2026-06-26 19:04:54.457,994.07,994.07,-0.87,-1.24,0.00,1.83,0.09,9.34,-0.00,-0.00,0.00,0.00
2026-06-26 19:04:54.459,994.07,994.07,-0.87,-1.24,0.00,1.83,0.09,9.34,-0.00,-0.00,0.00,0.00
2026-06-26 19:04:54.460,994.07,994.07,-0.87,-1.24,0.00,1.83,0.09,9.34,-0.00,-0.00,0.00,0.00
2026-06-26 19:04:54.464,994.07,994.07,-0.87,-1.24,0.00,0.90,0.51,9.13,-0.01,-0.02,0.00,0.00
2026-06-26 19:04:54.467,994.07,994.07,-0.87,-1.24,0.00,0.90,0.51,9.13,-0.01,-0.02,0.00,0.00
2026-06-26 19:04:54.473,994.07,994.07,-0.87,-1.24,0.00,0.90,0.51,9.13,-0.01,-0.02,0.00,0.00
2026-06-26 19:04:54.474,994.07,994.07,-0.87,-1.24,0.00,0.83,-0.35,8.68,0.01,-0.00,-0.00,0.00
2026-06-26 19:04:54.476,994.07,994.07,-0.87,-1.24,0.00,0.83,-0.35,8.68,0.01,-0.00,-0.00,0.00
2026-06-26 19:04:54.482,994.07,994.07,-0.87,-1.24,0.00,0.83,-0.35,8.68,0.01,-0.00,-0.00,0.00
2026-06-26 19:04:54.484,994.07,994.07,-0.87,-1.24,0.00,1.80,0.13,9.10,0.01,0.01,-0.01,0.00
2026-06-26 19:04:54.528,994.07,994.06,-0.92,-1.27,0.00,1.76,0.67,9.15,0.00,0.01,-0.01,0.00
2026-06-26 19:04:54.533,994.07,994.06,-0.92,-1.27,0.00,1.76,0.67,9.15,0.00,0.01,-0.01,0.00
2026-06-26 19:04:54.534,994.07,994.06,-0.92,-1.27,0.00,1.54,-0.19,9.26,0.00,0.00,-0.01,0.00
2026-06-26 19:04:54.535,994.07,994.06,-0.92,-1.27,0.00,1.54,-0.19,9.26,0.00,0.00,-0.01,0.00
2026-06-26 19:04:54.540,994.07,994.06,-0.92,-1.27,0.00,1.54,-0.19,9.26,0.00,0.00,-0.01,0.00
2026-06-26 19:04:54.543,994.07,994.06,-0.92,-1.27,0.00,1.54,-0.19,9.26,-0.00,-0.01,0.00,0.00
2026-06-26 19:04:54.545,994.07,994.06,-0.92,-1.27,0.00,1.20,0.53,9.48,-0.00,-0.01,0.00,0.00
2026-06-26 19:04:54.590,994.08,994.06,-1.09,-1.39,0.00,1.15,0.37,9.39,-0.00,-0.01,0.00,0.00
2026-06-26 19:04:54.593,994.08,994.06,-1.09,-1.39,0.00,1.15,0.37,9.39,0.00,-0.00,0.00,0.00
2026-06-26 19:04:54.595,994.08,994.06,-1.09,-1.39,0.00,1.20,-0.19,9.09,0.00,-0.00,0.00,0.00
2026-06-26 19:04:54.596,994.08,994.06,-1.09,-1.39,0.00,1.20,-0.19,9.09,0.00,-0.00,0.00,0.00
2026-06-26 19:04:54.597,994.08,994.06,-1.09,-1.39,0.00,1.20,-0.19,9.09,0.00,-0.00,0.00,0.00
2026-06-26 19:04:54.603,994.08,994.06,-1.09,-1.39,0.00,1.20,-0.19,9.09,0.00,-0.00,0.00,0.00
2026-06-26 19:04:54.604,994.08,994.06,-1.09,-1.39,0.00,1.77,0.43,9.30,0.00,0.00,-0.00,0.00
2026-06-26 19:04:54.606,994.08,994.06,-1.09,-1.39,0.00,1.77,0.43,9.30,0.00,0.00,-0.00,0.00
2026-06-26 19:04:54.607,994.08,994.06,-1.09,-1.39,0.00,1.77,0.43,9.30,0.00,0.00,-0.00,0.00
2026-06-26 19:04:54.608,994.08,994.06,-1.09,-1.39,0.00,1.77,0.43,9.30,0.00,0.00,-0.00,0.00
2026-06-26 19:04:54.609,994.08,994.06,-1.09,-1.39,0.00,1.77,0.43,9.30,0.00,0.00,-0.00,0.00
2026-06-26 19:04:54.613,994.08,994.06,-1.09,-1.39,0.00,1.77,0.43,9.30,0.00,0.00,-0.00,0.00
2026-06-26 19:04:54.616,994.08,994.06,-1.09,-1.39,0.00,1.48,0.27,9.27,-0.00,0.00,-0.00,0.00
2026-06-26 19:04:54.623,994.08,994.06,-1.09,-1.39,0.00,1.48,0.27,9.27,-0.00,0.00,-0.00,0.00
2026-06-26 19:04:54.625,994.08,994.06,-1.09,-1.39,0.00,1.42,-0.21,9.17,0.00,-0.00,0.00,0.00
2026-06-26 19:04:54.673,994.08,994.06,-1.09,-1.39,0.00,1.40,0.20,9.28,0.00,0.00,-0.00,0.00
2026-06-26 19:04:54.674,994.08,994.06,-1.09,-1.39,0.00,1.30,0.22,9.16,-0.00,-0.01,0.00,0.00
2026-06-26 19:04:54.676,994.08,994.06,-1.09,-1.39,0.00,1.30,0.22,9.16,-0.00,-0.01,0.00,0.00
2026-06-26 19:04:54.678,994.08,994.06,-1.09,-1.39,0.00,1.30,0.22,9.16,-0.00,-0.01,0.00,0.00
2026-06-26 19:04:54.684,994.08,994.06,-1.09,-1.39,0.00,1.30,0.22,9.16,0.00,0.00,0.00,0.00
2026-06-26 19:04:54.685,994.08,994.06,-1.09,-1.39,0.00,1.48,0.00,9.04,0.00,0.00,0.00,0.00
2026-06-26 19:04:54.687,994.08,994.06,-1.09,-1.39,0.00,1.48,0.00,9.04,0.00,0.00,0.00,0.00
2026-06-26 19:04:54.725,994.08,994.06,-1.09,-1.39,0.00,1.35,0.33,9.28,0.00,-0.01,0.00,0.00
2026-06-26 19:04:54.731,994.08,994.06,-1.09,-1.39,0.00,1.35,0.33,9.28,0.00,-0.01,0.00,0.00
2026-06-26 19:04:54.734,994.08,994.06,-1.09,-1.39,0.00,1.35,0.33,9.28,0.00,0.00,-0.00,0.00
2026-06-26 19:04:54.736,994.08,994.06,-1.09,-1.39,0.00,1.56,0.30,9.23,0.00,0.00,-0.00,0.00
2026-06-26 19:04:54.738,994.08,994.06,-1.09,-1.39,0.00,1.56,0.30,9.23,0.00,0.00,-0.00,0.00
2026-06-26 19:04:54.743,994.08,994.06,-1.09,-1.39,0.00,1.56,0.30,9.23,0.00,0.00,-0.00,0.00
2026-06-26 19:04:54.746,994.08,994.06,-1.09,-1.39,0.00,1.73,-0.01,9.14,0.00,0.00,-0.00,0.00
2026-06-26 19:04:54.754,994.08,994.06,-1.09,-1.39,0.00,1.73,-0.01,9.14,0.00,0.00,-0.00,0.00
2026-06-26 19:04:54.757,994.08,994.06,-1.09,-1.39,0.00,1.16,0.34,9.34,0.00,-0.01,0.00,0.00
2026-06-26 19:04:54.759,994.08,994.06,-1.09,-1.39,0.00,1.16,0.34,9.34,0.00,-0.01,0.00,0.00
2026-06-26 19:04:54.764,994.08,994.06,-1.09,-1.39,0.00,1.16,0.34,9.34,0.00,-0.00,-0.00,0.00
2026-06-26 19:04:54.765,994.08,994.06,-1.09,-1.39,0.00,1.28,0.26,9.25,0.00,-0.00,-0.00,0.00
2026-06-26 19:04:54.767,994.08,994.06,-1.09,-1.39,0.00,1.28,0.26,9.25,0.00,-0.00,-0.00,0.00
2026-06-26 19:04:54.774,994.08,994.06,-1.09,-1.39,0.00,1.28,0.26,9.25,0.00,0.00,0.00,0.00
2026-06-26 19:04:54.816,994.08,994.06,-1.41,-1.57,0.00,1.33,0.18,9.17,0.00,-0.00,-0.00,0.00
2026-06-26 19:04:54.817,994.08,994.06,-1.41,-1.57,0.00,1.33,0.18,9.17,0.00,-0.00,-0.00,0.00
2026-06-26 19:04:54.819,994.08,994.06,-1.41,-1.57,0.00,1.33,0.18,9.17,0.00,-0.00,-0.00,0.00
2026-06-26 19:04:54.824,994.08,994.06,-1.41,-1.57,0.00,1.33,0.18,9.17,-0.00,0.00,-0.00,0.00
2026-06-26 19:04:54.865,994.08,994.06,-1.54,-1.65,0.00,1.46,0.18,9.16,0.00,0.00,-0.00,0.00
2026-06-26 19:04:54.866,994.08,994.06,-1.54,-1.65,0.00,1.39,0.14,9.21,0.00,0.00,-0.00,0.00
2026-06-26 19:04:54.868,994.08,994.06,-1.54,-1.65,0.00,1.39,0.14,9.21,0.00,0.00,-0.00,0.00
2026-06-26 19:04:54.874,994.08,994.06,-1.54,-1.65,0.00,1.39,0.14,9.21,0.00,-0.00,0.00,0.00
2026-06-26 19:04:54.876,994.08,994.06,-1.54,-1.65,0.00,1.28,0.27,9.27,0.00,-0.00,0.00,0.00
2026-06-26 19:04:54.878,994.08,994.06,-1.54,-1.65,0.00,1.28,0.27,9.27,0.00,-0.00,0.00,0.00
2026-06-26 19:04:54.881,994.08,994.06,-1.54,-1.65,0.00,1.28,0.27,9.27,0.00,-0.00,0.00,0.00
2026-06-26 19:04:54.884,994.08,994.06,-1.54,-1.65,0.00,1.28,0.27,9.27,0.00,-0.00,-0.00,0.00
2026-06-26 19:04:54.886,994.08,994.06,-1.54,-1.65,0.00,1.33,0.25,9.24,0.00,-0.00,-0.00,0.00
2026-06-26 19:04:54.887,994.08,994.06,-1.54,-1.65,0.00,1.33,0.25,9.24,0.00,-0.00,-0.00,0.00
2026-06-26 19:04:54.888,994.08,994.06,-1.54,-1.65,0.00,1.33,0.25,9.24,0.00,-0.00,-0.00,0.00
2026-06-26 19:04:54.890,994.08,994.06,-1.54,-1.65,0.00,1.33,0.25,9.24,0.00,-0.00,-0.00,0.00
2026-06-26 19:04:54.895,994.08,994.06,-1.54,-1.65,0.00,1.33,0.25,9.24,0.00,0.00,0.00,0.00
2026-06-26 19:04:54.896,994.08,994.06,-1.54,-1.65,0.00,1.53,0.10,9.17,0.00,0.00,0.00,0.00
2026-06-26 19:04:54.898,994.08,994.06,-1.54,-1.65,0.00,1.53,0.10,9.17,0.00,0.00,0.00,0.00
2026-06-26 19:04:54.899,994.08,994.06,-1.54,-1.65,0.00,1.53,0.10,9.17,0.00,0.00,0.00,0.00
2026-06-26 19:04:54.904,994.08,994.06,-1.54,-1.65,0.00,1.53,0.10,9.17,0.00,0.00,0.00,0.00
2026-06-26 19:04:54.905,994.08,994.06,-1.54,-1.65,0.00,1.46,0.27,9.25,-0.00,-0.00,0.00,0.00
2026-06-26 19:04:54.906,994.08,994.06,-1.54,-1.65,0.00,1.46,0.27,9.25,-0.00,-0.00,0.00,0.00
2026-06-26 19:04:54.908,994.08,994.06,-1.54,-1.65,0.00,1.46,0.27,9.25,-0.00,-0.00,0.00,0.00
2026-06-26 19:04:54.909,994.08,994.06,-1.54,-1.65,0.00,1.46,0.27,9.25,-0.00,-0.00,0.00,0.00
2026-06-26 19:04:54.910,994.08,994.06,-1.54,-1.65,0.00,1.46,0.27,9.25,-0.00,-0.00,0.00,0.00
2026-06-26 19:04:54.911,994.08,994.06,-1.54,-1.65,0.00,1.46,0.27,9.25,-0.00,-0.00,0.00,0.00
2026-06-26 19:04:54.913,994.08,994.06,-1.54,-1.65,0.00,1.46,0.27,9.25,-0.00,-0.00,0.00,0.00
2026-06-26 19:04:54.915,994.08,994.06,-1.54,-1.65,0.00,1.47,0.20,9.24,0.00,0.00,0.00,0.00
2026-06-26 19:04:54.955,994.08,994.06,-1.72,-1.74,0.00,1.52,0.22,9.24,0.00,0.00,0.00,0.00
2026-06-26 19:04:54.956,994.08,994.06,-1.72,-1.74,0.00,1.43,0.11,9.18,0.00,0.00,0.00,0.00
2026-06-26 19:04:54.958,994.08,994.06,-1.72,-1.74,0.00,1.43,0.11,9.18,0.00,0.00,0.00,0.00
2026-06-26 19:04:54.960,994.08,994.06,-1.72,-1.74,0.00,1.43,0.11,9.18,0.00,0.00,0.00,0.00
2026-06-26 19:04:54.961,994.08,994.06,-1.72,-1.74,0.00,1.43,0.11,9.18,0.00,0.00,0.00,0.00
2026-06-26 19:04:54.962,994.08,994.06,-1.72,-1.74,0.00,1.43,0.11,9.18,0.00,0.00,0.00,0.00
2026-06-26 19:04:55.005,994.08,994.06,-2.19,-1.96,0.00,1.42,0.13,9.17,0.00,-0.00,0.00,0.00
2026-06-26 19:04:55.006,994.08,994.06,-2.19,-1.96,0.00,1.42,0.13,9.17,0.00,-0.00,0.00,0.00
2026-06-26 19:04:55.007,994.08,994.06,-2.19,-1.96,0.00,1.42,0.13,9.17,0.00,-0.00,0.00,0.00
2026-06-26 19:04:55.009,994.08,994.06,-2.19,-1.96,0.00,1.42,0.13,9.17,0.00,-0.00,0.00,0.00
2026-06-26 19:04:55.010,994.08,994.06,-2.19,-1.96,0.00,1.42,0.13,9.17,0.00,-0.00,0.00,0.00
2026-06-26 19:04:55.011,994.08,994.06,-2.19,-1.96,0.00,1.42,0.13,9.17,0.00,-0.00,0.00,0.00
2026-06-26 19:04:55.012,994.08,994.06,-2.19,-1.96,0.00,1.42,0.13,9.17,0.00,-0.00,0.00,0.00
2026-06-26 19:04:55.014,994.08,994.06,-2.19,-1.96,0.00,1.42,0.13,9.17,0.00,0.00,0.00,0.00
2026-06-26 19:04:55.016,994.08,994.06,-2.19,-1.96,0.00,1.47,0.16,9.19,0.00,0.00,0.00,0.00
2026-06-26 19:04:55.017,994.08,994.06,-2.19,-1.96,0.00,1.47,0.16,9.19,0.00,0.00,0.00,0.00
2026-06-26 19:04:55.018,994.08,994.06,-2.19,-1.96,0.00,1.47,0.16,9.19,0.00,0.00,0.00,0.00
2026-06-26 19:04:55.019,994.08,994.06,-2.19,-1.96,0.00,1.47,0.16,9.19,0.00,0.00,0.00,0.00
2026-06-26 19:04:55.024,994.08,994.06,-2.19,-1.96,0.00,1.47,0.16,9.19,0.00,0.00,0.00,0.00
2026-06-26 19:04:55.025,994.08,994.06,-2.19,-1.96,0.00,1.45,0.24,9.25,0.00,0.00,0.00,0.00
2026-06-26 19:04:55.026,994.08,994.06,-2.19,-1.96,0.00,1.45,0.24,9.25,0.00,0.00,0.00,0.00
2026-06-26 19:04:55.028,994.08,994.06,-2.19,-1.96,0.00,1.45,0.24,9.25,0.00,0.00,0.00,0.00
2026-06-26 19:04:55.029,994.08,994.06,-2.19,-1.96,0.00,1.45,0.24,9.25,0.00,0.00,0.00,0.00
2026-06-26 19:04:55.034,994.08,994.06,-2.19,-1.96,0.00,1.45,0.24,9.25,0.00,0.00,0.00,0.00
2026-06-26 19:04:55.036,994.08,994.06,-2.19,-1.96,0.00,1.44,0.15,9.17,0.00,-0.00,-0.00,0.00
2026-06-26 19:04:55.037,994.08,994.06,-2.19,-1.96,0.00,1.44,0.15,9.17,0.00,-0.00,-0.00,0.00
2026-06-26 19:04:55.038,994.08,994.06,-2.19,-1.96,0.00,1.44,0.15,9.17,0.00,-0.00,-0.00,0.00
2026-06-26 19:04:55.039,994.08,994.06,-2.19,-1.96,0.00,1.44,0.15,9.17,0.00,-0.00,-0.00,0.00
2026-06-26 19:04:55.043,994.08,994.06,-2.19,-1.96,0.00,1.44,0.15,9.17,0.00,-0.00,-0.00,0.00
2026-06-26 19:04:55.045,994.08,994.06,-2.19,-1.96,0.00,1.39,0.21,9.22,0.00,-0.00,-0.00,0.00
2026-06-26 19:04:55.046,994.08,994.06,-2.19,-1.96,0.00,1.39,0.21,9.22,0.00,-0.00,-0.00,0.00
2026-06-26 19:04:55.047,994.08,994.06,-2.19,-1.96,0.00,1.39,0.21,9.22,0.00,-0.00,-0.00,0.00
2026-06-26 19:04:55.054,994.08,994.06,-2.19,-1.96,0.00,1.39,0.21,9.22,0.00,-0.00,-0.00,0.00
2026-06-26 19:04:55.096,994.08,994.06,-2.27,-2.00,0.00,1.46,0.18,9.20,0.00,0.00,0.00,0.00
2026-06-26 19:04:55.098,994.08,994.06,-2.27,-2.00,0.00,1.46,0.18,9.20,0.00,0.00,0.00,0.00
2026-06-26 19:04:55.099,994.08,994.06,-2.27,-2.00,0.00,1.46,0.18,9.20,0.00,0.00,0.00,0.00
2026-06-26 19:04:55.105,994.08,994.06,-2.27,-2.00,0.00,1.46,0.18,9.20,0.00,0.00,0.00,0.00
2026-06-26 19:04:55.148,994.09,994.06,-2.68,-2.17,0.00,1.40,0.20,9.19,0.00,-0.00,0.00,0.00
2026-06-26 19:04:55.154,994.09,994.06,-2.68,-2.17,0.00,1.40,0.20,9.19,0.00,-0.00,0.00,0.00
2026-06-26 19:04:55.156,994.09,994.06,-2.68,-2.17,0.00,1.45,0.17,9.21,-0.00,-0.00,-0.00,0.00
2026-06-26 19:04:55.157,994.09,994.06,-2.68,-2.17,0.00,1.45,0.17,9.21,-0.00,-0.00,-0.00,0.00
2026-06-26 19:04:55.159,994.09,994.06,-2.68,-2.17,0.00,1.45,0.17,9.21,-0.00,-0.00,-0.00,0.00
2026-06-26 19:04:55.160,994.09,994.06,-2.68,-2.17,0.00,1.45,0.17,9.21,-0.00,-0.00,-0.00,0.00
2026-06-26 19:04:55.162,994.09,994.06,-2.68,-2.17,0.00,1.45,0.17,9.21,-0.00,-0.00,-0.00,0.00
2026-06-26 19:04:55.164,994.09,994.06,-2.68,-2.17,0.00,1.45,0.17,9.21,0.00,-0.00,0.00,0.00
2026-06-26 19:04:55.166,994.09,994.06,-2.68,-2.17,0.00,1.40,0.19,9.19,0.00,-0.00,0.00,0.00
2026-06-26 19:04:55.172,994.09,994.06,-2.68,-2.17,0.00,1.40,0.19,9.19,0.00,-0.00,0.00,0.00
2026-06-26 19:04:55.175,994.09,994.06,-2.68,-2.17,0.00,1.40,0.19,9.19,0.00,-0.00,0.00,0.00
2026-06-26 19:04:55.177,994.09,994.06,-2.68,-2.17,0.00,1.42,0.18,9.23,0.00,-0.00,0.00,0.00
2026-06-26 19:04:55.178,994.09,994.06,-2.68,-2.17,0.00,1.42,0.18,9.23,0.00,-0.00,0.00,0.00
2026-06-26 19:04:55.181,994.09,994.06,-2.68,-2.17,0.00,1.42,0.18,9.23,0.00,-0.00,0.00,0.00
2026-06-26 19:04:55.185,994.09,994.06,-2.68,-2.17,0.00,1.42,0.18,9.23,0.00,-0.00,0.00,0.00
2026-06-26 19:04:55.187,994.09,994.06,-2.68,-2.17,0.00,1.47,0.16,9.19,0.00,-0.00,0.00,0.00
2026-06-26 19:04:55.188,994.09,994.06,-2.68,-2.17,0.00,1.47,0.16,9.19,0.00,-0.00,0.00,0.00
2026-06-26 19:04:55.190,994.09,994.06,-2.68,-2.17,0.00,1.47,0.16,9.19,0.00,-0.00,0.00,0.00
2026-06-26 19:04:55.195,994.09,994.06,-2.68,-2.17,0.00,1.47,0.16,9.19,0.00,-0.00,0.00,0.00
2026-06-26 19:04:55.198,994.09,994.06,-2.68,-2.17,0.00,1.42,0.22,9.22,-0.00,-0.00,0.00,0.00
2026-06-26 19:04:55.245,994.09,994.06,-2.55,-2.12,0.00,1.41,0.23,9.20,0.00,0.00,0.00,0.00
2026-06-26 19:04:55.246,994.09,994.06,-2.55,-2.12,0.00,1.43,0.16,9.19,0.00,0.00,0.00,0.00
2026-06-26 19:04:55.287,994.08,994.06,-2.45,-2.07,0.00,1.41,0.22,9.20,-0.00,0.00,0.00,0.00
2026-06-26 19:04:55.288,994.08,994.06,-2.45,-2.07,0.00,1.41,0.22,9.20,-0.00,0.00,0.00,0.00
2026-06-26 19:04:55.295,994.08,994.06,-2.45,-2.07,0.00,1.41,0.22,9.20,-0.00,0.00,0.00,0.00
2026-06-26 19:04:55.298,994.08,994.06,-2.45,-2.07,0.00,1.42,0.22,9.22,-0.00,0.00,0.00,0.00
2026-06-26 19:04:55.305,994.08,994.06,-2.45,-2.07,0.00,1.42,0.22,9.22,-0.00,0.00,0.00,0.00
2026-06-26 19:04:55.307,994.08,994.06,-2.45,-2.07,0.00,1.46,0.18,9.22,-0.00,0.00,0.00,0.00
2026-06-26 19:04:55.309,994.08,994.06,-2.45,-2.07,0.00,1.46,0.18,9.22,-0.00,0.00,0.00,0.00
2026-06-26 19:04:55.311,994.08,994.06,-2.45,-2.07,0.00,1.46,0.18,9.22,-0.00,0.00,0.00,0.00
2026-06-26 19:04:55.315,994.08,994.06,-2.45,-2.07,0.00,1.46,0.18,9.22,-0.00,0.00,0.00,0.00
2026-06-26 19:04:55.317,994.08,994.06,-2.45,-2.07,0.00,1.42,0.21,9.24,-0.00,0.00,-0.00,0.00
2026-06-26 19:04:55.319,994.08,994.06,-2.45,-2.07,0.00,1.42,0.21,9.24,-0.00,0.00,-0.00,0.00
2026-06-26 19:04:55.325,994.08,994.06,-2.45,-2.07,0.00,1.42,0.21,9.24,-0.00,0.00,-0.00,0.00
2026-06-26 19:04:55.327,994.08,994.06,-2.45,-2.07,0.00,1.39,0.20,9.19,0.00,0.00,0.00,0.00
2026-06-26 19:04:55.334,994.08,994.06,-2.45,-2.07,0.00,1.39,0.20,9.19,0.00,0.00,0.00,0.00
2026-06-26 19:04:55.339,994.08,994.06,-2.45,-2.07,0.00,1.41,0.17,9.19,0.00,0.00,0.00,0.00
2026-06-26 19:04:55.345,994.08,994.06,-2.45,-2.07,0.00,1.41,0.17,9.19,-0.00,-0.00,0.00,0.00
2026-06-26 19:04:55.433,994.08,994.06,-2.07,-1.91,0.00,1.43,0.18,9.18,0.00,-0.00,-0.00,0.00
2026-06-26 19:04:55.436,994.08,994.06,-2.07,-1.91,0.00,1.47,0.21,9.20,0.00,0.00,0.00,0.00
2026-06-26 19:04:55.439,994.08,994.06,-2.07,-1.91,0.00,1.47,0.21,9.20,0.00,0.00,0.00,0.00
2026-06-26 19:04:55.442,994.08,994.06,-2.07,-1.91,0.00,1.47,0.21,9.20,0.00,0.00,0.00,0.00
2026-06-26 19:04:55.445,994.08,994.06,-2.07,-1.91,0.00,1.47,0.21,9.20,-0.00,-0.00,0.00,0.00
2026-06-26 19:04:55.447,994.08,994.06,-2.07,-1.91,0.00,1.47,0.20,9.21,-0.00,-0.00,0.00,0.00
2026-06-26 19:04:55.448,994.08,994.06,-2.07,-1.91,0.00,1.47,0.20,9.21,-0.00,-0.00,0.00,0.00
2026-06-26 19:04:55.450,994.08,994.06,-2.07,-1.91,0.00,1.47,0.20,9.21,-0.00,-0.00,0.00,0.00
2026-06-26 19:04:55.455,994.08,994.06,-2.07,-1.91,0.00,1.47,0.20,9.21,-0.00,-0.00,0.00,0.00
2026-06-26 19:04:55.457,994.08,994.06,-2.07,-1.91,0.00,1.45,0.20,9.20,0.00,0.00,0.00,0.00
2026-06-26 19:04:55.459,994.08,994.06,-2.07,-1.91,0.00,1.45,0.20,9.20,0.00,0.00,0.00,0.00
2026-06-26 19:04:55.461,994.08,994.06,-2.07,-1.91,0.00,1.45,0.20,9.20,0.00,0.00,0.00,0.00
2026-06-26 19:04:55.463,994.08,994.06,-2.07,-1.91,0.00,1.45,0.20,9.20,0.00,0.00,0.00,0.00
2026-06-26 19:04:55.466,994.08,994.06,-2.07,-1.91,0.00,1.45,0.20,9.20,-0.00,0.00,0.00,0.00
2026-06-26 19:04:55.468,994.08,994.06,-2.07,-1.91,0.00,1.41,0.17,9.21,-0.00,0.00,0.00,0.00
2026-06-26 19:04:55.471,994.08,994.06,-2.07,-1.91,0.00,1.41,0.17,9.21,-0.00,0.00,0.00,0.00
2026-06-26 19:04:55.475,994.08,994.06,-2.07,-1.91,0.00,1.41,0.17,9.21,0.00,0.00,0.00,0.00
2026-06-26 19:04:55.477,994.08,994.06,-2.07,-1.91,0.00,1.45,0.14,9.20,0.00,0.00,0.00,0.00
2026-06-26 19:04:55.478,994.08,994.06,-2.07,-1.91,0.00,1.45,0.14,9.20,0.00,0.00,0.00,0.00
2026-06-26 19:04:55.480,994.08,994.06,-2.07,-1.91,0.00,1.45,0.14,9.20,0.00,0.00,0.00,0.00
2026-06-26 19:04:55.485,994.08,994.06,-2.07,-1.91,0.00,1.45,0.14,9.20,0.00,0.00,0.00,0.00
2026-06-26 19:04:55.487,994.08,994.06,-2.07,-1.91,0.00,1.42,0.19,9.21,-0.00,0.00,-0.00,0.00
2026-06-26 19:04:55.488,994.08,994.06,-2.07,-1.91,0.00,1.42,0.19,9.21,-0.00,0.00,-0.00,0.00
2026-06-26 19:04:55.527,994.08,994.06,-1.66,-1.71,0.00,1.44,0.23,9.20,-0.00,0.00,-0.00,0.00
2026-06-26 19:04:55.529,994.08,994.06,-1.66,-1.71,0.00,1.44,0.23,9.20,-0.00,0.00,-0.00,0.00
2026-06-26 19:04:55.568,994.08,994.06,-1.59,-1.67,0.00,1.43,0.20,9.22,0.00,0.00,0.00,0.00
2026-06-26 19:04:55.570,994.08,994.06,-1.59,-1.67,0.00,1.43,0.20,9.22,0.00,0.00,0.00,0.00
2026-06-26 19:04:55.575,994.08,994.06,-1.59,-1.67,0.00,1.43,0.20,9.22,0.00,0.00,0.00,0.00
2026-06-26 19:04:55.577,994.08,994.06,-1.59,-1.67,0.00,1.41,0.18,9.20,-0.00,0.00,0.00,0.00
2026-06-26 19:04:55.579,994.08,994.06,-1.59,-1.67,0.00,1.41,0.18,9.20,-0.00,0.00,0.00,0.00
2026-06-26 19:04:55.582,994.08,994.06,-1.59,-1.67,0.00,1.41,0.18,9.20,-0.00,0.00,0.00,0.00
2026-06-26 19:04:55.586,994.08,994.06,-1.59,-1.67,0.00,1.41,0.18,9.20,-0.00,0.00,-0.00,0.00
2026-06-26 19:04:55.588,994.08,994.06,-1.59,-1.67,0.00,1.43,0.21,9.21,-0.00,0.00,-0.00,0.00
2026-06-26 19:04:55.589,994.08,994.06,-1.59,-1.67,0.00,1.43,0.21,9.21,-0.00,0.00,-0.00,0.00
2026-06-26 19:04:55.593,994.08,994.06,-1.59,-1.67,0.00,1.43,0.21,9.21,-0.00,0.00,-0.00,0.00
2026-06-26 19:04:55.596,994.08,994.06,-1.59,-1.67,0.00,1.43,0.21,9.21,-0.00,0.00,-0.00,0.00
2026-06-26 19:04:55.598,994.08,994.06,-1.59,-1.67,0.00,1.42,0.21,9.26,-0.00,0.00,-0.00,0.00
2026-06-26 19:04:55.605,994.08,994.06,-1.59,-1.67,0.00,1.42,0.21,9.26,-0.00,0.00,-0.00,0.00
2026-06-26 19:04:55.607,994.08,994.06,-1.59,-1.67,0.00,1.40,0.21,9.22,-0.00,0.00,-0.00,0.00
2026-06-26 19:04:55.609,994.08,994.06,-1.59,-1.67,0.00,1.40,0.21,9.22,-0.00,0.00,-0.00,0.00
2026-06-26 19:04:55.610,994.08,994.06,-1.59,-1.67,0.00,1.40,0.21,9.22,-0.00,0.00,-0.00,0.00
2026-06-26 19:04:55.612,994.08,994.06,-1.59,-1.67,0.00,1.40,0.21,9.22,-0.00,0.00,-0.00,0.00
2026-06-26 19:04:55.617,994.08,994.06,-1.59,-1.67,0.00,1.40,0.21,9.22,-0.00,0.00,-0.00,0.00
2026-06-26 19:04:55.619,994.08,994.06,-1.59,-1.67,0.00,1.43,0.19,9.20,-0.00,-0.00,-0.00,0.00
2026-06-26 19:04:55.625,994.08,994.06,-1.59,-1.67,0.00,1.43,0.19,9.20,-0.00,-0.00,-0.00,0.00
2026-06-26 19:04:55.666,994.08,994.06,-1.67,-1.71,0.00,1.42,0.18,9.23,0.00,-0.00,0.00,0.00
2026-06-26 19:04:55.667,994.08,994.06,-1.67,-1.71,0.00,1.42,0.22,9.21,-0.00,0.00,-0.00,0.00
2026-06-26 19:04:55.710,994.08,994.06,-1.59,-1.67,0.00,1.41,0.21,9.21,0.00,0.00,-0.00,0.00
2026-06-26 19:04:55.711,994.08,994.06,-1.59,-1.67,0.00,1.41,0.21,9.21,0.00,0.00,-0.00,0.00
2026-06-26 19:04:55.713,994.08,994.06,-1.59,-1.67,0.00,1.41,0.21,9.21,0.00,0.00,-0.00,0.00
2026-06-26 19:04:55.716,994.08,994.06,-1.59,-1.67,0.00,1.41,0.21,9.21,-0.00,0.00,0.00,0.00
2026-06-26 19:04:55.718,994.08,994.06,-1.59,-1.67,0.00,1.45,0.21,9.23,-0.00,0.00,0.00,0.00
2026-06-26 19:04:55.719,994.08,994.06,-1.59,-1.67,0.00,1.45,0.21,9.23,-0.00,0.00,0.00,0.00
2026-06-26 19:04:55.723,994.08,994.06,-1.59,-1.67,0.00,1.45,0.21,9.23,-0.00,0.00,0.00,0.00
2026-06-26 19:04:55.726,994.08,994.06,-1.59,-1.67,0.00,1.45,0.21,9.23,-0.00,0.00,-0.00,0.00
2026-06-26 19:04:55.728,994.08,994.06,-1.59,-1.67,0.00,1.44,0.17,9.23,-0.00,0.00,-0.00,0.00
2026-06-26 19:04:55.729,994.08,994.06,-1.59,-1.67,0.00,1.44,0.17,9.23,-0.00,0.00,-0.00,0.00
2026-06-26 19:04:55.737,994.08,994.06,-1.59,-1.67,0.00,1.44,0.17,9.23,-0.00,0.00,-0.00,0.00
2026-06-26 19:04:55.739,994.08,994.06,-1.59,-1.67,0.00,1.43,0.19,9.21,-0.00,-0.00,0.00,0.00
2026-06-26 19:04:55.740,994.08,994.06,-1.59,-1.67,0.00,1.43,0.19,9.21,-0.00,-0.00,0.00,0.00
2026-06-26 19:04:55.746,994.08,994.06,-1.59,-1.67,0.00,1.43,0.19,9.21,-0.00,-0.00,0.00,0.00
2026-06-26 19:04:55.747,994.08,994.06,-1.59,-1.67,0.00,1.45,0.20,9.20,0.00,0.00,-0.00,0.00
2026-06-26 19:04:55.749,994.08,994.06,-1.59,-1.67,0.00,1.45,0.20,9.20,0.00,0.00,-0.00,0.00
2026-06-26 19:04:55.750,994.08,994.06,-1.59,-1.67,0.00,1.45,0.20,9.20,0.00,0.00,-0.00,0.00
2026-06-26 19:04:55.756,994.08,994.06,-1.59,-1.67,0.00,1.45,0.20,9.20,0.00,0.00,-0.00,0.00
2026-06-26 19:04:55.757,994.08,994.06,-1.59,-1.67,0.00,1.45,0.19,9.21,-0.00,0.00,-0.00,0.00
2026-06-26 19:04:55.759,994.08,994.06,-1.59,-1.67,0.00,1.45,0.19,9.21,-0.00,0.00,-0.00,0.00
2026-06-26 19:04:55.760,994.08,994.06,-1.59,-1.67,0.00,1.45,0.19,9.21,-0.00,0.00,-0.00,0.00
2026-06-26 19:04:55.762,994.08,994.06,-1.59,-1.67,0.00,1.45,0.19,9.21,-0.00,0.00,-0.00,0.00
2026-06-26 19:04:55.799,994.08,994.06,-1.63,-1.69,0.00,1.41,0.19,9.23,-0.00,-0.00,0.00,0.00
2026-06-26 19:04:55.806,994.08,994.06,-1.63,-1.69,0.00,1.41,0.19,9.23,0.00,-0.00,0.00,0.00
2026-06-26 19:04:55.808,994.08,994.06,-1.63,-1.69,0.00,1.42,0.17,9.23,0.00,-0.00,0.00,0.00
2026-06-26 19:04:55.810,994.08,994.06,-1.63,-1.69,0.00,1.42,0.17,9.23,0.00,-0.00,0.00,0.00
2026-06-26 19:04:55.856,994.08,994.06,-1.69,-1.72,0.00,1.43,0.19,9.20,0.00,-0.00,0.00,0.00
2026-06-26 19:04:55.858,994.08,994.06,-1.69,-1.72,0.00,1.44,0.22,9.20,0.00,-0.00,0.00,0.00
2026-06-26 19:04:55.860,994.08,994.06,-1.69,-1.72,0.00,1.44,0.22,9.20,0.00,-0.00,0.00,0.00
2026-06-26 19:04:55.861,994.08,994.06,-1.69,-1.72,0.00,1.44,0.22,9.20,0.00,-0.00,0.00,0.00
2026-06-26 19:04:55.863,994.08,994.06,-1.69,-1.72,0.00,1.44,0.22,9.20,0.00,-0.00,0.00,0.00
2026-06-26 19:04:55.866,994.08,994.06,-1.69,-1.72,0.00,1.44,0.22,9.20,0.00,-0.00,0.00,0.00
2026-06-26 19:04:55.867,994.08,994.06,-1.69,-1.72,0.00,1.43,0.16,9.23,0.00,-0.00,0.00,0.00
2026-06-26 19:04:55.869,994.08,994.06,-1.69,-1.72,0.00,1.43,0.16,9.23,0.00,-0.00,0.00,0.00
2026-06-26 19:04:55.873,994.08,994.06,-1.69,-1.72,0.00,1.43,0.16,9.23,0.00,-0.00,0.00,0.00
2026-06-26 19:04:55.877,994.08,994.06,-1.69,-1.72,0.00,1.43,0.16,9.23,0.00,-0.00,0.00,0.00
2026-06-26 19:04:55.879,994.08,994.06,-1.69,-1.72,0.00,1.43,0.17,9.23,0.00,-0.00,0.00,0.00
2026-06-26 19:04:55.886,994.08,994.06,-1.69,-1.72,0.00,1.43,0.17,9.23,0.00,0.00,0.00,0.00
2026-06-26 19:04:55.890,994.08,994.06,-1.69,-1.72,0.00,1.41,0.21,9.20,0.00,0.00,0.00,0.00
2026-06-26 19:04:55.896,994.08,994.06,-1.69,-1.72,0.00,1.41,0.21,9.20,0.00,0.00,0.00,0.00
2026-06-26 19:04:55.898,994.08,994.06,-1.69,-1.72,0.00,1.42,0.21,9.21,0.00,0.00,-0.00,0.00
2026-06-26 19:04:55.940,994.08,994.06,-2.21,-1.97,0.00,1.41,0.22,9.20,-0.00,-0.00,0.00,0.00
2026-06-26 19:04:55.946,994.08,994.06,-2.21,-1.97,0.00,1.41,0.22,9.20,-0.00,-0.00,0.00,0.00
2026-06-26 19:04:55.948,994.08,994.06,-2.21,-1.97,0.00,1.44,0.17,9.20,0.00,0.00,0.00,0.00
2026-06-26 19:04:55.950,994.08,994.06,-2.21,-1.97,0.00,1.44,0.17,9.20,0.00,0.00,0.00,0.00
2026-06-26 19:04:55.953,994.08,994.06,-2.21,-1.97,0.00,1.44,0.17,9.20,0.00,0.00,0.00,0.00
2026-06-26 19:04:55.997,994.08,994.06,-2.31,-2.01,0.00,1.44,0.20,9.16,0.00,-0.00,0.00,0.00
2026-06-26 19:04:55.999,994.08,994.06,-2.31,-2.01,0.00,1.42,0.21,9.21,0.00,-0.00,0.00,0.00
2026-06-26 19:04:55.000,994.08,994.06,-2.31,-2.01,0.00,1.42,0.21,9.21,0.00,-0.00,0.00,0.00
2026-06-26 19:04:56.006,994.08,994.06,-2.31,-2.01,0.00,1.42,0.21,9.21,0.00,-0.00,0.00,0.00
2026-06-26 19:04:56.008,994.08,994.06,-2.31,-2.01,0.00,1.44,0.18,9.21,-0.00,-0.00,0.00,0.00
2026-06-26 19:04:56.009,994.08,994.06,-2.31,-2.01,0.00,1.44,0.18,9.21,-0.00,-0.00,0.00,0.00
2026-06-26 19:04:56.011,994.08,994.06,-2.31,-2.01,0.00,1.44,0.18,9.21,-0.00,-0.00,0.00,0.00
2026-06-26 19:04:56.013,994.08,994.06,-2.31,-2.01,0.00,1.44,0.18,9.21,-0.00,-0.00,0.00,0.00
2026-06-26 19:04:56.016,994.08,994.06,-2.31,-2.01,0.00,1.44,0.18,9.21,-0.00,-0.00,0.00,0.00
2026-06-26 19:04:56.018,994.08,994.06,-2.31,-2.01,0.00,1.41,0.20,9.22,-0.00,-0.00,0.00,0.00
2026-06-26 19:04:56.023,994.08,994.06,-2.31,-2.01,0.00,1.41,0.20,9.22,-0.00,-0.00,0.00,0.00
2026-06-26 19:04:56.027,994.08,994.06,-2.31,-2.01,0.00,1.41,0.20,9.22,0.00,-0.00,0.00,0.00
2026-06-26 19:04:56.029,994.08,994.06,-2.31,-2.01,0.00,1.43,0.20,9.23,0.00,-0.00,0.00,0.00
2026-06-26 19:04:56.031,994.08,994.06,-2.31,-2.01,0.00,1.43,0.20,9.23,0.00,-0.00,0.00,0.00
2026-06-26 19:04:56.036,994.08,994.06,-2.31,-2.01,0.00,1.43,0.20,9.23,0.00,-0.00,0.00,0.00
2026-06-26 19:04:56.038,994.08,994.06,-2.31,-2.01,0.00,1.45,0.21,9.21,0.00,-0.00,0.00,0.00
2026-06-26 19:04:56.040,994.08,994.06,-2.31,-2.01,0.00,1.45,0.21,9.21,0.00,-0.00,0.00,0.00
2026-06-26 19:04:56.087,994.08,994.06,-2.01,-1.88,0.00,1.42,0.17,9.21,-0.00,0.00,0.00,0.00
2026-06-26 19:04:56.088,994.08,994.06,-2.01,-1.88,0.00,1.45,0.20,9.20,0.00,0.00,-0.00,0.00
2026-06-26 19:04:56.090,994.08,994.06,-2.01,-1.88,0.00,1.45,0.20,9.20,0.00,0.00,-0.00,0.00
2026-06-26 19:04:56.096,994.08,994.06,-2.01,-1.88,0.00,1.45,0.20,9.20,0.00,0.00,-0.00,0.00
2026-06-26 19:04:56.139,994.08,994.06,-2.34,-2.03,0.00,1.41,0.20,9.21,-0.00,0.00,-0.00,0.00
2026-06-26 19:04:56.145,994.08,994.06,-2.34,-2.03,0.00,1.41,0.20,9.21,-0.00,0.00,-0.00,0.00
2026-06-26 19:04:56.148,994.08,994.06,-2.34,-2.03,0.00,1.41,0.20,9.21,-0.00,-0.00,-0.00,0.00
2026-06-26 19:04:56.150,994.08,994.06,-2.34,-2.03,0.00,1.44,0.19,9.24,-0.00,-0.00,-0.00,0.00
2026-06-26 19:04:56.157,994.08,994.06,-2.34,-2.03,0.00,1.44,0.19,9.24,0.00,-0.00,0.00,0.00
2026-06-26 19:04:56.159,994.08,994.06,-2.34,-2.03,0.00,1.44,0.20,9.21,0.00,-0.00,0.00,0.00
2026-06-26 19:04:56.162,994.08,994.06,-2.34,-2.03,0.00,1.44,0.20,9.21,0.00,-0.00,0.00,0.00
2026-06-26 19:04:56.164,994.08,994.06,-2.34,-2.03,0.00,1.44,0.20,9.21,0.00,-0.00,0.00,0.00
2026-06-26 19:04:56.167,994.08,994.06,-2.34,-2.03,0.00,1.44,0.20,9.21,0.00,-0.00,0.00,0.00
2026-06-26 19:04:56.169,994.08,994.06,-2.34,-2.03,0.00,1.43,0.19,9.21,0.00,-0.00,0.00,0.00
2026-06-26 19:04:56.170,994.08,994.06,-2.34,-2.03,0.00,1.43,0.19,9.21,0.00,-0.00,0.00,0.00
2026-06-26 19:04:56.175,994.08,994.06,-2.34,-2.03,0.00,1.43,0.19,9.21,0.00,-0.00,0.00,0.00
2026-06-26 19:04:56.178,994.08,994.06,-2.34,-2.03,0.00,1.42,0.20,9.23,0.00,0.00,0.00,0.00
2026-06-26 19:04:56.179,994.08,994.06,-2.34,-2.03,0.00,1.42,0.20,9.23,0.00,0.00,0.00,0.00
2026-06-26 19:04:56.187,994.08,994.06,-2.34,-2.03,0.00,1.42,0.20,9.23,0.00,0.00,0.00,0.00
2026-06-26 19:04:56.230,994.08,994.06,-2.70,-2.18,0.00,1.43,0.19,9.22,0.00,0.00,0.00,0.00
2026-06-26 19:04:56.236,994.08,994.06,-2.70,-2.18,0.00,1.43,0.19,9.22,0.00,0.00,0.00,0.00
2026-06-26 19:04:56.238,994.08,994.06,-2.70,-2.18,0.00,1.43,0.18,9.17,0.00,0.00,-0.00,0.00
2026-06-26 19:04:56.284,994.08,994.06,-2.62,-2.15,0.00,1.43,0.19,9.22,0.00,-0.00,0.00,0.00
2026-06-26 19:04:56.288,994.08,994.06,-2.62,-2.15,0.00,1.43,0.19,9.22,0.00,0.00,-0.00,0.00
2026-06-26 19:04:56.289,994.08,994.06,-2.62,-2.15,0.00,1.42,0.22,9.21,0.00,0.00,-0.00,0.00
2026-06-26 19:04:56.291,994.08,994.06,-2.62,-2.15,0.00,1.42,0.22,9.21,0.00,0.00,-0.00,0.00
2026-06-26 19:04:56.296,994.08,994.06,-2.62,-2.15,0.00,1.42,0.22,9.21,0.00,0.00,-0.00,0.00
2026-06-26 19:04:56.298,994.08,994.06,-2.62,-2.15,0.00,1.42,0.21,9.22,0.00,-0.00,0.00,0.00
2026-06-26 19:04:56.299,994.08,994.06,-2.62,-2.15,0.00,1.42,0.21,9.22,0.00,-0.00,0.00,0.00
2026-06-26 19:04:56.301,994.08,994.06,-2.62,-2.15,0.00,1.42,0.21,9.22,0.00,-0.00,0.00,0.00
2026-06-26 19:04:56.306,994.08,994.06,-2.62,-2.15,0.00,1.42,0.21,9.22,0.00,-0.00,0.00,0.00
2026-06-26 19:04:56.308,994.08,994.06,-2.62,-2.15,0.00,1.44,0.17,9.21,0.00,-0.00,-0.00,0.00
2026-06-26 19:04:56.310,994.08,994.06,-2.62,-2.15,0.00,1.44,0.17,9.21,0.00,-0.00,-0.00,0.00
2026-06-26 19:04:56.311,994.08,994.06,-2.62,-2.15,0.00,1.44,0.17,9.21,0.00,-0.00,-0.00,0.00
2026-06-26 19:04:56.313,994.08,994.06,-2.62,-2.15,0.00,1.44,0.17,9.21,0.00,-0.00,-0.00,0.00
2026-06-26 19:04:56.314,994.08,994.06,-2.62,-2.15,0.00,1.44,0.17,9.21,0.00,-0.00,-0.00,0.00
2026-06-26 19:04:56.318,994.08,994.06,-2.62,-2.15,0.00,1.44,0.17,9.21,0.00,0.00,0.00,0.00
2026-06-26 19:04:56.320,994.08,994.06,-2.62,-2.15,0.00,1.44,0.19,9.22,0.00,0.00,0.00,0.00
2026-06-26 19:04:56.321,994.08,994.06,-2.62,-2.15,0.00,1.44,0.19,9.22,0.00,0.00,0.00,0.00
2026-06-26 19:04:56.328,994.08,994.06,-2.62,-2.15,0.00,1.44,0.19,9.22,0.00,0.00,-0.00,0.00
2026-06-26 19:04:56.330,994.08,994.06,-2.62,-2.15,0.00,1.43,0.19,9.19,0.00,0.00,-0.00,0.00
2026-06-26 19:04:56.377,994.08,994.06,-2.66,-2.16,0.00,1.44,0.19,9.22,0.00,0.00,-0.00,0.00
2026-06-26 19:04:56.379,994.08,994.06,-2.66,-2.16,0.00,1.44,0.20,9.24,0.00,-0.00,-0.00,0.00
2026-06-26 19:04:56.384,994.08,994.06,-2.66,-2.16,0.00,1.44,0.20,9.24,0.00,-0.00,-0.00,0.00
2026-06-26 19:04:56.429,994.08,994.06,-2.58,-2.13,0.00,1.43,0.18,9.21,0.00,-0.00,0.00,0.00
2026-06-26 19:04:56.431,994.08,994.06,-2.58,-2.13,0.00,1.43,0.18,9.21,0.00,-0.00,0.00,0.00
2026-06-26 19:04:56.434,994.08,994.06,-2.58,-2.13,0.00,1.43,0.18,9.21,0.00,-0.00,0.00,0.00
2026-06-26 19:04:56.439,994.08,994.06,-2.58,-2.13,0.00,1.43,0.18,9.21,0.00,0.00,0.00,0.00
2026-06-26 19:04:56.441,994.08,994.06,-2.58,-2.13,0.00,1.42,0.22,9.18,0.00,0.00,0.00,0.00
2026-06-26 19:04:56.446,994.08,994.06,-2.58,-2.13,0.00,1.42,0.22,9.18,0.00,0.00,0.00,0.00
2026-06-26 19:04:56.448,994.08,994.06,-2.58,-2.13,0.00,1.42,0.22,9.18,0.00,0.00,-0.00,0.00
2026-06-26 19:04:56.450,994.08,994.06,-2.58,-2.13,0.00,1.44,0.22,9.19,0.00,0.00,-0.00,0.00
2026-06-26 19:04:56.451,994.08,994.06,-2.58,-2.13,0.00,1.44,0.22,9.19,0.00,0.00,-0.00,0.00
2026-06-26 19:04:56.455,994.08,994.06,-2.58,-2.13,0.00,1.44,0.22,9.19,0.00,0.00,-0.00,0.00
2026-06-26 19:04:56.458,994.08,994.06,-2.58,-2.13,0.00,1.44,0.22,9.19,0.00,0.00,0.00,0.00
2026-06-26 19:04:56.460,994.08,994.06,-2.58,-2.13,0.00,1.42,0.18,9.22,0.00,0.00,0.00,0.00
2026-06-26 19:04:56.461,994.08,994.06,-2.58,-2.13,0.00,1.42,0.18,9.22,0.00,0.00,0.00,0.00
2026-06-26 19:04:56.463,994.08,994.06,-2.58,-2.13,0.00,1.42,0.18,9.22,0.00,0.00,0.00,0.00
2026-06-26 19:04:56.464,994.08,994.06,-2.58,-2.13,0.00,1.42,0.18,9.22,0.00,0.00,0.00,0.00
2026-06-26 19:04:56.467,994.08,994.06,-2.58,-2.13,0.00,1.42,0.18,9.22,0.00,0.00,0.00,0.00
2026-06-26 19:04:56.473,994.08,994.06,-2.58,-2.13,0.00,1.43,0.20,9.22,-0.00,0.00,0.00,0.00
2026-06-26 19:04:56.515,994.08,994.06,-2.73,-2.19,0.00,1.43,0.19,9.20,0.00,0.00,0.00,0.00
2026-06-26 19:04:56.520,994.08,994.06,-2.73,-2.19,0.00,1.42,0.20,9.20,0.00,0.00,0.00,0.00
2026-06-26 19:04:56.523,994.08,994.06,-2.73,-2.19,0.00,1.42,0.20,9.20,0.00,0.00,0.00,0.00
2026-06-26 19:04:56.530,994.08,994.06,-2.73,-2.19,0.00,1.42,0.20,9.20,0.00,0.00,-0.00,0.00
2026-06-26 19:04:56.578,994.09,994.06,-3.17,-2.36,0.00,1.41,0.21,9.21,-0.00,0.00,0.00,0.00
2026-06-26 19:04:56.580,994.09,994.06,-3.17,-2.36,0.00,1.44,0.20,9.21,0.00,-0.00,0.00,0.00
2026-06-26 19:04:56.582,994.09,994.06,-3.17,-2.36,0.00,1.44,0.20,9.21,0.00,-0.00,0.00,0.00
2026-06-26 19:04:56.588,994.09,994.06,-3.17,-2.36,0.00,1.44,0.20,9.21,0.00,-0.00,0.00,0.00
2026-06-26 19:04:56.590,994.09,994.06,-3.17,-2.36,0.00,1.46,0.20,9.19,0.00,-0.00,0.00,0.00
2026-06-26 19:04:56.592,994.09,994.06,-3.17,-2.36,0.00,1.46,0.20,9.19,0.00,-0.00,0.00,0.00
2026-06-26 19:04:56.598,994.09,994.06,-3.17,-2.36,0.00,1.46,0.20,9.19,0.00,-0.00,0.00,0.00
2026-06-26 19:04:56.599,994.09,994.06,-3.17,-2.36,0.00,1.43,0.22,9.22,0.00,0.00,0.00,0.00
2026-06-26 19:04:56.601,994.09,994.06,-3.17,-2.36,0.00,1.43,0.22,9.22,0.00,0.00,0.00,0.00
2026-06-26 19:04:56.608,994.09,994.06,-3.17,-2.36,0.00,1.43,0.22,9.22,0.00,0.00,0.00,0.00
2026-06-26 19:04:56.610,994.09,994.06,-3.17,-2.36,0.00,1.43,0.20,9.24,0.00,-0.00,0.00,0.00
2026-06-26 19:04:56.611,994.09,994.06,-3.17,-2.36,0.00,1.43,0.20,9.24,0.00,-0.00,0.00,0.00
2026-06-26 19:04:56.614,994.09,994.06,-3.17,-2.36,0.00,1.43,0.20,9.24,0.00,-0.00,0.00,0.00
2026-06-26 19:04:56.658,994.09,994.06,-2.93,-2.27,0.00,1.41,0.21,9.22,-0.00,0.00,0.00,0.00
2026-06-26 19:04:56.660,994.09,994.06,-2.93,-2.27,0.00,1.44,0.19,9.18,0.00,-0.00,0.00,0.00
2026-06-26 19:04:56.662,994.09,994.06,-2.93,-2.27,0.00,1.44,0.19,9.18,0.00,-0.00,0.00,0.00
2026-06-26 19:04:56.665,994.09,994.06,-2.93,-2.27,0.00,1.44,0.19,9.18,0.00,-0.00,0.00,0.00
2026-06-26 19:04:56.668,994.09,994.06,-2.93,-2.27,0.00,1.44,0.19,9.18,0.00,0.00,0.00,0.00
2026-06-26 19:04:56.670,994.09,994.06,-2.93,-2.27,0.00,1.46,0.19,9.23,0.00,0.00,0.00,0.00
2026-06-26 19:04:56.671,994.09,994.06,-2.93,-2.27,0.00,1.46,0.19,9.23,0.00,0.00,0.00,0.00
2026-06-26 19:04:56.675,994.09,994.06,-2.93,-2.27,0.00,1.46,0.19,9.23,0.00,0.00,0.00,0.00
2026-06-26 19:04:56.714,994.09,994.06,-2.89,-2.25,0.00,1.43,0.18,9.22,0.00,0.00,0.00,0.00
2026-06-26 19:04:56.719,994.09,994.06,-2.89,-2.25,0.00,1.43,0.18,9.22,0.00,-0.00,0.00,0.00
2026-06-26 19:04:56.721,994.09,994.06,-2.89,-2.25,0.00,1.42,0.20,9.23,0.00,-0.00,0.00,0.00
2026-06-26 19:04:56.722,994.09,994.06,-2.89,-2.25,0.00,1.42,0.20,9.23,0.00,-0.00,0.00,0.00
2026-06-26 19:04:56.728,994.09,994.06,-2.89,-2.25,0.00,1.42,0.20,9.23,0.00,-0.00,0.00,0.00
2026-06-26 19:04:56.730,994.09,994.06,-2.89,-2.25,0.00,1.42,0.20,9.20,-0.00,0.00,0.00,0.00
2026-06-26 19:04:56.731,994.09,994.06,-2.89,-2.25,0.00,1.42,0.20,9.20,-0.00,0.00,0.00,0.00
2026-06-26 19:04:56.735,994.09,994.06,-2.89,-2.25,0.00,1.42,0.20,9.20,-0.00,0.00,0.00,0.00
2026-06-26 19:04:56.739,994.09,994.06,-2.89,-2.25,0.00,1.42,0.20,9.20,-0.00,0.00,0.00,0.00
2026-06-26 19:04:56.740,994.09,994.06,-2.89,-2.25,0.00,1.43,0.22,9.21,-0.00,0.00,0.00,0.00
2026-06-26 19:04:56.742,994.09,994.06,-2.89,-2.25,0.00,1.43,0.22,9.21,-0.00,0.00,0.00,0.00
2026-06-26 19:04:56.743,994.09,994.06,-2.89,-2.25,0.00,1.43,0.22,9.21,-0.00,0.00,0.00,0.00
2026-06-26 19:04:56.748,994.09,994.06,-2.89,-2.25,0.00,1.43,0.22,9.21,-0.00,0.00,0.00,0.00
2026-06-26 19:04:56.750,994.09,994.06,-2.89,-2.25,0.00,1.43,0.19,9.22,0.00,0.00,-0.00,0.00
2026-06-26 19:04:56.757,994.09,994.06,-2.89,-2.25,0.00,1.43,0.19,9.22,0.00,0.00,-0.00,0.00
2026-06-26 19:04:56.798,994.09,994.06,-2.71,-2.18,0.00,1.43,0.20,9.19,0.00,-0.00,-0.00,0.00
2026-06-26 19:04:56.800,994.09,994.06,-2.71,-2.18,0.00,1.44,0.20,9.24,0.00,-0.00,-0.00,0.00
2026-06-26 19:04:56.802,994.09,994.06,-2.71,-2.18,0.00,1.44,0.20,9.24,0.00,-0.00,-0.00,0.00
2026-06-26 19:04:56.808,994.09,994.06,-2.71,-2.18,0.00,1.44,0.20,9.24,0.00,-0.00,-0.00,0.00
2026-06-26 19:04:56.810,994.09,994.06,-2.71,-2.18,0.00,1.43,0.20,9.21,-0.00,0.00,0.00,0.00
2026-06-26 19:04:56.812,994.09,994.06,-2.71,-2.18,0.00,1.43,0.20,9.21,-0.00,0.00,0.00,0.00
2026-06-26 19:04:56.813,994.09,994.06,-2.71,-2.18,0.00,1.43,0.20,9.21,-0.00,0.00,0.00,0.00
2026-06-26 19:04:56.859,994.08,994.06,-2.30,-2.01,0.00,1.41,0.22,9.24,-0.00,0.00,0.00,0.00
2026-06-26 19:04:56.861,994.08,994.06,-2.30,-2.01,0.00,1.44,0.20,9.22,-0.00,0.00,0.00,0.00
2026-06-26 19:04:56.862,994.08,994.06,-2.30,-2.01,0.00,1.44,0.20,9.22,-0.00,0.00,0.00,0.00
2026-06-26 19:04:56.864,994.08,994.06,-2.30,-2.01,0.00,1.44,0.20,9.22,-0.00,0.00,0.00,0.00
2026-06-26 19:04:56.865,994.08,994.06,-2.30,-2.01,0.00,1.44,0.20,9.22,-0.00,0.00,0.00,0.00
2026-06-26 19:04:56.869,994.08,994.06,-2.30,-2.01,0.00,1.44,0.20,9.22,0.00,0.00,0.00,0.00
2026-06-26 19:04:56.870,994.08,994.06,-2.30,-2.01,0.00,1.40,0.20,9.21,0.00,0.00,0.00,0.00
2026-06-26 19:04:56.872,994.08,994.06,-2.30,-2.01,0.00,1.40,0.20,9.21,0.00,0.00,0.00,0.00
2026-06-26 19:04:56.877,994.08,994.06,-2.30,-2.01,0.00,1.40,0.20,9.21,0.00,0.00,0.00,0.00
2026-06-26 19:04:56.880,994.08,994.06,-2.30,-2.01,0.00,1.43,0.19,9.23,-0.00,0.00,0.00,0.00
2026-06-26 19:04:56.882,994.08,994.06,-2.30,-2.01,0.00,1.43,0.19,9.23,-0.00,0.00,0.00,0.00
2026-06-26 19:04:56.888,994.08,994.06,-2.30,-2.01,0.00,1.43,0.19,9.23,-0.00,0.00,0.00,0.00
2026-06-26 19:04:56.890,994.08,994.06,-2.30,-2.01,0.00,1.43,0.20,9.20,0.00,0.00,0.00,0.00
2026-06-26 19:04:56.892,994.08,994.06,-2.30,-2.01,0.00,1.43,0.20,9.20,0.00,0.00,0.00,0.00
2026-06-26 19:04:56.897,994.08,994.06,-2.30,-2.01,0.00,1.43,0.20,9.20,0.00,0.00,0.00,0.00
2026-06-26 19:04:56.942,994.08,994.06,-2.30,-2.01,0.00,1.43,0.18,9.21,0.00,0.00,0.00,0.00
2026-06-26 19:04:56.949,994.08,994.06,-2.30,-2.01,0.00,1.43,0.18,9.21,0.00,0.00,0.00,0.00
2026-06-26 19:04:56.951,994.08,994.06,-2.30,-2.01,0.00,1.41,0.20,9.20,0.00,-0.00,0.00,0.00
2026-06-26 19:04:56.953,994.08,994.06,-2.30,-2.01,0.00,1.41,0.20,9.20,0.00,-0.00,0.00,0.00
2026-06-26 19:04:56.960,994.08,994.06,-2.30,-2.01,0.00,1.41,0.20,9.20,0.00,-0.00,0.00,0.00
2026-06-26 19:04:57.009,994.09,994.06,-2.63,-2.15,0.00,1.43,0.19,9.22,-0.00,0.00,0.00,0.00
2026-06-26 19:04:57.010,994.09,994.06,-2.63,-2.15,0.00,1.44,0.22,9.21,-0.00,0.00,0.00,0.00
2026-06-26 19:04:57.012,994.09,994.06,-2.63,-2.15,0.00,1.44,0.22,9.21,-0.00,0.00,0.00,0.00
2026-06-26 19:04:57.013,994.09,994.06,-2.63,-2.15,0.00,1.44,0.22,9.21,-0.00,0.00,0.00,0.00
2026-06-26 19:04:57.015,994.09,994.06,-2.63,-2.15,0.00,1.44,0.22,9.21,-0.00,0.00,0.00,0.00
2026-06-26 19:04:57.016,994.09,994.06,-2.63,-2.15,0.00,1.44,0.22,9.21,-0.00,0.00,0.00,0.00
2026-06-26 19:04:57.021,994.09,994.06,-2.63,-2.15,0.00,1.44,0.22,9.21,0.00,-0.00,-0.00,0.00
2026-06-26 19:04:57.022,994.09,994.06,-2.63,-2.15,0.00,1.43,0.19,9.22,0.00,-0.00,-0.00,0.00
2026-06-26 19:04:57.029,994.09,994.06,-2.63,-2.15,0.00,1.43,0.19,9.22,0.00,-0.00,-0.00,0.00
2026-06-26 19:04:57.030,994.09,994.06,-2.63,-2.15,0.00,1.42,0.21,9.24,0.00,0.00,0.00,0.00
2026-06-26 19:04:57.032,994.09,994.06,-2.63,-2.15,0.00,1.42,0.21,9.24,0.00,0.00,0.00,0.00
2026-06-26 19:04:57.034,994.09,994.06,-2.63,-2.15,0.00,1.42,0.21,9.24,0.00,0.00,0.00,0.00
2026-06-26 19:04:57.039,994.09,994.06,-2.63,-2.15,0.00,1.42,0.21,9.24,-0.00,0.00,0.00,0.00
2026-06-26 19:04:57.079,994.09,994.06,-2.47,-2.08,0.00,1.42,0.20,9.24,-0.00,-0.00,0.00,0.00
2026-06-26 19:04:57.081,994.09,994.06,-2.47,-2.08,0.00,1.40,0.20,9.18,-0.00,-0.00,0.00,0.00
2026-06-26 19:04:57.082,994.09,994.06,-2.47,-2.08,0.00,1.40,0.20,9.18,-0.00,-0.00,0.00,0.00
2026-06-26 19:04:57.085,994.09,994.06,-2.47,-2.08,0.00,1.40,0.20,9.18,-0.00,-0.00,0.00,0.00
2026-06-26 19:04:57.089,994.09,994.06,-2.47,-2.08,0.00,1.40,0.20,9.18,0.00,-0.00,0.00,0.00
2026-06-26 19:04:57.091,994.09,994.06,-2.47,-2.08,0.00,1.43,0.20,9.19,0.00,-0.00,0.00,0.00
2026-06-26 19:04:57.096,994.09,994.06,-2.47,-2.08,0.00,1.43,0.20,9.19,0.00,-0.00,0.00,0.00
2026-06-26 19:04:57.099,994.09,994.06,-2.47,-2.08,0.00,1.43,0.20,9.19,0.00,0.00,-0.00,0.00
2026-06-26 19:04:57.101,994.09,994.06,-2.47,-2.08,0.00,1.43,0.18,9.20,0.00,0.00,-0.00,0.00
2026-06-26 19:04:57.103,994.09,994.06,-2.47,-2.08,0.00,1.43,0.18,9.20,0.00,0.00,-0.00,0.00
2026-06-26 19:04:57.143,994.09,994.06,-2.92,-2.26,0.00,1.43,0.20,9.21,0.00,0.00,-0.00,0.00
2026-06-26 19:04:57.149,994.09,994.06,-2.92,-2.26,0.00,1.43,0.20,9.21,0.00,0.00,-0.00,0.00
2026-06-26 19:04:57.151,994.09,994.06,-2.92,-2.26,0.00,1.43,0.21,9.24,0.00,-0.00,0.00,0.00
2026-06-26 19:04:57.153,994.09,994.06,-2.92,-2.26,0.00,1.43,0.21,9.24,0.00,-0.00,0.00,0.00
2026-06-26 19:04:57.159,994.09,994.06,-2.92,-2.26,0.00,1.43,0.21,9.24,0.00,-0.00,0.00,0.00
2026-06-26 19:04:57.161,994.09,994.06,-2.92,-2.26,0.00,1.41,0.20,9.21,0.00,-0.00,0.00,0.00
2026-06-26 19:04:57.163,994.09,994.06,-2.92,-2.26,0.00,1.41,0.20,9.21,0.00,-0.00,0.00,0.00
2026-06-26 19:04:57.166,994.09,994.06,-2.92,-2.26,0.00,1.41,0.20,9.21,0.00,-0.00,0.00,0.00
2026-06-26 19:04:57.169,994.09,994.06,-2.92,-2.26,0.00,1.41,0.20,9.21,0.00,0.00,0.00,0.00
2026-06-26 19:04:57.171,994.09,994.06,-2.92,-2.26,0.00,1.42,0.19,9.22,0.00,0.00,0.00,0.00
2026-06-26 19:04:57.172,994.09,994.06,-2.92,-2.26,0.00,1.42,0.19,9.22,0.00,0.00,0.00,0.00
2026-06-26 19:04:57.176,994.09,994.06,-2.92,-2.26,0.00,1.42,0.19,9.22,0.00,0.00,0.00,0.00
2026-06-26 19:04:57.221,994.09,994.06,-3.23,-2.38,0.00,1.45,0.20,9.23,0.00,-0.00,0.00,0.00
2026-06-26 19:04:57.226,994.09,994.06,-3.23,-2.38,0.00,1.43,0.20,9.22,0.00,-0.00,0.00,0.00
2026-06-26 19:04:57.230,994.09,994.06,-3.23,-2.38,0.00,1.43,0.20,9.22,0.00,-0.00,0.00,0.00
2026-06-26 19:04:57.232,994.09,994.06,-3.23,-2.38,0.00,1.44,0.19,9.18,0.00,-0.00,0.00,0.00
2026-06-26 19:04:57.233,994.09,994.06,-3.23,-2.38,0.00,1.44,0.19,9.18,0.00,-0.00,0.00,0.00
2026-06-26 19:04:57.240,994.09,994.06,-3.23,-2.38,0.00,1.44,0.19,9.18,0.00,-0.00,0.00,0.00
2026-06-26 19:04:57.242,994.09,994.06,-3.23,-2.38,0.00,1.42,0.22,9.19,0.00,0.00,-0.00,0.00
2026-06-26 19:04:57.282,994.09,994.06,-2.96,-2.28,0.00,1.43,0.18,9.24,0.00,0.01,0.00,0.00
2026-06-26 19:04:57.284,994.09,994.06,-2.96,-2.28,0.00,1.43,0.18,9.24,0.00,0.01,0.00,0.00
2026-06-26 19:04:57.289,994.09,994.06,-2.96,-2.28,0.00,1.43,0.18,9.24,0.00,0.00,0.00,0.00
2026-06-26 19:04:57.291,994.09,994.06,-2.96,-2.28,0.00,1.43,0.19,9.23,0.00,0.00,0.00,0.00
2026-06-26 19:04:57.293,994.09,994.06,-2.96,-2.28,0.00,1.43,0.19,9.23,0.00,0.00,0.00,0.00
2026-06-26 19:04:57.298,994.09,994.06,-2.96,-2.28,0.00,1.43,0.19,9.23,0.00,0.00,0.00,0.00
2026-06-26 19:04:57.300,994.09,994.06,-2.96,-2.28,0.00,1.42,0.20,9.24,-0.00,0.00,0.00,0.00
2026-06-26 19:04:57.302,994.09,994.06,-2.96,-2.28,0.00,1.42,0.20,9.24,-0.00,0.00,0.00,0.00
2026-06-26 19:04:57.309,994.09,994.06,-2.96,-2.28,0.00,1.42,0.20,9.24,-0.00,0.00,0.00,0.00
2026-06-26 19:04:57.311,994.09,994.06,-2.96,-2.28,0.00,1.42,0.20,9.22,0.00,-0.00,0.00,0.00
2026-06-26 19:04:57.313,994.09,994.06,-2.96,-2.28,0.00,1.42,0.20,9.22,0.00,-0.00,0.00,0.00
2026-06-26 19:04:57.314,994.09,994.06,-2.96,-2.28,0.00,1.42,0.20,9.22,0.00,-0.00,0.00,0.00
2026-06-26 19:04:57.316,994.09,994.06,-2.96,-2.28,0.00,1.42,0.20,9.22,0.00,-0.00,0.00,0.00
2026-06-26 19:04:57.317,994.09,994.06,-2.96,-2.28,0.00,1.42,0.20,9.22,0.00,-0.00,0.00,0.00
2026-06-26 19:04:57.362,994.09,994.06,-3.25,-2.39,0.00,1.43,0.22,9.21,0.00,0.00,0.00,0.00
2026-06-26 19:04:57.366,994.09,994.06,-3.25,-2.39,0.00,1.42,0.20,9.23,0.00,0.00,0.00,0.00
2026-06-26 19:04:57.370,994.09,994.06,-3.25,-2.39,0.00,1.42,0.20,9.23,-0.00,0.00,0.00,0.00
2026-06-26 19:04:57.371,994.09,994.06,-3.25,-2.39,0.00,1.43,0.18,9.22,-0.00,0.00,0.00,0.00
2026-06-26 19:04:57.373,994.09,994.06,-3.25,-2.39,0.00,1.43,0.18,9.22,-0.00,0.00,0.00,0.00
2026-06-26 19:04:57.375,994.09,994.06,-3.25,-2.39,0.00,1.43,0.18,9.22,-0.00,0.00,0.00,0.00
2026-06-26 19:04:57.380,994.09,994.06,-3.25,-2.39,0.00,1.43,0.18,9.22,-0.00,0.00,0.00,0.00
2026-06-26 19:04:57.420,994.09,994.06,-3.00,-2.30,0.00,1.43,0.20,9.24,0.00,0.00,0.00,0.00
2026-06-26 19:04:57.422,994.09,994.06,-3.00,-2.30,0.00,1.42,0.19,9.22,0.00,0.00,0.00,0.00
2026-06-26 19:04:57.424,994.09,994.06,-3.00,-2.30,0.00,1.42,0.19,9.22,0.00,0.00,0.00,0.00
2026-06-26 19:04:57.429,994.09,994.06,-3.00,-2.30,0.00,1.42,0.19,9.22,0.00,0.00,0.00,0.00
2026-06-26 19:04:57.431,994.09,994.06,-3.00,-2.30,0.00,1.44,0.21,9.23,0.00,0.00,0.00,0.00
2026-06-26 19:04:57.433,994.09,994.06,-3.00,-2.30,0.00,1.44,0.21,9.23,0.00,0.00,0.00,0.00
2026-06-26 19:04:57.436,994.09,994.06,-3.00,-2.30,0.00,1.44,0.21,9.23,0.00,0.00,0.00,0.00
2026-06-26 19:04:57.440,994.09,994.06,-3.00,-2.30,0.00,1.44,0.21,9.23,0.00,0.00,-0.00,0.00
2026-06-26 19:04:57.442,994.09,994.06,-3.00,-2.30,0.00,1.43,0.18,9.19,0.00,0.00,-0.00,0.00
2026-06-26 19:04:57.444,994.09,994.06,-3.00,-2.30,0.00,1.43,0.18,9.19,0.00,0.00,-0.00,0.00
2026-06-26 19:04:57.449,994.09,994.06,-3.00,-2.30,0.00,1.43,0.18,9.19,0.00,0.00,-0.00,0.00
2026-06-26 19:04:57.451,994.09,994.06,-3.00,-2.30,0.00,1.41,0.19,9.22,0.00,-0.00,-0.00,0.00
2026-06-26 19:04:57.452,994.09,994.06,-3.00,-2.30,0.00,1.41,0.19,9.22,0.00,-0.00,-0.00,0.00
2026-06-26 19:04:57.458,994.09,994.06,-3.00,-2.30,0.00,1.41,0.19,9.22,0.00,-0.00,-0.00,0.00
2026-06-26 19:04:57.502,994.09,994.05,-3.35,-2.43,0.00,1.41,0.22,9.18,0.00,0.00,0.00,0.00
2026-06-26 19:04:57.503,994.09,994.05,-3.35,-2.43,0.00,1.41,0.22,9.18,0.00,0.00,0.00,0.00
2026-06-26 19:04:57.509,994.09,994.05,-3.35,-2.43,0.00,1.41,0.22,9.18,0.00,0.00,0.00,0.00
2026-06-26 19:04:57.511,994.09,994.05,-3.35,-2.43,0.00,1.42,0.20,9.22,-0.00,0.00,-0.00,0.00
2026-06-26 19:04:57.513,994.09,994.05,-3.35,-2.43,0.00,1.42,0.20,9.22,-0.00,0.00,-0.00,0.00
2026-06-26 19:04:57.514,994.09,994.05,-3.35,-2.43,0.00,1.42,0.20,9.22,-0.00,0.00,-0.00,0.00
2026-06-26 19:04:57.516,994.09,994.05,-3.35,-2.43,0.00,1.42,0.20,9.22,-0.00,0.00,-0.00,0.00
2026-06-26 19:04:57.517,994.09,994.05,-3.35,-2.43,0.00,1.42,0.20,9.22,-0.00,0.00,-0.00,0.00
2026-06-26 19:04:57.521,994.09,994.05,-3.35,-2.43,0.00,1.45,0.19,9.22,-0.00,-0.00,-0.00,0.00
2026-06-26 19:04:57.561,994.09,994.05,-3.39,-2.44,0.00,1.40,0.21,9.23,0.00,0.00,0.00,0.00
2026-06-26 19:04:57.563,994.09,994.05,-3.39,-2.44,0.00,1.40,0.21,9.23,0.00,0.00,0.00,0.00
2026-06-26 19:04:57.565,994.09,994.05,-3.39,-2.44,0.00,1.40,0.21,9.23,0.00,0.00,0.00,0.00
2026-06-26 19:04:57.566,994.09,994.05,-3.39,-2.44,0.00,1.40,0.21,9.23,0.00,0.00,0.00,0.00
2026-06-26 19:04:57.568,994.09,994.05,-3.39,-2.44,0.00,1.40,0.21,9.23,0.00,0.00,0.00,0.00
2026-06-26 19:04:57.571,994.09,994.05,-3.39,-2.44,0.00,1.40,0.21,9.23,0.00,0.00,0.00,0.00
2026-06-26 19:04:57.577,994.09,994.05,-3.39,-2.44,0.00,1.42,0.20,9.22,0.00,0.00,0.00,0.00
2026-06-26 19:04:57.581,994.09,994.05,-3.39,-2.44,0.00,1.44,0.18,9.21,-0.00,-0.00,0.00,0.00
2026-06-26 19:04:57.583,994.09,994.05,-3.39,-2.44,0.00,1.44,0.18,9.21,-0.00,-0.00,0.00,0.00
2026-06-26 19:04:57.585,994.09,994.05,-3.39,-2.44,0.00,1.44,0.18,9.21,-0.00,-0.00,0.00,0.00
2026-06-26 19:04:57.590,994.09,994.05,-3.39,-2.44,0.00,1.44,0.18,9.21,-0.00,-0.00,0.00,0.00
2026-06-26 19:04:57.592,994.09,994.05,-3.39,-2.44,0.00,1.43,0.21,9.21,-0.00,-0.00,0.00,0.00
2026-06-26 19:04:57.593,994.09,994.05,-3.39,-2.44,0.00,1.43,0.21,9.21,-0.00,-0.00,0.00,0.00
2026-06-26 19:04:57.596,994.09,994.05,-3.39,-2.44,0.00,1.43,0.21,9.21,-0.00,-0.00,0.00,0.00
2026-06-26 19:04:57.601,994.09,994.05,-3.39,-2.44,0.00,1.43,0.21,9.21,0.00,0.00,0.00,0.00
2026-06-26 19:04:57.644,994.09,994.06,-2.75,-2.20,0.00,1.43,0.22,9.19,0.00,0.00,0.00,0.00
2026-06-26 19:04:57.649,994.09,994.06,-2.75,-2.20,0.00,1.43,0.22,9.19,0.00,0.00,0.00,0.00
2026-06-26 19:04:57.651,994.09,994.06,-2.75,-2.20,0.00,1.42,0.20,9.20,-0.00,0.01,0.00,0.00
2026-06-26 19:04:57.653,994.09,994.06,-2.75,-2.20,0.00,1.42,0.20,9.20,-0.00,0.01,0.00,0.00
2026-06-26 19:04:57.654,994.09,994.06,-2.75,-2.20,0.00,1.42,0.20,9.20,-0.00,0.01,0.00,0.00
2026-06-26 19:04:57.660,994.09,994.06,-2.75,-2.20,0.00,1.42,0.20,9.20,-0.00,0.01,0.00,0.00
2026-06-26 19:04:57.704,994.09,994.06,-2.81,-2.22,0.00,1.42,0.19,9.21,0.00,-0.00,-0.00,0.00
2026-06-26 19:04:57.709,994.09,994.06,-2.81,-2.22,0.00,1.42,0.19,9.21,0.00,-0.00,-0.00,0.00
2026-06-26 19:04:57.712,994.09,994.06,-2.81,-2.22,0.00,1.42,0.19,9.23,-0.00,0.00,0.00,0.00
2026-06-26 19:04:57.714,994.09,994.06,-2.81,-2.22,0.00,1.42,0.19,9.23,-0.00,0.00,0.00,0.00
2026-06-26 19:04:57.716,994.09,994.06,-2.81,-2.22,0.00,1.42,0.19,9.23,-0.00,0.00,0.00,0.00
2026-06-26 19:04:57.720,994.09,994.06,-2.81,-2.22,0.00,1.42,0.19,9.23,-0.00,0.00,0.00,0.00
2026-06-26 19:04:57.721,994.09,994.06,-2.81,-2.22,0.00,1.45,0.20,9.20,0.00,0.00,0.00,0.00
2026-06-26 19:04:57.725,994.09,994.06,-2.81,-2.22,0.00,1.45,0.20,9.20,0.00,0.00,0.00,0.00
2026-06-26 19:04:57.730,994.09,994.06,-2.81,-2.22,0.00,1.45,0.20,9.20,0.00,0.00,0.00,0.00
2026-06-26 19:04:57.732,994.09,994.06,-2.81,-2.22,0.00,1.44,0.18,9.23,0.00,0.00,0.00,0.00
2026-06-26 19:04:57.734,994.09,994.06,-2.81,-2.22,0.00,1.44,0.18,9.23,0.00,0.00,0.00,0.00
2026-06-26 19:04:57.737,994.09,994.06,-2.81,-2.22,0.00,1.44,0.18,9.23,0.00,0.00,0.00,0.00
2026-06-26 19:04:57.741,994.09,994.06,-2.81,-2.22,0.00,1.44,0.18,9.23,0.00,-0.00,0.00,0.00
2026-06-26 19:04:57.744,994.09,994.06,-2.81,-2.22,0.00,1.43,0.20,9.19,0.00,-0.00,0.00,0.00
2026-06-26 19:04:57.783,994.09,994.06,-2.69,-2.17,0.00,1.44,0.19,9.27,0.00,0.00,-0.00,0.00
2026-06-26 19:04:57.786,994.09,994.06,-2.69,-2.17,0.00,1.44,0.19,9.27,0.00,0.00,-0.00,0.00
2026-06-26 19:04:57.791,994.09,994.06,-2.69,-2.17,0.00,1.44,0.19,9.27,0.00,0.00,0.00,0.00
2026-06-26 19:04:57.793,994.09,994.06,-2.69,-2.17,0.00,1.42,0.21,9.20,0.00,0.00,0.00,0.00
2026-06-26 19:04:57.794,994.09,994.06,-2.69,-2.17,0.00,1.42,0.21,9.20,0.00,0.00,0.00,0.00
2026-06-26 19:04:57.800,994.09,994.06,-2.69,-2.17,0.00,1.42,0.21,9.20,0.00,0.00,0.00,0.00
2026-06-26 19:04:57.802,994.09,994.06,-2.69,-2.17,0.00,1.43,0.20,9.20,-0.00,0.00,0.00,0.00
2026-06-26 19:04:57.803,994.09,994.06,-2.69,-2.17,0.00,1.43,0.20,9.20,-0.00,0.00,0.00,0.00
2026-06-26 19:04:57.846,994.09,994.06,-2.61,-2.14,0.00,1.42,0.19,9.18,0.00,0.00,0.00,0.00
2026-06-26 19:04:57.851,994.09,994.06,-2.61,-2.14,0.00,1.42,0.19,9.18,0.00,0.00,0.00,0.00
2026-06-26 19:04:57.853,994.09,994.06,-2.61,-2.14,0.00,1.43,0.20,9.22,0.00,0.00,0.00,0.00
2026-06-26 19:04:57.857,994.09,994.06,-2.61,-2.14,0.00,1.43,0.20,9.22,0.00,0.00,0.00,0.00
2026-06-26 19:04:57.863,994.09,994.06,-2.61,-2.14,0.00,1.42,0.22,9.22,0.00,0.00,-0.00,0.00
2026-06-26 19:04:57.865,994.09,994.06,-2.61,-2.14,0.00,1.42,0.22,9.22,0.00,0.00,-0.00,0.00
2026-06-26 19:04:57.867,994.09,994.06,-2.61,-2.14,0.00,1.42,0.22,9.22,0.00,0.00,-0.00,0.00
2026-06-26 19:04:57.871,994.09,994.06,-2.61,-2.14,0.00,1.42,0.22,9.22,0.00,0.00,-0.00,0.00
2026-06-26 19:04:57.873,994.09,994.06,-2.61,-2.14,0.00,1.42,0.20,9.23,-0.00,0.00,0.00,0.00
2026-06-26 19:04:57.874,994.09,994.06,-2.61,-2.14,0.00,1.42,0.20,9.23,-0.00,0.00,0.00,0.00
2026-06-26 19:04:57.880,994.09,994.06,-2.61,-2.14,0.00,1.42,0.20,9.23,-0.00,0.00,0.00,0.00
2026-06-26 19:04:57.887,994.09,994.06,-2.61,-2.14,0.00,1.44,0.21,9.21,-0.00,0.00,0.00,0.00
2026-06-26 19:04:57.931,994.09,994.06,-2.44,-2.07,0.00,1.42,0.19,9.19,0.00,0.00,0.00,0.00
2026-06-26 19:04:57.934,994.09,994.06,-2.44,-2.07,0.00,1.42,0.21,9.20,0.00,0.00,-0.00,0.00
2026-06-26 19:04:57.940,994.09,994.06,-2.44,-2.07,0.00,1.42,0.21,9.20,0.00,0.00,-0.00,0.00
2026-06-26 19:04:57.942,994.09,994.06,-2.44,-2.07,0.00,1.43,0.21,9.19,0.00,0.00,-0.00,0.00
2026-06-26 19:04:57.943,994.09,994.06,-2.44,-2.07,0.00,1.43,0.21,9.19,0.00,0.00,-0.00,0.00
2026-06-26 19:04:57.991,994.09,994.06,-2.40,-2.05,0.00,1.43,0.21,9.22,0.00,0.00,-0.00,0.00
2026-06-26 19:04:57.993,994.09,994.06,-2.40,-2.05,0.00,1.44,0.19,9.19,0.00,0.00,0.00,0.00
2026-06-26 19:04:57.994,994.09,994.06,-2.40,-2.05,0.00,1.44,0.19,9.19,0.00,0.00,0.00,0.00
2026-06-26 19:04:57.000,994.09,994.06,-2.40,-2.05,0.00,1.44,0.19,9.19,0.00,0.00,0.00,0.00
2026-06-26 19:04:57.002,994.09,994.06,-2.40,-2.05,0.00,1.43,0.19,9.21,0.00,0.00,0.00,0.00
2026-06-26 19:04:58.003,994.09,994.06,-2.40,-2.05,0.00,1.43,0.19,9.21,0.00,0.00,0.00,0.00
2026-06-26 19:04:58.005,994.09,994.06,-2.40,-2.05,0.00,1.43,0.19,9.21,0.00,0.00,0.00,0.00
2026-06-26 19:04:58.010,994.09,994.06,-2.40,-2.05,0.00,1.43,0.19,9.21,0.00,0.00,0.00,0.00
2026-06-26 19:04:58.012,994.09,994.06,-2.40,-2.05,0.00,1.43,0.21,9.21,0.00,0.00,-0.00,0.00
2026-06-26 19:04:58.014,994.09,994.06,-2.40,-2.05,0.00,1.43,0.21,9.21,0.00,0.00,-0.00,0.00
2026-06-26 19:04:58.016,994.09,994.06,-2.40,-2.05,0.00,1.43,0.21,9.21,0.00,0.00,-0.00,0.00
2026-06-26 19:04:58.017,994.09,994.06,-2.40,-2.05,0.00,1.43,0.21,9.21,0.00,0.00,-0.00,0.00
2026-06-26 19:04:58.019,994.09,994.06,-2.40,-2.05,0.00,1.43,0.21,9.21,0.00,0.00,-0.00,0.00
2026-06-26 19:04:58.022,994.09,994.06,-2.40,-2.05,0.00,1.43,0.21,9.21,0.00,0.00,0.00,0.00
2026-06-26 19:04:58.023,994.09,994.06,-2.40,-2.05,0.00,1.41,0.21,9.20,0.00,0.00,0.00,0.00
2026-06-26 19:04:58.025,994.09,994.06,-2.40,-2.05,0.00,1.41,0.21,9.20,0.00,0.00,0.00,0.00
2026-06-26 19:04:58.030,994.09,994.06,-2.40,-2.05,0.00,1.41,0.21,9.20,0.00,0.00,0.00,0.00
2026-06-26 19:04:58.075,994.09,994.06,-2.57,-2.13,0.00,1.42,0.21,9.22,0.00,-0.00,0.00,0.00
2026-06-26 19:04:58.081,994.09,994.06,-2.57,-2.13,0.00,1.42,0.21,9.22,0.00,-0.00,0.00,0.00
2026-06-26 19:04:58.083,994.09,994.06,-2.57,-2.13,0.00,1.44,0.22,9.23,0.00,-0.00,0.00,0.00
2026-06-26 19:04:58.084,994.09,994.06,-2.57,-2.13,0.00,1.44,0.22,9.23,0.00,-0.00,0.00,0.00
2026-06-26 19:04:58.086,994.09,994.06,-2.57,-2.13,0.00,1.44,0.22,9.23,0.00,-0.00,0.00,0.00
2026-06-26 19:04:58.124,994.09,994.06,-2.71,-2.18,0.00,1.43,0.19,9.22,0.00,-0.00,0.00,0.00
2026-06-26 19:04:58.130,994.09,994.06,-2.71,-2.18,0.00,1.43,0.19,9.22,0.00,-0.00,0.00,0.00
2026-06-26 19:04:58.132,994.09,994.06,-2.71,-2.18,0.00,1.41,0.19,9.23,-0.00,-0.00,0.00,0.00
2026-06-26 19:04:58.134,994.09,994.06,-2.71,-2.18,0.00,1.41,0.19,9.23,-0.00,-0.00,0.00,0.00
2026-06-26 19:04:58.135,994.09,994.06,-2.71,-2.18,0.00,1.41,0.19,9.23,-0.00,-0.00,0.00,0.00
2026-06-26 19:04:58.141,994.09,994.06,-2.71,-2.18,0.00,1.41,0.19,9.23,-0.00,-0.00,0.00,0.00
2026-06-26 19:04:58.143,994.09,994.06,-2.71,-2.18,0.00,1.43,0.19,9.20,-0.00,0.00,0.00,0.00
2026-06-26 19:04:58.145,994.09,994.06,-2.71,-2.18,0.00,1.43,0.19,9.20,-0.00,0.00,0.00,0.00
2026-06-26 19:04:58.150,994.09,994.06,-2.71,-2.18,0.00,1.43,0.19,9.20,-0.00,0.00,0.00,0.00
2026-06-26 19:04:58.152,994.09,994.06,-2.71,-2.18,0.00,1.43,0.21,9.20,-0.00,0.00,-0.00,0.00
2026-06-26 19:04:58.154,994.09,994.06,-2.71,-2.18,0.00,1.43,0.21,9.20,-0.00,0.00,-0.00,0.00
2026-06-26 19:04:58.156,994.09,994.06,-2.71,-2.18,0.00,1.43,0.21,9.20,-0.00,0.00,-0.00,0.00
2026-06-26 19:04:58.161,994.09,994.06,-2.71,-2.18,0.00,1.43,0.21,9.20,-0.00,0.00,-0.00,0.00
2026-06-26 19:04:58.163,994.09,994.06,-2.71,-2.18,0.00,1.43,0.19,9.21,0.00,0.00,0.00,0.00
2026-06-26 19:04:58.165,994.09,994.06,-2.71,-2.18,0.00,1.43,0.19,9.21,0.00,0.00,0.00,0.00
2026-06-26 19:04:58.166,994.09,994.06,-2.71,-2.18,0.00,1.43,0.19,9.21,0.00,0.00,0.00,0.00
2026-06-26 19:04:58.168,994.09,994.06,-2.71,-2.18,0.00,1.43,0.19,9.21,0.00,0.00,0.00,0.00
2026-06-26 19:04:58.170,994.09,994.06,-2.71,-2.18,0.00,1.43,0.19,9.21,0.00,0.00,0.00,0.00
2026-06-26 19:04:58.173,994.09,994.06,-2.71,-2.18,0.00,1.42,0.18,9.24,-0.00,0.00,0.00,0.00
2026-06-26 19:04:58.217,994.09,994.06,-2.77,-2.20,0.00,1.43,0.18,9.20,0.00,0.00,0.00,0.00
2026-06-26 19:04:58.221,994.09,994.06,-2.77,-2.20,0.00,1.43,0.18,9.20,0.00,0.00,0.00,0.00
2026-06-26 19:04:58.223,994.09,994.06,-2.77,-2.20,0.00,1.44,0.18,9.23,0.00,-0.00,0.00,0.00
2026-06-26 19:04:58.263,994.09,994.06,-2.66,-2.16,0.00,1.42,0.19,9.27,-0.00,0.00,0.00,0.00
2026-06-26 19:04:58.265,994.09,994.06,-2.66,-2.16,0.00,1.42,0.19,9.27,-0.00,0.00,0.00,0.00
2026-06-26 19:04:58.269,994.09,994.06,-2.66,-2.16,0.00,1.42,0.19,9.27,-0.00,0.00,0.00,0.00
2026-06-26 19:04:58.272,994.09,994.06,-2.66,-2.16,0.00,1.42,0.19,9.27,-0.00,0.00,0.00,0.00
2026-06-26 19:04:58.274,994.09,994.06,-2.66,-2.16,0.00,1.42,0.19,9.21,-0.00,0.00,0.00,0.00
2026-06-26 19:04:58.276,994.09,994.06,-2.66,-2.16,0.00,1.42,0.19,9.21,-0.00,0.00,0.00,0.00
2026-06-26 19:04:58.281,994.09,994.06,-2.66,-2.16,0.00,1.42,0.19,9.21,-0.00,0.00,0.00,0.00
2026-06-26 19:04:58.283,994.09,994.06,-2.66,-2.16,0.00,1.42,0.22,9.21,-0.00,0.00,-0.00,0.00
2026-06-26 19:04:58.284,994.09,994.06,-2.66,-2.16,0.00,1.42,0.22,9.21,-0.00,0.00,-0.00,0.00
2026-06-26 19:04:58.286,994.09,994.06,-2.66,-2.16,0.00,1.42,0.22,9.21,-0.00,0.00,-0.00,0.00
2026-06-26 19:04:58.292,994.09,994.06,-2.66,-2.16,0.00,1.42,0.22,9.21,-0.00,0.00,-0.00,0.00
2026-06-26 19:04:58.294,994.09,994.06,-2.66,-2.16,0.00,1.42,0.19,9.20,0.00,-0.00,-0.00,0.00
2026-06-26 19:04:58.296,994.09,994.06,-2.66,-2.16,0.00,1.42,0.19,9.20,0.00,-0.00,-0.00,0.00
2026-06-26 19:04:58.302,994.09,994.06,-2.66,-2.16,0.00,1.42,0.19,9.20,0.00,0.00,-0.00,0.00
2026-06-26 19:04:58.304,994.09,994.06,-2.66,-2.16,0.00,1.44,0.18,9.23,0.00,0.00,-0.00,0.00
2026-06-26 19:04:58.305,994.09,994.06,-2.66,-2.16,0.00,1.44,0.18,9.23,0.00,0.00,-0.00,0.00
2026-06-26 19:04:58.313,994.09,994.06,-2.66,-2.16,0.00,1.44,0.18,9.23,0.00,0.00,0.00,0.00
2026-06-26 19:04:58.315,994.09,994.06,-2.66,-2.16,0.00,1.43,0.20,9.23,0.00,0.00,0.00,0.00
2026-06-26 19:04:58.316,994.09,994.06,-2.66,-2.16,0.00,1.43,0.20,9.23,0.00,0.00,0.00,0.00
2026-06-26 19:04:58.354,994.09,994.06,-2.43,-2.06,0.00,1.44,0.18,9.21,-0.00,0.00,0.00,0.00
2026-06-26 19:04:58.356,994.09,994.06,-2.43,-2.06,0.00,1.44,0.18,9.21,-0.00,0.00,0.00,0.00
2026-06-26 19:04:58.362,994.09,994.06,-2.43,-2.06,0.00,1.44,0.18,9.21,-0.00,0.00,0.00,0.00
2026-06-26 19:04:58.413,994.09,994.06,-2.70,-2.17,0.00,1.43,0.21,9.20,-0.00,0.00,-0.00,0.00
2026-06-26 19:04:58.415,994.09,994.06,-2.70,-2.17,0.00,1.43,0.20,9.23,0.00,0.00,-0.00,0.00
2026-06-26 19:04:58.418,994.09,994.06,-2.70,-2.17,0.00,1.43,0.20,9.23,0.00,0.00,-0.00,0.00
2026-06-26 19:04:58.422,994.09,994.06,-2.70,-2.17,0.00,1.43,0.20,9.23,0.00,0.00,-0.00,0.00
2026-06-26 19:04:58.424,994.09,994.06,-2.70,-2.17,0.00,1.42,0.19,9.22,0.00,0.00,-0.00,0.00
2026-06-26 19:04:58.426,994.09,994.06,-2.70,-2.17,0.00,1.42,0.19,9.22,0.00,0.00,-0.00,0.00
2026-06-26 19:04:58.435,994.09,994.06,-2.70,-2.17,0.00,1.42,0.19,9.22,0.00,0.00,-0.00,0.00
2026-06-26 19:04:58.442,994.09,994.06,-2.70,-2.17,0.00,1.44,0.20,9.23,-0.00,0.00,-0.00,0.00
2026-06-26 19:04:58.443,994.09,994.06,-2.70,-2.17,0.00,1.43,0.21,9.21,0.00,0.00,-0.00,0.00
2026-06-26 19:04:58.445,994.09,994.06,-2.70,-2.17,0.00,1.43,0.21,9.21,0.00,0.00,-0.00,0.00
2026-06-26 19:04:58.447,994.09,994.06,-2.70,-2.17,0.00,1.43,0.21,9.21,0.00,0.00,-0.00,0.00
2026-06-26 19:04:58.452,994.09,994.06,-2.70,-2.17,0.00,1.43,0.21,9.21,0.00,0.00,-0.00,0.00
2026-06-26 19:04:58.453,994.09,994.06,-2.70,-2.17,0.00,1.47,0.20,9.21,0.00,0.00,-0.00,0.00
2026-06-26 19:04:58.496,994.09,994.06,-2.52,-2.10,0.00,1.42,0.18,9.22,0.00,0.00,-0.00,0.00
2026-06-26 19:04:58.502,994.09,994.06,-2.52,-2.10,0.00,1.42,0.18,9.22,0.00,0.00,-0.00,0.00
2026-06-26 19:04:58.506,994.09,994.06,-2.52,-2.10,0.00,1.42,0.20,9.23,-0.00,-0.00,0.00,0.00
2026-06-26 19:04:58.545,994.09,994.06,-2.48,-2.09,0.00,1.42,0.21,9.17,0.00,0.00,-0.00,0.00
