timestamp,pressure_bag,pressure_bme,diff_pressure,v_wind_est,speed,accel_x,accel_y,accel_z,gyro_x,gyro_y,gyro_z,power
2026-06-26 17:57:51.068,994.18,994.15,-2.42,-2.06,0.00,1.03,0.30,9.28,-0.00,0.00,-0.00,0.00
2026-06-26 17:57:51.069,994.18,994.15,-2.42,-2.06,0.00,1.01,0.28,9.29,-0.00,0.00,-0.00,0.00
2026-06-26 17:57:51.071,994.18,994.15,-2.42,-2.06,0.00,1.01,0.28,9.29,-0.00,0.00,-0.00,0.00
2026-06-26 17:57:51.075,994.18,994.15,-2.42,-2.06,0.00,1.01,0.28,9.29,-0.00,0.00,-0.00,0.00
2026-06-26 17:57:51.078,994.18,994.15,-2.42,-2.06,0.00,1.00,0.31,9.26,-0.00,0.00,0.00,0.00
2026-06-26 17:57:51.079,994.18,994.15,-2.42,-2.06,0.00,1.00,0.31,9.26,-0.00,0.00,0.00,0.00
2026-06-26 17:57:51.080,994.18,994.15,-2.42,-2.06,0.00,1.00,0.31,9.26,-0.00,0.00,0.00,0.00
2026-06-26 17:57:51.081,994.18,994.15,-2.42,-2.06,0.00,1.00,0.31,9.26,-0.00,0.00,0.00,0.00
2026-06-26 17:57:51.087,994.18,994.15,-2.42,-2.06,0.00,1.00,0.31,9.26,-0.00,0.00,0.00,0.00
2026-06-26 17:57:51.089,994.18,994.15,-2.42,-2.06,0.00,1.01,0.31,9.25,-0.00,-0.00,0.00,0.00
2026-06-26 17:57:51.091,994.18,994.15,-2.42,-2.06,0.00,1.01,0.31,9.25,-0.00,-0.00,0.00,0.00
2026-06-26 17:57:51.092,994.18,994.15,-2.42,-2.06,0.00,1.01,0.31,9.25,-0.00,-0.00,0.00,0.00
2026-06-26 17:57:51.097,994.18,994.15,-2.42,-2.06,0.00,1.01,0.31,9.25,-0.00,-0.00,0.00,0.00
2026-06-26 17:57:51.099,994.18,994.15,-2.42,-2.06,0.00,1.01,0.29,9.26,-0.00,-0.00,0.00,0.00
2026-06-26 17:57:51.100,994.18,994.15,-2.42,-2.06,0.00,1.01,0.29,9.26,-0.00,-0.00,0.00,0.00
2026-06-26 17:57:51.102,994.18,994.15,-2.42,-2.06,0.00,1.01,0.29,9.26,-0.00,-0.00,0.00,0.00
2026-06-26 17:57:51.103,994.18,994.15,-2.42,-2.06,0.00,1.01,0.29,9.26,-0.00,-0.00,0.00,0.00
2026-06-26 17:57:51.107,994.18,994.15,-2.42,-2.06,0.00,1.01,0.29,9.26,-0.00,0.00,0.00,0.00
2026-06-26 17:57:51.109,994.18,994.15,-2.42,-2.06,0.00,1.00,0.27,9.28,-0.00,0.00,0.00,0.00
2026-06-26 17:57:51.111,994.18,994.15,-2.42,-2.06,0.00,1.00,0.27,9.28,-0.00,0.00,0.00,0.00
2026-06-26 17:57:51.119,994.18,994.15,-2.42,-2.06,0.00,1.00,0.27,9.28,-0.00,0.00,0.00,0.00
2026-06-26 17:57:51.122,994.18,994.15,-2.42,-2.06,0.00,1.01,0.29,9.29,-0.00,0.00,0.00,0.00
2026-06-26 17:57:51.129,994.18,994.15,-2.42,-2.06,0.00,1.01,0.29,9.29,0.00,-0.00,0.00,0.00
2026-06-26 17:57:51.211,994.18,994.15,-2.65,-2.16,0.00,1.01,0.31,9.27,-0.00,0.00,0.00,0.00
2026-06-26 17:57:51.214,994.18,994.15,-2.65,-2.16,0.00,1.01,0.31,9.27,-0.00,0.00,0.00,0.00
2026-06-26 17:57:51.221,994.18,994.15,-2.65,-2.16,0.00,1.01,0.31,9.27,0.00,-0.00,-0.00,0.00
2026-06-26 17:57:51.228,994.18,994.15,-2.65,-2.16,0.00,1.02,0.31,9.27,0.00,-0.00,-0.00,0.00
2026-06-26 17:57:51.230,994.18,994.15,-2.65,-2.16,0.00,1.02,0.30,9.26,-0.00,0.00,0.00,0.00
2026-06-26 17:57:51.233,994.18,994.15,-2.65,-2.16,0.00,1.02,0.30,9.26,-0.00,0.00,0.00,0.00
2026-06-26 17:57:51.238,994.18,994.15,-2.65,-2.16,0.00,1.02,0.30,9.26,0.00,-0.00,-0.00,0.00
2026-06-26 17:57:51.240,994.18,994.15,-2.65,-2.16,0.00,1.01,0.29,9.27,0.00,-0.00,-0.00,0.00
2026-06-26 17:57:51.248,994.18,994.15,-2.65,-2.16,0.00,1.01,0.29,9.27,-0.00,0.00,-0.00,0.00
2026-06-26 17:57:51.250,994.18,994.15,-2.65,-2.16,0.00,1.01,0.30,9.27,-0.00,0.00,-0.00,0.00
2026-06-26 17:57:51.252,994.18,994.15,-2.65,-2.16,0.00,1.01,0.30,9.27,-0.00,0.00,-0.00,0.00
2026-06-26 17:57:51.255,994.18,994.15,-2.65,-2.16,0.00,1.01,0.30,9.27,-0.00,0.00,-0.00,0.00
2026-06-26 17:57:51.258,994.18,994.15,-2.65,-2.16,0.00,1.02,0.29,9.26,0.00,0.00,0.00,0.00
2026-06-26 17:57:51.260,994.18,994.15,-2.65,-2.16,0.00,1.02,0.29,9.26,0.00,0.00,0.00,0.00
2026-06-26 17:57:51.262,994.18,994.15,-2.65,-2.16,0.00,1.02,0.29,9.26,0.00,0.00,0.00,0.00
2026-06-26 17:57:51.267,994.18,994.15,-2.65,-2.16,0.00,1.02,0.29,9.26,0.00,0.00,0.00,0.00
2026-06-26 17:57:51.308,994.18,994.15,-3.25,-2.39,0.00,1.03,0.31,9.28,-0.00,0.00,0.00,0.00
2026-06-26 17:57:51.309,994.18,994.15,-3.25,-2.39,0.00,1.02,0.30,9.29,-0.00,0.00,0.00,0.00
2026-06-26 17:57:51.352,994.18,994.15,-3.00,-2.29,0.00,1.02,0.29,9.29,-0.00,-0.00,0.00,0.00
2026-06-26 17:57:51.353,994.18,994.15,-3.00,-2.29,0.00,1.02,0.29,9.29,-0.00,-0.00,0.00,0.00
2026-06-26 17:57:51.354,994.18,994.15,-3.00,-2.29,0.00,1.02,0.29,9.29,-0.00,-0.00,0.00,0.00
2026-06-26 17:57:51.359,994.18,994.15,-3.00,-2.29,0.00,1.02,0.29,9.29,-0.00,0.00,-0.00,0.00
2026-06-26 17:57:51.361,994.18,994.15,-3.00,-2.29,0.00,1.02,0.29,9.27,-0.00,0.00,-0.00,0.00
2026-06-26 17:57:51.367,994.18,994.15,-3.00,-2.29,0.00,1.02,0.29,9.27,-0.00,0.00,-0.00,0.00
2026-06-26 17:57:51.372,994.18,994.15,-3.00,-2.29,0.00,1.01,0.30,9.30,-0.00,0.00,0.00,0.00
2026-06-26 17:57:51.378,994.18,994.15,-3.00,-2.29,0.00,1.01,0.30,9.30,-0.00,0.00,0.00,0.00
2026-06-26 17:57:51.379,994.18,994.15,-3.00,-2.29,0.00,1.01,0.32,9.25,0.00,-0.00,0.00,0.00
2026-06-26 17:57:51.381,994.18,994.15,-3.00,-2.29,0.00,1.01,0.32,9.25,0.00,-0.00,0.00,0.00
2026-06-26 17:57:51.386,994.18,994.15,-3.00,-2.29,0.00,1.01,0.32,9.25,0.00,-0.00,0.00,0.00
2026-06-26 17:57:51.390,994.18,994.15,-3.00,-2.29,0.00,1.01,0.31,9.27,-0.00,0.00,0.00,0.00
2026-06-26 17:57:51.391,994.18,994.15,-3.00,-2.29,0.00,1.01,0.31,9.27,-0.00,0.00,0.00,0.00
2026-06-26 17:57:51.395,994.18,994.15,-3.00,-2.29,0.00,1.01,0.31,9.27,-0.00,0.00,0.00,0.00
2026-06-26 17:57:51.398,994.18,994.15,-3.00,-2.29,0.00,1.01,0.31,9.27,-0.00,0.00,-0.00,0.00
2026-06-26 17:57:51.400,994.18,994.15,-3.00,-2.29,0.00,1.01,0.32,9.27,-0.00,0.00,-0.00,0.00
2026-06-26 17:57:51.401,994.18,994.15,-3.00,-2.29,0.00,1.01,0.32,9.27,-0.00,0.00,-0.00,0.00
2026-06-26 17:57:51.403,994.18,994.15,-3.00,-2.29,0.00,1.01,0.32,9.27,-0.00,0.00,-0.00,0.00
2026-06-26 17:57:51.405,994.18,994.15,-3.00,-2.29,0.00,1.01,0.32,9.27,-0.00,0.00,-0.00,0.00
2026-06-26 17:57:51.449,994.18,994.14,-3.36,-2.43,0.00,1.01,0.30,9.27,-0.00,-0.00,0.00,0.00
2026-06-26 17:57:51.450,994.18,994.14,-3.36,-2.43,0.00,1.01,0.29,9.27,-0.00,-0.00,0.00,0.00
2026-06-26 17:57:51.492,994.18,994.14,-3.72,-2.56,0.00,1.02,0.28,9.28,-0.00,-0.00,0.00,0.00
2026-06-26 17:57:51.498,994.18,994.14,-3.72,-2.56,0.00,1.02,0.28,9.28,-0.00,-0.00,0.00,0.00
2026-06-26 17:57:51.499,994.18,994.14,-3.72,-2.56,0.00,1.01,0.31,9.28,0.00,0.00,0.00,0.00
2026-06-26 17:57:51.501,994.18,994.14,-3.72,-2.56,0.00,1.01,0.31,9.28,0.00,0.00,0.00,0.00
2026-06-26 17:57:51.502,994.18,994.14,-3.72,-2.56,0.00,1.01,0.31,9.28,0.00,0.00,0.00,0.00
2026-06-26 17:57:51.503,994.18,994.14,-3.72,-2.56,0.00,1.01,0.31,9.28,0.00,0.00,0.00,0.00
2026-06-26 17:57:51.504,994.18,994.14,-3.72,-2.56,0.00,1.01,0.31,9.28,0.00,0.00,0.00,0.00
2026-06-26 17:57:51.506,994.18,994.14,-3.72,-2.56,0.00,1.01,0.31,9.28,0.00,0.00,0.00,0.00
2026-06-26 17:57:51.507,994.18,994.14,-3.72,-2.56,0.00,1.01,0.31,9.28,0.00,0.00,0.00,0.00
2026-06-26 17:57:51.509,994.18,994.14,-3.72,-2.56,0.00,1.01,0.29,9.28,-0.00,0.00,-0.00,0.00
2026-06-26 17:57:51.510,994.18,994.14,-3.72,-2.56,0.00,1.01,0.29,9.28,-0.00,0.00,-0.00,0.00
2026-06-26 17:57:51.512,994.18,994.14,-3.72,-2.56,0.00,1.01,0.29,9.28,-0.00,0.00,-0.00,0.00
2026-06-26 17:57:51.517,994.18,994.14,-3.72,-2.56,0.00,1.01,0.29,9.28,-0.00,0.00,-0.00,0.00
2026-06-26 17:57:51.519,994.18,994.14,-3.72,-2.56,0.00,1.03,0.30,9.32,-0.00,0.00,-0.00,0.00
2026-06-26 17:57:51.520,994.18,994.14,-3.72,-2.56,0.00,1.03,0.30,9.32,-0.00,0.00,-0.00,0.00
2026-06-26 17:57:51.522,994.18,994.14,-3.72,-2.56,0.00,1.03,0.30,9.32,-0.00,0.00,-0.00,0.00
2026-06-26 17:57:51.526,994.18,994.14,-3.72,-2.56,0.00,1.03,0.30,9.32,-0.00,0.00,-0.00,0.00
2026-06-26 17:57:51.529,994.18,994.14,-3.72,-2.56,0.00,1.03,0.30,9.32,-0.00,-0.00,-0.00,0.00
2026-06-26 17:57:51.530,994.18,994.14,-3.72,-2.56,0.00,1.00,0.28,9.27,-0.00,-0.00,-0.00,0.00
2026-06-26 17:57:51.531,994.18,994.14,-3.72,-2.56,0.00,1.00,0.28,9.27,-0.00,-0.00,-0.00,0.00
2026-06-26 17:57:51.533,994.18,994.14,-3.72,-2.56,0.00,1.00,0.28,9.27,-0.00,-0.00,-0.00,0.00
2026-06-26 17:57:51.538,994.18,994.14,-3.72,-2.56,0.00,1.00,0.28,9.27,-0.00,-0.00,-0.00,0.00
2026-06-26 17:57:51.540,994.18,994.14,-3.72,-2.56,0.00,1.02,0.30,9.27,0.00,-0.00,0.00,0.00
2026-06-26 17:57:51.541,994.18,994.14,-3.72,-2.56,0.00,1.02,0.30,9.27,0.00,-0.00,0.00,0.00
2026-06-26 17:57:51.542,994.18,994.14,-3.72,-2.56,0.00,1.02,0.30,9.27,0.00,-0.00,0.00,0.00
2026-06-26 17:57:51.545,994.18,994.14,-3.72,-2.56,0.00,1.02,0.30,9.27,0.00,-0.00,0.00,0.00
2026-06-26 17:57:51.549,994.18,994.14,-3.72,-2.56,0.00,1.02,0.30,9.27,-0.00,0.00,0.00,0.00
2026-06-26 17:57:51.590,994.18,994.15,-2.97,-2.28,0.00,1.00,0.32,9.27,0.00,-0.00,0.00,0.00
2026-06-26 17:57:51.592,994.18,994.15,-2.97,-2.28,0.00,1.00,0.32,9.27,0.00,-0.00,0.00,0.00
2026-06-26 17:57:51.639,994.18,994.15,-2.84,-2.23,0.00,1.01,0.30,9.26,0.00,-0.00,0.00,0.00
2026-06-26 17:57:51.641,994.18,994.15,-2.84,-2.23,0.00,1.01,0.28,9.29,0.00,0.00,0.00,0.00
2026-06-26 17:57:51.642,994.18,994.15,-2.84,-2.23,0.00,1.01,0.28,9.29,0.00,0.00,0.00,0.00
2026-06-26 17:57:51.643,994.18,994.15,-2.84,-2.23,0.00,1.01,0.28,9.29,0.00,0.00,0.00,0.00
2026-06-26 17:57:51.648,994.18,994.15,-2.84,-2.23,0.00,1.01,0.28,9.29,0.00,0.00,0.00,0.00
2026-06-26 17:57:51.650,994.18,994.15,-2.84,-2.23,0.00,1.00,0.28,9.30,-0.00,0.00,0.00,0.00
2026-06-26 17:57:51.651,994.18,994.15,-2.84,-2.23,0.00,1.00,0.28,9.30,-0.00,0.00,0.00,0.00
2026-06-26 17:57:51.652,994.18,994.15,-2.84,-2.23,0.00,1.00,0.28,9.30,-0.00,0.00,0.00,0.00
2026-06-26 17:57:51.653,994.18,994.15,-2.84,-2.23,0.00,1.00,0.28,9.30,-0.00,0.00,0.00,0.00
2026-06-26 17:57:51.655,994.18,994.15,-2.84,-2.23,0.00,1.00,0.28,9.30,-0.00,0.00,0.00,0.00
2026-06-26 17:57:51.656,994.18,994.15,-2.84,-2.23,0.00,1.00,0.28,9.30,-0.00,0.00,0.00,0.00
2026-06-26 17:57:51.658,994.18,994.15,-2.84,-2.23,0.00,1.00,0.28,9.30,0.00,0.00,-0.00,0.00
2026-06-26 17:57:51.660,994.18,994.15,-2.84,-2.23,0.00,1.02,0.30,9.27,0.00,0.00,-0.00,0.00
2026-06-26 17:57:51.663,994.18,994.15,-2.84,-2.23,0.00,1.02,0.30,9.27,0.00,0.00,-0.00,0.00
2026-06-26 17:57:51.668,994.18,994.15,-2.84,-2.23,0.00,1.02,0.30,9.27,0.00,0.00,-0.00,0.00
2026-06-26 17:57:51.670,994.18,994.15,-2.84,-2.23,0.00,1.01,0.28,9.27,-0.00,0.00,0.00,0.00
2026-06-26 17:57:51.672,994.18,994.15,-2.84,-2.23,0.00,1.01,0.28,9.27,-0.00,0.00,0.00,0.00
2026-06-26 17:57:51.675,994.18,994.15,-2.84,-2.23,0.00,1.01,0.28,9.27,-0.00,0.00,0.00,0.00
2026-06-26 17:57:51.680,994.18,994.15,-2.84,-2.23,0.00,1.01,0.28,9.27,-0.00,-0.00,0.00,0.00
2026-06-26 17:57:51.681,994.18,994.15,-2.84,-2.23,0.00,1.02,0.30,9.27,-0.00,-0.00,0.00,0.00
2026-06-26 17:57:51.683,994.18,994.15,-2.84,-2.23,0.00,1.02,0.30,9.27,-0.00,-0.00,0.00,0.00
2026-06-26 17:57:51.688,994.18,994.15,-2.84,-2.23,0.00,1.02,0.30,9.27,-0.00,-0.00,0.00,0.00
2026-06-26 17:57:51.690,994.18,994.15,-2.84,-2.23,0.00,1.01,0.31,9.27,-0.00,-0.00,0.00,0.00
2026-06-26 17:57:51.732,994.18,994.14,-3.56,-2.50,0.00,1.00,0.29,9.26,-0.00,0.00,0.00,0.00
2026-06-26 17:57:51.734,994.18,994.14,-3.56,-2.50,0.00,1.00,0.29,9.26,-0.00,0.00,0.00,0.00
2026-06-26 17:57:51.772,994.18,994.14,-3.40,-2.44,0.00,1.02,0.28,9.27,0.00,-0.00,0.00,0.00
2026-06-26 17:57:51.779,994.18,994.14,-3.40,-2.44,0.00,1.02,0.28,9.27,0.00,-0.00,-0.00,0.00
2026-06-26 17:57:51.789,994.18,994.14,-3.40,-2.44,0.00,1.01,0.29,9.29,0.00,-0.00,-0.00,0.00
2026-06-26 17:57:51.791,994.18,994.14,-3.40,-2.44,0.00,1.01,0.30,9.28,0.00,-0.00,0.00,0.00
2026-06-26 17:57:51.793,994.18,994.14,-3.40,-2.44,0.00,1.01,0.30,9.28,0.00,-0.00,0.00,0.00
2026-06-26 17:57:51.799,994.18,994.14,-3.40,-2.44,0.00,1.01,0.30,9.28,-0.00,-0.00,0.00,0.00
2026-06-26 17:57:51.802,994.18,994.14,-3.40,-2.44,0.00,1.01,0.28,9.28,-0.00,-0.00,0.00,0.00
2026-06-26 17:57:51.804,994.18,994.14,-3.40,-2.44,0.00,1.01,0.28,9.28,-0.00,-0.00,0.00,0.00
2026-06-26 17:57:51.809,994.18,994.14,-3.40,-2.44,0.00,1.01,0.28,9.28,0.00,-0.00,-0.00,0.00
2026-06-26 17:57:51.811,994.18,994.14,-3.40,-2.44,0.00,1.02,0.29,9.27,0.00,-0.00,-0.00,0.00
2026-06-26 17:57:51.812,994.18,994.14,-3.40,-2.44,0.00,1.02,0.29,9.27,0.00,-0.00,-0.00,0.00
2026-06-26 17:57:51.818,994.18,994.14,-3.40,-2.44,0.00,1.02,0.29,9.27,0.00,-0.00,-0.00,0.00
2026-06-26 17:57:51.820,994.18,994.14,-3.40,-2.44,0.00,1.03,0.30,9.32,0.00,-0.00,0.00,0.00
2026-06-26 17:57:51.822,994.18,994.14,-3.40,-2.44,0.00,1.03,0.30,9.32,0.00,-0.00,0.00,0.00
2026-06-26 17:57:51.824,994.18,994.14,-3.40,-2.44,0.00,1.03,0.30,9.32,0.00,-0.00,0.00,0.00
2026-06-26 17:57:51.829,994.18,994.14,-3.40,-2.44,0.00,1.03,0.30,9.32,0.00,-0.00,-0.00,0.00
2026-06-26 17:57:51.831,994.18,994.14,-3.40,-2.44,0.00,1.03,0.29,9.27,0.00,-0.00,-0.00,0.00
2026-06-26 17:57:51.918,994.18,994.14,-3.62,-2.52,0.00,0.98,0.28,9.29,0.00,-0.00,-0.00,0.00
2026-06-26 17:57:51.921,994.18,994.14,-3.62,-2.52,0.00,1.01,0.29,9.28,0.00,0.00,0.00,0.00
2026-06-26 17:57:51.922,994.18,994.14,-3.62,-2.52,0.00,1.01,0.29,9.28,0.00,0.00,0.00,0.00
2026-06-26 17:57:51.924,994.18,994.14,-3.62,-2.52,0.00,1.01,0.29,9.28,0.00,0.00,0.00,0.00
2026-06-26 17:57:51.929,994.18,994.14,-3.62,-2.52,0.00,1.01,0.29,9.28,0.00,0.00,0.00,0.00
2026-06-26 17:57:51.930,994.18,994.14,-3.62,-2.52,0.00,1.01,0.30,9.28,0.00,-0.00,0.00,0.00
2026-06-26 17:57:51.931,994.18,994.14,-3.62,-2.52,0.00,1.01,0.30,9.28,0.00,-0.00,0.00,0.00
2026-06-26 17:57:51.932,994.18,994.14,-3.62,-2.52,0.00,1.01,0.30,9.28,0.00,-0.00,0.00,0.00
2026-06-26 17:57:51.934,994.18,994.14,-3.62,-2.52,0.00,1.01,0.30,9.28,0.00,-0.00,0.00,0.00
2026-06-26 17:57:51.937,994.18,994.14,-3.62,-2.52,0.00,1.01,0.30,9.28,0.00,-0.00,0.00,0.00
2026-06-26 17:57:51.941,994.18,994.14,-3.62,-2.52,0.00,1.03,0.29,9.27,0.00,0.00,-0.00,0.00
2026-06-26 17:57:51.946,994.18,994.14,-3.62,-2.52,0.00,1.03,0.29,9.27,0.00,0.00,-0.00,0.00
2026-06-26 17:57:51.950,994.18,994.14,-3.62,-2.52,0.00,1.03,0.29,9.27,-0.00,0.00,-0.00,0.00
2026-06-26 17:57:51.951,994.18,994.14,-3.62,-2.52,0.00,1.01,0.30,9.29,-0.00,0.00,-0.00,0.00
2026-06-26 17:57:51.953,994.18,994.14,-3.62,-2.52,0.00,1.01,0.30,9.29,-0.00,0.00,-0.00,0.00
2026-06-26 17:57:51.955,994.18,994.14,-3.62,-2.52,0.00,1.01,0.30,9.29,-0.00,0.00,-0.00,0.00
2026-06-26 17:57:51.957,994.18,994.14,-3.62,-2.52,0.00,1.01,0.30,9.29,-0.00,0.00,-0.00,0.00
2026-06-26 17:57:51.959,994.18,994.14,-3.62,-2.52,0.00,1.01,0.30,9.29,0.00,-0.00,-0.00,0.00
2026-06-26 17:57:51.961,994.18,994.14,-3.62,-2.52,0.00,1.02,0.28,9.29,0.00,-0.00,-0.00,0.00
2026-06-26 17:57:51.962,994.18,994.14,-3.62,-2.52,0.00,1.02,0.28,9.29,0.00,-0.00,-0.00,0.00
2026-06-26 17:57:51.964,994.18,994.14,-3.62,-2.52,0.00,1.02,0.28,9.29,0.00,-0.00,-0.00,0.00
2026-06-26 17:57:51.969,994.18,994.14,-3.62,-2.52,0.00,1.02,0.28,9.29,0.00,-0.00,-0.00,0.00
2026-06-26 17:57:51.970,994.18,994.14,-3.62,-2.52,0.00,1.02,0.30,9.28,0.00,-0.00,-0.00,0.00
2026-06-26 17:57:51.972,994.18,994.14,-3.62,-2.52,0.00,1.02,0.30,9.28,0.00,-0.00,-0.00,0.00
2026-06-26 17:57:52.010,994.18,994.14,-3.64,-2.53,0.00,1.01,0.29,9.27,0.00,-0.00,0.00,0.00
2026-06-26 17:57:52.011,994.18,994.14,-3.64,-2.53,0.00,1.01,0.29,9.27,0.00,-0.00,0.00,0.00
2026-06-26 17:57:52.012,994.18,994.14,-3.64,-2.53,0.00,1.01,0.29,9.27,0.00,-0.00,0.00,0.00
2026-06-26 17:57:52.014,994.18,994.14,-3.64,-2.53,0.00,1.01,0.29,9.27,0.00,-0.00,0.00,0.00
2026-06-26 17:57:52.058,994.18,994.14,-3.62,-2.52,0.00,1.02,0.29,9.30,0.00,0.00,0.00,0.00
2026-06-26 17:57:52.061,994.18,994.14,-3.62,-2.52,0.00,1.03,0.31,9.27,0.00,-0.00,0.00,0.00
2026-06-26 17:57:52.062,994.18,994.14,-3.62,-2.52,0.00,1.03,0.31,9.27,0.00,-0.00,0.00,0.00
2026-06-26 17:57:52.063,994.18,994.14,-3.62,-2.52,0.00,1.03,0.31,9.27,0.00,-0.00,0.00,0.00
2026-06-26 17:57:52.069,994.18,994.14,-3.62,-2.52,0.00,1.03,0.31,9.27,0.00,-0.00,0.00,0.00
2026-06-26 17:57:52.070,994.18,994.14,-3.62,-2.52,0.00,1.01,0.29,9.27,0.00,0.00,0.00,0.00
2026-06-26 17:57:52.071,994.18,994.14,-3.62,-2.52,0.00,1.01,0.29,9.27,0.00,0.00,0.00,0.00
2026-06-26 17:57:52.073,994.18,994.14,-3.62,-2.52,0.00,1.01,0.29,9.27,0.00,0.00,0.00,0.00
2026-06-26 17:57:52.075,994.18,994.14,-3.62,-2.52,0.00,1.01,0.29,9.27,0.00,0.00,0.00,0.00
2026-06-26 17:57:52.080,994.18,994.14,-3.62,-2.52,0.00,1.01,0.29,9.27,0.00,0.00,0.00,0.00
2026-06-26 17:57:52.087,994.18,994.14,-3.62,-2.52,0.00,1.02,0.30,9.30,0.00,0.00,0.00,0.00
2026-06-26 17:57:52.090,994.18,994.14,-3.62,-2.52,0.00,1.02,0.30,9.30,0.00,0.00,0.00,0.00
2026-06-26 17:57:52.092,994.18,994.14,-3.62,-2.52,0.00,1.02,0.28,9.27,0.00,0.00,0.00,0.00
2026-06-26 17:57:52.093,994.18,994.14,-3.62,-2.52,0.00,1.02,0.28,9.27,0.00,0.00,0.00,0.00
2026-06-26 17:57:52.099,994.18,994.14,-3.62,-2.52,0.00,1.02,0.28,9.27,0.00,0.00,0.00,0.00
2026-06-26 17:57:52.101,994.18,994.14,-3.62,-2.52,0.00,1.01,0.31,9.27,-0.00,-0.00,-0.00,0.00
2026-06-26 17:57:52.103,994.18,994.14,-3.62,-2.52,0.00,1.01,0.31,9.27,-0.00,-0.00,-0.00,0.00
2026-06-26 17:57:52.104,994.18,994.14,-3.62,-2.52,0.00,1.01,0.31,9.27,-0.00,-0.00,-0.00,0.00
2026-06-26 17:57:52.106,994.18,994.14,-3.62,-2.52,0.00,1.01,0.31,9.27,-0.00,-0.00,-0.00,0.00
2026-06-26 17:57:52.110,994.18,994.14,-3.62,-2.52,0.00,1.01,0.30,9.29,0.00,0.00,-0.00,0.00
2026-06-26 17:57:52.153,994.18,994.14,-3.70,-2.55,0.00,1.01,0.27,9.29,0.00,0.00,0.00,0.00
2026-06-26 17:57:52.154,994.18,994.14,-3.70,-2.55,0.00,1.01,0.27,9.29,0.00,0.00,0.00,0.00
2026-06-26 17:57:52.156,994.18,994.14,-3.70,-2.55,0.00,1.01,0.27,9.29,0.00,0.00,0.00,0.00
2026-06-26 17:57:52.200,994.18,994.14,-3.81,-2.59,0.00,1.01,0.28,9.25,0.00,-0.00,0.00,0.00
2026-06-26 17:57:52.201,994.18,994.14,-3.81,-2.59,0.00,1.01,0.30,9.26,0.00,-0.00,0.00,0.00
2026-06-26 17:57:52.203,994.18,994.14,-3.81,-2.59,0.00,1.01,0.30,9.26,0.00,-0.00,0.00,0.00
2026-06-26 17:57:52.204,994.18,994.14,-3.81,-2.59,0.00,1.01,0.30,9.26,0.00,-0.00,0.00,0.00
2026-06-26 17:57:52.205,994.18,994.14,-3.81,-2.59,0.00,1.01,0.30,9.26,0.00,-0.00,0.00,0.00
2026-06-26 17:57:52.206,994.18,994.14,-3.81,-2.59,0.00,1.01,0.30,9.26,0.00,-0.00,0.00,0.00
2026-06-26 17:57:52.209,994.18,994.14,-3.81,-2.59,0.00,1.01,0.30,9.26,0.00,-0.00,0.00,0.00
2026-06-26 17:57:52.211,994.18,994.14,-3.81,-2.59,0.00,1.01,0.30,9.31,-0.00,0.00,0.00,0.00
2026-06-26 17:57:52.212,994.18,994.14,-3.81,-2.59,0.00,1.01,0.30,9.31,-0.00,0.00,0.00,0.00
2026-06-26 17:57:52.215,994.18,994.14,-3.81,-2.59,0.00,1.01,0.30,9.31,-0.00,0.00,0.00,0.00
2026-06-26 17:57:52.219,994.18,994.14,-3.81,-2.59,0.00,1.01,0.30,9.31,0.00,0.00,-0.00,0.00
2026-06-26 17:57:52.221,994.18,994.14,-3.81,-2.59,0.00,1.01,0.29,9.29,0.00,0.00,-0.00,0.00
2026-06-26 17:57:52.222,994.18,994.14,-3.81,-2.59,0.00,1.01,0.29,9.29,0.00,0.00,-0.00,0.00
2026-06-26 17:57:52.223,994.18,994.14,-3.81,-2.59,0.00,1.01,0.29,9.29,0.00,0.00,-0.00,0.00
2026-06-26 17:57:52.226,994.18,994.14,-3.81,-2.59,0.00,1.01,0.29,9.29,0.00,0.00,-0.00,0.00
2026-06-26 17:57:52.230,994.18,994.14,-3.81,-2.59,0.00,1.01,0.29,9.29,0.00,0.00,0.00,0.00
2026-06-26 17:57:52.232,994.18,994.14,-3.81,-2.59,0.00,1.01,0.29,9.27,0.00,0.00,0.00,0.00
2026-06-26 17:57:52.233,994.18,994.14,-3.81,-2.59,0.00,1.01,0.29,9.27,0.00,0.00,0.00,0.00
2026-06-26 17:57:52.239,994.18,994.14,-3.81,-2.59,0.00,1.01,0.29,9.27,0.00,0.00,0.00,0.00
2026-06-26 17:57:52.241,994.18,994.14,-3.81,-2.59,0.00,1.02,0.30,9.26,-0.00,-0.00,-0.00,0.00
2026-06-26 17:57:52.243,994.18,994.14,-3.81,-2.59,0.00,1.02,0.30,9.26,-0.00,-0.00,-0.00,0.00
2026-06-26 17:57:52.247,994.18,994.14,-3.81,-2.59,0.00,1.02,0.30,9.26,-0.00,-0.00,-0.00,0.00
2026-06-26 17:57:52.251,994.18,994.14,-3.81,-2.59,0.00,1.02,0.30,9.26,0.00,0.00,-0.00,0.00
2026-06-26 17:57:52.293,994.18,994.14,-3.57,-2.51,0.00,1.02,0.31,9.28,0.00,-0.00,-0.00,0.00
2026-06-26 17:57:52.298,994.18,994.14,-3.57,-2.51,0.00,1.02,0.31,9.28,0.00,-0.00,-0.00,0.00
2026-06-26 17:57:52.340,994.18,994.14,-3.66,-2.54,0.00,1.01,0.29,9.29,-0.00,-0.00,0.00,0.00
2026-06-26 17:57:52.342,994.18,994.14,-3.66,-2.54,0.00,1.01,0.29,9.29,-0.00,-0.00,0.00,0.00
2026-06-26 17:57:52.348,994.18,994.14,-3.66,-2.54,0.00,1.01,0.29,9.29,-0.00,-0.00,0.00,0.00
2026-06-26 17:57:52.351,994.18,994.14,-3.66,-2.54,0.00,1.01,0.32,9.27,-0.00,-0.00,0.00,0.00
2026-06-26 17:57:52.352,994.18,994.14,-3.66,-2.54,0.00,1.01,0.32,9.27,-0.00,-0.00,0.00,0.00
2026-06-26 17:57:52.353,994.18,994.14,-3.66,-2.54,0.00,1.01,0.32,9.27,-0.00,-0.00,0.00,0.00
2026-06-26 17:57:52.354,994.18,994.14,-3.66,-2.54,0.00,1.01,0.32,9.27,-0.00,-0.00,0.00,0.00
2026-06-26 17:57:52.356,994.18,994.14,-3.66,-2.54,0.00,1.01,0.32,9.27,-0.00,-0.00,0.00,0.00
2026-06-26 17:57:52.357,994.18,994.14,-3.66,-2.54,0.00,1.01,0.32,9.27,-0.00,-0.00,0.00,0.00
2026-06-26 17:57:52.360,994.18,994.14,-3.66,-2.54,0.00,1.01,0.32,9.27,-0.00,-0.00,0.00,0.00
2026-06-26 17:57:52.362,994.18,994.14,-3.66,-2.54,0.00,1.01,0.29,9.28,0.00,-0.00,0.00,0.00
2026-06-26 17:57:52.369,994.18,994.14,-3.66,-2.54,0.00,1.01,0.29,9.28,0.00,-0.00,0.00,0.00
2026-06-26 17:57:52.371,994.18,994.14,-3.66,-2.54,0.00,1.02,0.32,9.30,0.00,-0.00,0.00,0.00
2026-06-26 17:57:52.372,994.18,994.14,-3.66,-2.54,0.00,1.02,0.32,9.30,0.00,-0.00,0.00,0.00
2026-06-26 17:57:52.374,994.18,994.14,-3.66,-2.54,0.00,1.02,0.32,9.30,0.00,-0.00,0.00,0.00
2026-06-26 17:57:52.379,994.18,994.14,-3.66,-2.54,0.00,1.02,0.32,9.30,0.00,-0.00,0.00,0.00
2026-06-26 17:57:52.381,994.18,994.14,-3.66,-2.54,0.00,1.01,0.31,9.27,0.00,0.00,-0.00,0.00
2026-06-26 17:57:52.382,994.18,994.14,-3.66,-2.54,0.00,1.01,0.31,9.27,0.00,0.00,-0.00,0.00
2026-06-26 17:57:52.388,994.18,994.14,-3.66,-2.54,0.00,1.01,0.31,9.27,0.00,0.00,-0.00,0.00
2026-06-26 17:57:52.390,994.18,994.14,-3.66,-2.54,0.00,1.01,0.31,9.27,0.00,-0.00,-0.00,0.00
2026-06-26 17:57:52.392,994.18,994.14,-3.66,-2.54,0.00,1.02,0.28,9.28,0.00,-0.00,-0.00,0.00
2026-06-26 17:57:52.433,994.18,994.14,-3.83,-2.60,0.00,0.99,0.30,9.28,-0.00,-0.01,0.00,0.00
2026-06-26 17:57:52.436,994.18,994.14,-3.83,-2.60,0.00,0.99,0.30,9.28,-0.00,-0.01,0.00,0.00
2026-06-26 17:57:52.441,994.18,994.14,-3.83,-2.60,0.00,0.99,0.30,9.28,-0.00,-0.00,0.00,0.00
2026-06-26 17:57:52.489,994.18,994.14,-3.92,-2.62,0.00,1.01,0.28,9.27,0.00,-0.00,0.00,0.00
2026-06-26 17:57:52.491,994.18,994.14,-3.92,-2.62,0.00,1.01,0.29,9.27,0.00,-0.00,-0.00,0.00
2026-06-26 17:57:52.492,994.18,994.14,-3.92,-2.62,0.00,1.01,0.29,9.27,0.00,-0.00,-0.00,0.00
2026-06-26 17:57:52.493,994.18,994.14,-3.92,-2.62,0.00,1.01,0.29,9.27,0.00,-0.00,-0.00,0.00
2026-06-26 17:57:52.494,994.18,994.14,-3.92,-2.62,0.00,1.01,0.29,9.27,0.00,-0.00,-0.00,0.00
2026-06-26 17:57:52.500,994.18,994.14,-3.92,-2.62,0.00,1.01,0.29,9.27,0.00,-0.00,-0.00,0.00
2026-06-26 17:57:52.502,994.18,994.14,-3.92,-2.62,0.00,1.02,0.30,9.29,0.00,-0.00,0.00,0.00
2026-06-26 17:57:52.503,994.18,994.14,-3.92,-2.62,0.00,1.02,0.30,9.29,0.00,-0.00,0.00,0.00
2026-06-26 17:57:52.504,994.18,994.14,-3.92,-2.62,0.00,1.02,0.30,9.29,0.00,-0.00,0.00,0.00
2026-06-26 17:57:52.506,994.18,994.14,-3.92,-2.62,0.00,1.02,0.30,9.29,0.00,-0.00,0.00,0.00
2026-06-26 17:57:52.507,994.18,994.14,-3.92,-2.62,0.00,1.02,0.30,9.29,0.00,-0.00,0.00,0.00
2026-06-26 17:57:52.510,994.18,994.14,-3.92,-2.62,0.00,1.02,0.30,9.29,-0.00,-0.01,0.00,0.00
2026-06-26 17:57:52.512,994.18,994.14,-3.92,-2.62,0.00,1.02,0.30,9.29,-0.00,-0.01,0.00,0.00
2026-06-26 17:57:52.513,994.18,994.14,-3.92,-2.62,0.00,1.02,0.30,9.29,-0.00,-0.01,0.00,0.00
2026-06-26 17:57:52.518,994.18,994.14,-3.92,-2.62,0.00,1.02,0.30,9.29,-0.00,-0.01,0.00,0.00
2026-06-26 17:57:52.521,994.18,994.14,-3.92,-2.62,0.00,1.02,0.30,9.29,0.00,0.00,-0.00,0.00
2026-06-26 17:57:52.523,994.18,994.14,-3.92,-2.62,0.00,1.01,0.29,9.26,0.00,0.00,-0.00,0.00
2026-06-26 17:57:52.526,994.18,994.14,-3.92,-2.62,0.00,1.01,0.29,9.26,0.00,0.00,-0.00,0.00
2026-06-26 17:57:52.531,994.18,994.14,-3.92,-2.62,0.00,1.01,0.29,9.26,0.00,0.00,0.00,0.00
2026-06-26 17:57:52.579,994.18,994.14,-4.13,-2.69,0.00,1.03,0.32,9.30,0.00,-0.00,0.00,0.00
2026-06-26 17:57:52.581,994.18,994.14,-4.13,-2.69,0.00,1.03,0.30,9.24,0.00,-0.00,0.00,0.00
2026-06-26 17:57:52.582,994.18,994.14,-4.13,-2.69,0.00,1.03,0.30,9.24,0.00,-0.00,0.00,0.00
2026-06-26 17:57:52.627,994.18,994.14,-4.11,-2.69,0.00,1.01,0.30,9.27,0.00,-0.00,0.00,0.00
2026-06-26 17:57:52.630,994.18,994.14,-4.11,-2.69,0.00,1.01,0.30,9.27,0.00,-0.00,0.00,0.00
2026-06-26 17:57:52.632,994.18,994.14,-4.11,-2.69,0.00,1.01,0.28,9.26,0.00,-0.00,0.00,0.00
2026-06-26 17:57:52.633,994.18,994.14,-4.11,-2.69,0.00,1.01,0.28,9.26,0.00,-0.00,0.00,0.00
2026-06-26 17:57:52.634,994.18,994.14,-4.11,-2.69,0.00,1.01,0.28,9.26,0.00,-0.00,0.00,0.00
2026-06-26 17:57:52.635,994.18,994.14,-4.11,-2.69,0.00,1.01,0.28,9.26,0.00,-0.00,0.00,0.00
2026-06-26 17:57:52.640,994.18,994.14,-4.11,-2.69,0.00,1.01,0.28,9.26,0.00,-0.00,0.00,0.00
2026-06-26 17:57:52.642,994.18,994.14,-4.11,-2.69,0.00,1.01,0.30,9.28,0.00,0.00,0.00,0.00
2026-06-26 17:57:52.643,994.18,994.14,-4.11,-2.69,0.00,1.01,0.30,9.28,0.00,0.00,0.00,0.00
2026-06-26 17:57:52.645,994.18,994.14,-4.11,-2.69,0.00,1.01,0.30,9.28,0.00,0.00,0.00,0.00
2026-06-26 17:57:52.650,994.18,994.14,-4.11,-2.69,0.00,1.01,0.30,9.28,0.00,0.00,0.00,0.00
2026-06-26 17:57:52.652,994.18,994.14,-4.11,-2.69,0.00,1.01,0.30,9.29,0.00,-0.00,0.00,0.00
2026-06-26 17:57:52.653,994.18,994.14,-4.11,-2.69,0.00,1.01,0.30,9.29,0.00,-0.00,0.00,0.00
2026-06-26 17:57:52.654,994.18,994.14,-4.11,-2.69,0.00,1.01,0.30,9.29,0.00,-0.00,0.00,0.00
2026-06-26 17:57:52.657,994.18,994.14,-4.11,-2.69,0.00,1.01,0.30,9.29,0.00,-0.00,0.00,0.00
2026-06-26 17:57:52.661,994.18,994.14,-4.11,-2.69,0.00,1.03,0.30,9.28,0.00,-0.00,0.00,0.00
2026-06-26 17:57:52.664,994.18,994.14,-4.11,-2.69,0.00,1.03,0.30,9.28,0.00,-0.00,0.00,0.00
2026-06-26 17:57:52.669,994.18,994.14,-4.11,-2.69,0.00,1.03,0.30,9.28,0.00,-0.00,0.00,0.00
2026-06-26 17:57:52.671,994.18,994.14,-4.11,-2.69,0.00,1.00,0.27,9.26,0.00,-0.00,-0.00,0.00
2026-06-26 17:57:52.672,994.18,994.14,-4.11,-2.69,0.00,1.00,0.27,9.26,0.00,-0.00,-0.00,0.00
2026-06-26 17:57:52.674,994.18,994.14,-4.11,-2.69,0.00,1.00,0.27,9.26,0.00,-0.00,-0.00,0.00
2026-06-26 17:57:52.720,994.18,994.14,-4.11,-2.69,0.00,1.02,0.32,9.28,0.00,-0.00,0.00,0.00
2026-06-26 17:57:52.722,994.18,994.14,-4.11,-2.69,0.00,1.00,0.29,9.27,0.00,-0.00,0.00,0.00
2026-06-26 17:57:52.723,994.18,994.14,-4.11,-2.69,0.00,1.00,0.29,9.27,0.00,-0.00,0.00,0.00
2026-06-26 17:57:52.770,994.18,994.14,-4.03,-2.66,0.00,1.02,0.31,9.27,0.00,-0.00,0.00,0.00
2026-06-26 17:57:52.772,994.18,994.14,-4.03,-2.66,0.00,1.00,0.30,9.31,0.00,0.00,-0.00,0.00
2026-06-26 17:57:52.773,994.18,994.14,-4.03,-2.66,0.00,1.00,0.30,9.31,0.00,0.00,-0.00,0.00
2026-06-26 17:57:52.775,994.18,994.14,-4.03,-2.66,0.00,1.00,0.30,9.31,0.00,0.00,-0.00,0.00
2026-06-26 17:57:52.780,994.18,994.14,-4.03,-2.66,0.00,1.00,0.30,9.31,0.00,0.00,-0.00,0.00
2026-06-26 17:57:52.782,994.18,994.14,-4.03,-2.66,0.00,1.02,0.29,9.28,-0.00,0.00,0.00,0.00
2026-06-26 17:57:52.783,994.18,994.14,-4.03,-2.66,0.00,1.02,0.29,9.28,-0.00,0.00,0.00,0.00
2026-06-26 17:57:52.784,994.18,994.14,-4.03,-2.66,0.00,1.02,0.29,9.28,-0.00,0.00,0.00,0.00
2026-06-26 17:57:52.787,994.18,994.14,-4.03,-2.66,0.00,1.02,0.29,9.28,-0.00,0.00,0.00,0.00
2026-06-26 17:57:52.791,994.18,994.14,-4.03,-2.66,0.00,1.02,0.29,9.28,0.00,0.00,0.00,0.00
2026-06-26 17:57:52.793,994.18,994.14,-4.03,-2.66,0.00,1.00,0.29,9.27,0.00,0.00,0.00,0.00
2026-06-26 17:57:52.794,994.18,994.14,-4.03,-2.66,0.00,1.00,0.29,9.27,0.00,0.00,0.00,0.00
2026-06-26 17:57:52.797,994.18,994.14,-4.03,-2.66,0.00,1.00,0.29,9.27,0.00,0.00,0.00,0.00
2026-06-26 17:57:52.801,994.18,994.14,-4.03,-2.66,0.00,1.00,0.29,9.27,0.00,0.00,0.00,0.00
2026-06-26 17:57:52.803,994.18,994.14,-4.03,-2.66,0.00,1.02,0.29,9.27,0.00,0.00,0.00,0.00
2026-06-26 17:57:52.804,994.18,994.14,-4.03,-2.66,0.00,1.02,0.29,9.27,0.00,0.00,0.00,0.00
2026-06-26 17:57:52.805,994.18,994.14,-4.03,-2.66,0.00,1.02,0.29,9.27,0.00,0.00,0.00,0.00
2026-06-26 17:57:52.807,994.18,994.14,-4.03,-2.66,0.00,1.02,0.29,9.27,0.00,0.00,0.00,0.00
2026-06-26 17:57:52.808,994.18,994.14,-4.03,-2.66,0.00,1.02,0.29,9.27,0.00,0.00,0.00,0.00
2026-06-26 17:57:52.812,994.18,994.14,-4.03,-2.66,0.00,1.02,0.29,9.27,0.00,0.00,-0.00,0.00
2026-06-26 17:57:52.814,994.18,994.14,-4.03,-2.66,0.00,1.00,0.30,9.28,0.00,0.00,-0.00,0.00
2026-06-26 17:57:52.821,994.18,994.14,-4.03,-2.66,0.00,1.00,0.30,9.28,0.00,0.00,-0.00,0.00
2026-06-26 17:57:52.864,994.18,994.14,-4.30,-2.75,0.00,1.01,0.30,9.27,0.00,0.00,0.00,0.00
2026-06-26 17:57:52.869,994.18,994.14,-4.30,-2.75,0.00,1.01,0.30,9.27,0.00,0.00,0.00,0.00
2026-06-26 17:57:52.912,994.18,994.14,-4.12,-2.69,0.00,1.01,0.30,9.31,0.00,0.00,0.00,0.00
2026-06-26 17:57:52.913,994.18,994.14,-4.12,-2.69,0.00,1.01,0.30,9.31,0.00,0.00,0.00,0.00
2026-06-26 17:57:52.914,994.18,994.14,-4.12,-2.69,0.00,1.01,0.30,9.31,0.00,0.00,0.00,0.00
2026-06-26 17:57:52.915,994.18,994.14,-4.12,-2.69,0.00,1.01,0.30,9.31,0.00,0.00,0.00,0.00
2026-06-26 17:57:52.921,994.18,994.14,-4.12,-2.69,0.00,1.01,0.30,9.31,0.00,0.00,0.00,0.00
2026-06-26 17:57:52.922,994.18,994.14,-4.12,-2.69,0.00,1.02,0.31,9.27,0.00,-0.00,0.00,0.00
2026-06-26 17:57:52.924,994.18,994.14,-4.12,-2.69,0.00,1.02,0.31,9.27,0.00,-0.00,0.00,0.00
2026-06-26 17:57:52.928,994.18,994.14,-4.12,-2.69,0.00,1.02,0.31,9.27,0.00,-0.00,0.00,0.00
2026-06-26 17:57:52.931,994.18,994.14,-4.12,-2.69,0.00,1.02,0.31,9.27,-0.00,-0.00,0.00,0.00
2026-06-26 17:57:52.933,994.18,994.14,-4.12,-2.69,0.00,1.03,0.30,9.25,-0.00,-0.00,0.00,0.00
2026-06-26 17:57:52.935,994.18,994.14,-4.12,-2.69,0.00,1.03,0.30,9.25,-0.00,-0.00,0.00,0.00
2026-06-26 17:57:52.936,994.18,994.14,-4.12,-2.69,0.00,1.03,0.30,9.25,-0.00,-0.00,0.00,0.00
2026-06-26 17:57:52.941,994.18,994.14,-4.12,-2.69,0.00,1.03,0.30,9.25,0.00,0.00,-0.00,0.00
2026-06-26 17:57:52.942,994.18,994.14,-4.12,-2.69,0.00,1.02,0.31,9.26,0.00,0.00,-0.00,0.00
2026-06-26 17:57:52.943,994.18,994.14,-4.12,-2.69,0.00,1.02,0.31,9.26,0.00,0.00,-0.00,0.00
2026-06-26 17:57:52.945,994.18,994.14,-4.12,-2.69,0.00,1.02,0.31,9.26,0.00,0.00,-0.00,0.00
2026-06-26 17:57:52.948,994.18,994.14,-4.12,-2.69,0.00,1.02,0.31,9.26,0.00,0.00,-0.00,0.00
2026-06-26 17:57:52.952,994.18,994.14,-4.12,-2.69,0.00,1.02,0.31,9.26,0.00,-0.00,0.00,0.00
2026-06-26 17:57:52.953,994.18,994.14,-4.12,-2.69,0.00,1.01,0.28,9.27,0.00,-0.00,0.00,0.00
2026-06-26 17:57:52.955,994.18,994.14,-4.12,-2.69,0.00,1.01,0.28,9.27,0.00,-0.00,0.00,0.00
2026-06-26 17:57:52.957,994.18,994.14,-4.12,-2.69,0.00,1.01,0.28,9.27,0.00,-0.00,0.00,0.00
2026-06-26 17:57:52.958,994.18,994.14,-4.12,-2.69,0.00,1.01,0.28,9.27,0.00,-0.00,0.00,0.00
2026-06-26 17:57:52.961,994.18,994.14,-4.12,-2.69,0.00,1.01,0.28,9.27,0.00,-0.00,0.00,0.00
2026-06-26 17:57:52.962,994.18,994.14,-4.12,-2.69,0.00,1.00,0.29,9.26,0.00,0.00,-0.00,0.00
2026-06-26 17:57:52.004,994.18,994.14,-3.87,-2.61,0.00,0.99,0.31,9.26,0.00,0.00,0.00,0.00
2026-06-26 17:57:52.006,994.18,994.14,-3.87,-2.61,0.00,0.99,0.31,9.26,0.00,0.00,0.00,0.00
2026-06-26 17:57:53.007,994.18,994.14,-3.87,-2.61,0.00,0.99,0.31,9.26,0.00,0.00,0.00,0.00
2026-06-26 17:57:53.008,994.18,994.14,-3.87,-2.61,0.00,0.99,0.31,9.26,0.00,0.00,0.00,0.00
2026-06-26 17:57:53.012,994.18,994.14,-3.87,-2.61,0.00,0.99,0.31,9.26,-0.00,0.00,0.00,0.00
2026-06-26 17:57:53.055,994.18,994.14,-4.07,-2.67,0.00,1.01,0.28,9.29,-0.00,0.00,0.00,0.00
2026-06-26 17:57:53.056,994.18,994.14,-4.07,-2.67,0.00,1.01,0.28,9.29,-0.00,0.00,0.00,0.00
2026-06-26 17:57:53.057,994.18,994.14,-4.07,-2.67,0.00,1.01,0.28,9.29,-0.00,0.00,0.00,0.00
2026-06-26 17:57:53.058,994.18,994.14,-4.07,-2.67,0.00,1.01,0.28,9.29,-0.00,0.00,0.00,0.00
2026-06-26 17:57:53.061,994.18,994.14,-4.07,-2.67,0.00,1.01,0.28,9.29,0.00,0.00,0.00,0.00
2026-06-26 17:57:53.063,994.18,994.14,-4.07,-2.67,0.00,1.01,0.30,9.28,0.00,0.00,0.00,0.00
2026-06-26 17:57:53.064,994.18,994.14,-4.07,-2.67,0.00,1.01,0.30,9.28,0.00,0.00,0.00,0.00
2026-06-26 17:57:53.065,994.18,994.14,-4.07,-2.67,0.00,1.01,0.30,9.28,0.00,0.00,0.00,0.00
2026-06-26 17:57:53.070,994.18,994.14,-4.07,-2.67,0.00,1.01,0.30,9.28,0.00,0.00,0.00,0.00
2026-06-26 17:57:53.072,994.18,994.14,-4.07,-2.67,0.00,1.03,0.29,9.28,0.00,-0.00,-0.00,0.00
2026-06-26 17:57:53.074,994.18,994.14,-4.07,-2.67,0.00,1.03,0.29,9.28,0.00,-0.00,-0.00,0.00
2026-06-26 17:57:53.075,994.18,994.14,-4.07,-2.67,0.00,1.03,0.29,9.28,0.00,-0.00,-0.00,0.00
2026-06-26 17:57:53.081,994.18,994.14,-4.07,-2.67,0.00,1.03,0.29,9.28,0.00,-0.00,-0.00,0.00
2026-06-26 17:57:53.083,994.18,994.14,-4.07,-2.67,0.00,1.03,0.29,9.25,-0.00,0.01,-0.00,0.00
2026-06-26 17:57:53.086,994.18,994.14,-4.07,-2.67,0.00,1.03,0.29,9.25,-0.00,0.01,-0.00,0.00
2026-06-26 17:57:53.091,994.18,994.14,-4.07,-2.67,0.00,1.03,0.29,9.25,-0.00,0.01,-0.00,0.00
2026-06-26 17:57:53.093,994.18,994.14,-4.07,-2.67,0.00,1.00,0.29,9.27,-0.00,0.00,-0.00,0.00
2026-06-26 17:57:53.094,994.18,994.14,-4.07,-2.67,0.00,1.00,0.29,9.27,-0.00,0.00,-0.00,0.00
2026-06-26 17:57:53.095,994.18,994.14,-4.07,-2.67,0.00,1.00,0.29,9.27,-0.00,0.00,-0.00,0.00
2026-06-26 17:57:53.102,994.18,994.14,-4.07,-2.67,0.00,1.00,0.29,9.27,-0.00,0.00,-0.00,0.00
2026-06-26 17:57:53.104,994.18,994.14,-4.07,-2.67,0.00,1.01,0.29,9.28,0.00,-0.00,0.00,0.00
2026-06-26 17:57:53.149,994.18,994.14,-4.08,-2.68,0.00,1.01,0.29,9.29,0.00,0.00,0.00,0.00
2026-06-26 17:57:53.162,994.18,994.14,-4.08,-2.68,0.00,1.02,0.31,9.30,-0.00,-0.00,-0.00,0.00
2026-06-26 17:57:53.204,994.18,994.14,-4.14,-2.70,0.00,1.01,0.29,9.27,0.00,0.00,0.00,0.00
2026-06-26 17:57:53.205,994.18,994.14,-4.14,-2.70,0.00,1.01,0.29,9.27,0.00,0.00,0.00,0.00
2026-06-26 17:57:53.206,994.18,994.14,-4.14,-2.70,0.00,1.01,0.29,9.27,0.00,0.00,0.00,0.00
2026-06-26 17:57:53.208,994.18,994.14,-4.14,-2.70,0.00,1.01,0.29,9.27,0.00,0.00,0.00,0.00
2026-06-26 17:57:53.209,994.18,994.14,-4.14,-2.70,0.00,1.01,0.29,9.27,0.00,0.00,0.00,0.00
2026-06-26 17:57:53.211,994.18,994.14,-4.14,-2.70,0.00,1.01,0.29,9.27,0.00,0.00,0.00,0.00
2026-06-26 17:57:53.213,994.18,994.14,-4.14,-2.70,0.00,1.00,0.31,9.28,0.00,0.00,0.00,0.00
2026-06-26 17:57:53.214,994.18,994.14,-4.14,-2.70,0.00,1.00,0.31,9.28,0.00,0.00,0.00,0.00
2026-06-26 17:57:53.216,994.18,994.14,-4.14,-2.70,0.00,1.00,0.31,9.28,0.00,0.00,0.00,0.00
2026-06-26 17:57:53.221,994.18,994.14,-4.14,-2.70,0.00,1.00,0.31,9.28,0.00,0.00,0.00,0.00
2026-06-26 17:57:53.223,994.18,994.14,-4.14,-2.70,0.00,1.01,0.29,9.31,0.00,0.00,0.00,0.00
2026-06-26 17:57:53.224,994.18,994.14,-4.14,-2.70,0.00,1.01,0.29,9.31,0.00,0.00,0.00,0.00
2026-06-26 17:57:53.227,994.18,994.14,-4.14,-2.70,0.00,1.01,0.29,9.31,0.00,0.00,0.00,0.00
2026-06-26 17:57:53.232,994.18,994.14,-4.14,-2.70,0.00,1.01,0.29,9.31,0.00,0.00,-0.00,0.00
2026-06-26 17:57:53.235,994.18,994.14,-4.14,-2.70,0.00,1.02,0.28,9.23,0.00,0.00,-0.00,0.00
2026-06-26 17:57:53.239,994.18,994.14,-4.14,-2.70,0.00,1.02,0.28,9.23,0.00,0.00,-0.00,0.00
2026-06-26 17:57:53.243,994.18,994.14,-4.14,-2.70,0.00,1.02,0.28,9.23,0.00,-0.00,0.00,0.00
2026-06-26 17:57:53.245,994.18,994.14,-4.14,-2.70,0.00,1.01,0.30,9.28,0.00,-0.00,0.00,0.00
2026-06-26 17:57:53.292,994.18,994.14,-4.35,-2.76,0.00,1.02,0.29,9.26,0.00,0.00,0.00,0.00
2026-06-26 17:57:53.293,994.18,994.14,-4.35,-2.76,0.00,1.01,0.31,9.28,-0.00,0.00,0.00,0.00
2026-06-26 17:57:53.295,994.18,994.14,-4.35,-2.76,0.00,1.01,0.31,9.28,-0.00,0.00,0.00,0.00
2026-06-26 17:57:53.301,994.18,994.14,-4.35,-2.76,0.00,1.01,0.31,9.28,-0.00,0.00,0.00,0.00
2026-06-26 17:57:53.303,994.18,994.14,-4.35,-2.76,0.00,1.04,0.29,9.31,0.00,0.00,-0.00,0.00
2026-06-26 17:57:53.344,994.18,994.14,-4.51,-2.82,0.00,1.01,0.28,9.29,-0.00,-0.00,0.00,0.00
2026-06-26 17:57:53.345,994.18,994.14,-4.51,-2.82,0.00,1.01,0.28,9.29,-0.00,-0.00,0.00,0.00
2026-06-26 17:57:53.349,994.18,994.14,-4.51,-2.82,0.00,1.01,0.28,9.29,-0.00,-0.00,0.00,0.00
2026-06-26 17:57:53.353,994.18,994.14,-4.51,-2.82,0.00,1.01,0.28,9.29,0.00,0.00,0.00,0.00
2026-06-26 17:57:53.355,994.18,994.14,-4.51,-2.82,0.00,1.00,0.28,9.30,0.00,0.00,0.00,0.00
2026-06-26 17:57:53.356,994.18,994.14,-4.51,-2.82,0.00,1.00,0.28,9.30,0.00,0.00,0.00,0.00
2026-06-26 17:57:53.357,994.18,994.14,-4.51,-2.82,0.00,1.00,0.28,9.30,0.00,0.00,0.00,0.00
2026-06-26 17:57:53.359,994.18,994.14,-4.51,-2.82,0.00,1.00,0.28,9.30,0.00,0.00,0.00,0.00
2026-06-26 17:57:53.360,994.18,994.14,-4.51,-2.82,0.00,1.00,0.28,9.30,0.00,0.00,0.00,0.00
2026-06-26 17:57:53.362,994.18,994.14,-4.51,-2.82,0.00,1.00,0.28,9.30,0.00,-0.00,-0.00,0.00
2026-06-26 17:57:53.364,994.18,994.14,-4.51,-2.82,0.00,1.00,0.30,9.28,0.00,-0.00,-0.00,0.00
2026-06-26 17:57:53.365,994.18,994.14,-4.51,-2.82,0.00,1.00,0.30,9.28,0.00,-0.00,-0.00,0.00
2026-06-26 17:57:53.366,994.18,994.14,-4.51,-2.82,0.00,1.00,0.30,9.28,0.00,-0.00,-0.00,0.00
2026-06-26 17:57:53.371,994.18,994.14,-4.51,-2.82,0.00,1.00,0.30,9.28,0.00,-0.00,-0.00,0.00
2026-06-26 17:57:53.373,994.18,994.14,-4.51,-2.82,0.00,1.01,0.31,9.29,0.00,0.00,-0.00,0.00
2026-06-26 17:57:53.375,994.18,994.14,-4.51,-2.82,0.00,1.01,0.31,9.29,0.00,0.00,-0.00,0.00
2026-06-26 17:57:53.380,994.18,994.14,-4.51,-2.82,0.00,1.01,0.31,9.29,0.00,0.00,-0.00,0.00
2026-06-26 17:57:53.382,994.18,994.14,-4.51,-2.82,0.00,1.01,0.31,9.29,0.00,0.00,0.00,0.00
2026-06-26 17:57:53.384,994.18,994.14,-4.51,-2.82,0.00,1.02,0.30,9.28,0.00,0.00,0.00,0.00
2026-06-26 17:57:53.386,994.18,994.14,-4.51,-2.82,0.00,1.02,0.30,9.28,0.00,0.00,0.00,0.00
2026-06-26 17:57:53.432,994.18,994.13,-4.96,-2.95,0.00,1.01,0.30,9.27,-0.00,-0.00,0.00,0.00
2026-06-26 17:57:53.433,994.18,994.13,-4.96,-2.95,0.00,1.01,0.30,9.25,0.00,0.00,-0.00,0.00
2026-06-26 17:57:53.434,994.18,994.13,-4.96,-2.95,0.00,1.01,0.30,9.25,0.00,0.00,-0.00,0.00
2026-06-26 17:57:53.436,994.18,994.13,-4.96,-2.95,0.00,1.01,0.30,9.25,0.00,0.00,-0.00,0.00
2026-06-26 17:57:53.437,994.18,994.13,-4.96,-2.95,0.00,1.01,0.30,9.25,0.00,0.00,-0.00,0.00
2026-06-26 17:57:53.442,994.18,994.13,-4.96,-2.95,0.00,1.01,0.30,9.25,0.00,-0.00,-0.00,0.00
2026-06-26 17:57:53.484,994.18,994.13,-4.47,-2.80,0.00,1.01,0.28,9.27,0.00,0.00,-0.00,0.00
2026-06-26 17:57:53.486,994.18,994.13,-4.47,-2.80,0.00,1.01,0.28,9.27,0.00,0.00,-0.00,0.00
2026-06-26 17:57:53.492,994.18,994.13,-4.47,-2.80,0.00,1.01,0.28,9.27,0.00,0.00,-0.00,0.00
2026-06-26 17:57:53.493,994.18,994.13,-4.47,-2.80,0.00,1.00,0.28,9.28,-0.00,0.00,0.00,0.00
2026-06-26 17:57:53.494,994.18,994.13,-4.47,-2.80,0.00,1.00,0.28,9.28,-0.00,0.00,0.00,0.00
2026-06-26 17:57:53.496,994.18,994.13,-4.47,-2.80,0.00,1.00,0.28,9.28,-0.00,0.00,0.00,0.00
2026-06-26 17:57:53.497,994.18,994.13,-4.47,-2.80,0.00,1.00,0.28,9.28,-0.00,0.00,0.00,0.00
2026-06-26 17:57:53.503,994.18,994.13,-4.47,-2.80,0.00,1.00,0.28,9.28,-0.00,0.00,0.00,0.00
2026-06-26 17:57:53.505,994.18,994.13,-4.47,-2.80,0.00,0.99,0.28,9.26,-0.00,0.00,-0.00,0.00
2026-06-26 17:57:53.507,994.18,994.13,-4.47,-2.80,0.00,0.99,0.28,9.26,-0.00,0.00,-0.00,0.00
2026-06-26 17:57:53.508,994.18,994.13,-4.47,-2.80,0.00,0.99,0.28,9.26,-0.00,0.00,-0.00,0.00
2026-06-26 17:57:53.509,994.18,994.13,-4.47,-2.80,0.00,0.99,0.28,9.26,-0.00,0.00,-0.00,0.00
2026-06-26 17:57:53.512,994.18,994.13,-4.47,-2.80,0.00,0.99,0.28,9.26,-0.00,0.00,-0.00,0.00
2026-06-26 17:57:53.513,994.18,994.13,-4.47,-2.80,0.00,1.02,0.29,9.29,0.00,0.00,0.00,0.00
2026-06-26 17:57:53.515,994.18,994.13,-4.47,-2.80,0.00,1.02,0.29,9.29,0.00,0.00,0.00,0.00
2026-06-26 17:57:53.516,994.18,994.13,-4.47,-2.80,0.00,1.02,0.29,9.29,0.00,0.00,0.00,0.00
2026-06-26 17:57:53.519,994.18,994.13,-4.47,-2.80,0.00,1.02,0.29,9.29,0.00,0.00,0.00,0.00
2026-06-26 17:57:53.523,994.18,994.13,-4.47,-2.80,0.00,1.02,0.29,9.29,0.00,-0.00,-0.00,0.00
2026-06-26 17:57:53.525,994.18,994.13,-4.47,-2.80,0.00,1.03,0.30,9.28,0.00,-0.00,-0.00,0.00
2026-06-26 17:57:53.528,994.18,994.13,-4.47,-2.80,0.00,1.03,0.30,9.28,0.00,-0.00,-0.00,0.00
2026-06-26 17:57:53.573,994.18,994.13,-4.49,-2.81,0.00,1.03,0.29,9.30,0.00,0.00,0.00,0.00
2026-06-26 17:57:53.574,994.18,994.13,-4.49,-2.81,0.00,1.03,0.29,9.30,0.00,0.00,0.00,0.00
2026-06-26 17:57:53.576,994.18,994.13,-4.49,-2.81,0.00,1.03,0.29,9.30,0.00,0.00,0.00,0.00
2026-06-26 17:57:53.577,994.18,994.13,-4.49,-2.81,0.00,1.03,0.29,9.30,0.00,0.00,0.00,0.00
2026-06-26 17:57:53.582,994.18,994.13,-4.49,-2.81,0.00,1.03,0.29,9.30,0.00,0.00,0.00,0.00
2026-06-26 17:57:53.624,994.18,994.13,-4.20,-2.72,0.00,0.99,0.29,9.30,0.00,-0.00,-0.00,0.00
2026-06-26 17:57:53.626,994.18,994.13,-4.20,-2.72,0.00,0.99,0.29,9.30,0.00,-0.00,-0.00,0.00
2026-06-26 17:57:53.628,994.18,994.13,-4.20,-2.72,0.00,0.99,0.29,9.30,0.00,-0.00,-0.00,0.00
2026-06-26 17:57:53.633,994.18,994.13,-4.20,-2.72,0.00,0.99,0.29,9.30,0.00,0.00,0.00,0.00
2026-06-26 17:57:53.635,994.18,994.13,-4.20,-2.72,0.00,0.99,0.30,9.27,0.00,0.00,0.00,0.00
2026-06-26 17:57:53.636,994.18,994.13,-4.20,-2.72,0.00,0.99,0.30,9.27,0.00,0.00,0.00,0.00
2026-06-26 17:57:53.638,994.18,994.13,-4.20,-2.72,0.00,0.99,0.30,9.27,0.00,0.00,0.00,0.00
2026-06-26 17:57:53.643,994.18,994.13,-4.20,-2.72,0.00,0.99,0.30,9.27,0.00,0.00,-0.00,0.00
2026-06-26 17:57:53.644,994.18,994.13,-4.20,-2.72,0.00,1.03,0.29,9.28,0.00,0.00,-0.00,0.00
2026-06-26 17:57:53.646,994.18,994.13,-4.20,-2.72,0.00,1.03,0.29,9.28,0.00,0.00,-0.00,0.00
2026-06-26 17:57:53.647,994.18,994.13,-4.20,-2.72,0.00,1.03,0.29,9.28,0.00,0.00,-0.00,0.00
2026-06-26 17:57:53.653,994.18,994.13,-4.20,-2.72,0.00,1.03,0.29,9.28,0.00,0.00,-0.00,0.00
2026-06-26 17:57:53.654,994.18,994.13,-4.20,-2.72,0.00,1.00,0.30,9.29,0.00,-0.00,-0.00,0.00
2026-06-26 17:57:53.656,994.18,994.13,-4.20,-2.72,0.00,1.00,0.30,9.29,0.00,-0.00,-0.00,0.00
2026-06-26 17:57:53.657,994.18,994.13,-4.20,-2.72,0.00,1.00,0.30,9.29,0.00,-0.00,-0.00,0.00
2026-06-26 17:57:53.660,994.18,994.13,-4.20,-2.72,0.00,1.00,0.30,9.29,0.00,-0.00,-0.00,0.00
2026-06-26 17:57:53.663,994.18,994.13,-4.20,-2.72,0.00,1.00,0.30,9.29,0.00,0.00,0.00,0.00
2026-06-26 17:57:53.664,994.18,994.13,-4.20,-2.72,0.00,1.02,0.26,9.30,0.00,0.00,0.00,0.00
2026-06-26 17:57:53.665,994.18,994.13,-4.20,-2.72,0.00,1.02,0.26,9.30,0.00,0.00,0.00,0.00
2026-06-26 17:57:53.667,994.18,994.13,-4.20,-2.72,0.00,1.02,0.26,9.30,0.00,0.00,0.00,0.00
2026-06-26 17:57:53.671,994.18,994.13,-4.20,-2.72,0.00,1.02,0.26,9.30,0.00,0.00,0.00,0.00
2026-06-26 17:57:53.713,994.18,994.13,-4.19,-2.71,0.00,1.00,0.30,9.28,0.00,0.00,0.00,0.00
2026-06-26 17:57:53.715,994.18,994.13,-4.19,-2.71,0.00,1.00,0.30,9.28,0.00,0.00,0.00,0.00
2026-06-26 17:57:53.716,994.18,994.13,-4.19,-2.71,0.00,1.00,0.30,9.28,0.00,0.00,0.00,0.00
2026-06-26 17:57:53.721,994.18,994.13,-4.19,-2.71,0.00,1.00,0.30,9.28,0.00,0.00,0.00,0.00
2026-06-26 17:57:53.723,994.18,994.13,-4.19,-2.71,0.00,1.00,0.30,9.27,0.00,0.00,-0.00,0.00
2026-06-26 17:57:53.763,994.18,994.13,-4.32,-2.75,0.00,1.02,0.30,9.28,0.00,0.00,0.00,0.00
2026-06-26 17:57:53.765,994.18,994.13,-4.32,-2.75,0.00,1.01,0.30,9.27,0.00,0.00,0.00,0.00
2026-06-26 17:57:53.766,994.18,994.13,-4.32,-2.75,0.00,1.01,0.30,9.27,0.00,0.00,0.00,0.00
2026-06-26 17:57:53.767,994.18,994.13,-4.32,-2.75,0.00,1.01,0.30,9.27,0.00,0.00,0.00,0.00
2026-06-26 17:57:53.772,994.18,994.13,-4.32,-2.75,0.00,1.01,0.30,9.27,0.00,0.00,0.00,0.00
2026-06-26 17:57:53.774,994.18,994.13,-4.32,-2.75,0.00,1.01,0.32,9.30,0.00,0.00,0.00,0.00
2026-06-26 17:57:53.775,994.18,994.13,-4.32,-2.75,0.00,1.01,0.32,9.30,0.00,0.00,0.00,0.00
2026-06-26 17:57:53.777,994.18,994.13,-4.32,-2.75,0.00,1.01,0.32,9.30,0.00,0.00,0.00,0.00
2026-06-26 17:57:53.783,994.18,994.13,-4.32,-2.75,0.00,1.01,0.32,9.30,0.00,0.00,0.00,0.00
2026-06-26 17:57:53.785,994.18,994.13,-4.32,-2.75,0.00,1.01,0.30,9.26,0.00,0.00,0.00,0.00
2026-06-26 17:57:53.791,994.18,994.13,-4.32,-2.75,0.00,1.01,0.30,9.26,0.00,0.00,0.00,0.00
2026-06-26 17:57:53.795,994.18,994.13,-4.32,-2.75,0.00,1.02,0.29,9.27,0.00,-0.00,0.00,0.00
2026-06-26 17:57:53.796,994.18,994.13,-4.32,-2.75,0.00,1.02,0.29,9.27,0.00,-0.00,0.00,0.00
2026-06-26 17:57:53.799,994.18,994.13,-4.32,-2.75,0.00,1.02,0.29,9.27,0.00,-0.00,0.00,0.00
2026-06-26 17:57:53.803,994.18,994.13,-4.32,-2.75,0.00,1.02,0.29,9.27,0.00,0.00,0.00,0.00
2026-06-26 17:57:53.806,994.18,994.13,-4.32,-2.75,0.00,1.02,0.29,9.27,0.00,0.00,0.00,0.00
2026-06-26 17:57:53.807,994.18,994.13,-4.32,-2.75,0.00,1.02,0.29,9.27,0.00,0.00,0.00,0.00
2026-06-26 17:57:53.809,994.18,994.13,-4.32,-2.75,0.00,1.02,0.29,9.27,0.00,0.00,0.00,0.00
2026-06-26 17:57:53.810,994.18,994.13,-4.32,-2.75,0.00,1.02,0.29,9.27,0.00,0.00,0.00,0.00
2026-06-26 17:57:53.814,994.18,994.13,-4.32,-2.75,0.00,1.04,0.29,9.29,-0.00,0.00,0.00,0.00
2026-06-26 17:57:53.858,994.18,994.14,-4.16,-2.70,0.00,1.02,0.29,9.27,0.00,-0.00,0.00,0.00
2026-06-26 17:57:53.859,994.18,994.14,-4.16,-2.70,0.00,1.02,0.29,9.27,0.00,-0.00,0.00,0.00
2026-06-26 17:57:53.863,994.18,994.14,-4.16,-2.70,0.00,1.02,0.29,9.27,0.00,-0.00,0.00,0.00
2026-06-26 17:57:53.903,994.18,994.14,-3.94,-2.63,0.00,1.01,0.29,9.27,0.00,-0.00,0.00,0.00
2026-06-26 17:57:53.905,994.18,994.14,-3.94,-2.63,0.00,1.01,0.28,9.27,0.00,-0.00,0.00,0.00
2026-06-26 17:57:53.906,994.18,994.14,-3.94,-2.63,0.00,1.01,0.28,9.27,0.00,-0.00,0.00,0.00
2026-06-26 17:57:53.907,994.18,994.14,-3.94,-2.63,0.00,1.01,0.28,9.27,0.00,-0.00,0.00,0.00
2026-06-26 17:57:53.909,994.18,994.14,-3.94,-2.63,0.00,1.01,0.28,9.27,0.00,-0.00,0.00,0.00
2026-06-26 17:57:53.910,994.18,994.14,-3.94,-2.63,0.00,1.01,0.28,9.27,0.00,-0.00,0.00,0.00
2026-06-26 17:57:53.916,994.18,994.14,-3.94,-2.63,0.00,1.01,0.28,9.27,0.00,0.00,-0.00,0.00
2026-06-26 17:57:53.919,994.18,994.14,-3.94,-2.63,0.00,1.00,0.28,9.29,0.00,0.00,-0.00,0.00
2026-06-26 17:57:53.923,994.18,994.14,-3.94,-2.63,0.00,1.00,0.28,9.29,-0.00,0.00,0.00,0.00
2026-06-26 17:57:53.925,994.18,994.14,-3.94,-2.63,0.00,1.01,0.30,9.27,-0.00,0.00,0.00,0.00
2026-06-26 17:57:53.934,994.18,994.14,-3.94,-2.63,0.00,1.01,0.30,9.27,-0.00,0.00,0.00,0.00
2026-06-26 17:57:53.935,994.18,994.14,-3.94,-2.63,0.00,1.01,0.29,9.26,0.00,0.00,0.00,0.00
2026-06-26 17:57:53.938,994.18,994.14,-3.94,-2.63,0.00,1.01,0.29,9.26,0.00,0.00,0.00,0.00
2026-06-26 17:57:53.943,994.18,994.14,-3.94,-2.63,0.00,1.01,0.29,9.26,0.00,0.00,-0.00,0.00
2026-06-26 17:57:53.945,994.18,994.14,-3.94,-2.63,0.00,1.00,0.28,9.27,0.00,0.00,-0.00,0.00
2026-06-26 17:57:53.946,994.18,994.14,-3.94,-2.63,0.00,1.00,0.28,9.27,0.00,0.00,-0.00,0.00
2026-06-26 17:57:53.947,994.18,994.14,-3.94,-2.63,0.00,1.00,0.28,9.27,0.00,0.00,-0.00,0.00
2026-06-26 17:57:53.953,994.18,994.14,-3.94,-2.63,0.00,1.00,0.28,9.27,0.00,0.00,0.00,0.00
2026-06-26 17:57:53.955,994.18,994.14,-3.94,-2.63,0.00,1.01,0.30,9.27,0.00,0.00,0.00,0.00
2026-06-26 17:57:53.957,994.18,994.14,-3.94,-2.63,0.00,1.01,0.30,9.27,0.00,0.00,0.00,0.00
2026-06-26 17:57:53.003,994.18,994.14,-3.71,-2.55,0.00,1.02,0.29,9.26,0.00,-0.00,0.00,0.00
2026-06-26 17:57:54.045,994.18,994.14,-3.85,-2.60,0.00,1.01,0.28,9.27,0.00,-0.00,0.00,0.00
2026-06-26 17:57:54.046,994.18,994.14,-3.85,-2.60,0.00,1.01,0.28,9.27,0.00,-0.00,0.00,0.00
2026-06-26 17:57:54.048,994.18,994.14,-3.85,-2.60,0.00,1.01,0.28,9.27,0.00,-0.00,0.00,0.00
2026-06-26 17:57:54.053,994.18,994.14,-3.85,-2.60,0.00,1.01,0.28,9.27,0.00,-0.00,0.00,0.00
2026-06-26 17:57:54.055,994.18,994.14,-3.85,-2.60,0.00,1.01,0.29,9.28,0.00,0.00,-0.00,0.00
2026-06-26 17:57:54.058,994.18,994.14,-3.85,-2.60,0.00,1.01,0.29,9.28,0.00,0.00,-0.00,0.00
2026-06-26 17:57:54.059,994.18,994.14,-3.85,-2.60,0.00,1.01,0.29,9.28,0.00,0.00,-0.00,0.00
2026-06-26 17:57:54.060,994.18,994.14,-3.85,-2.60,0.00,1.01,0.29,9.28,0.00,0.00,-0.00,0.00
2026-06-26 17:57:54.063,994.18,994.14,-3.85,-2.60,0.00,1.01,0.29,9.28,0.00,0.00,-0.00,0.00
2026-06-26 17:57:54.064,994.18,994.14,-3.85,-2.60,0.00,0.99,0.30,9.29,-0.00,0.00,0.00,0.00
2026-06-26 17:57:54.066,994.18,994.14,-3.85,-2.60,0.00,0.99,0.30,9.29,-0.00,0.00,0.00,0.00
2026-06-26 17:57:54.070,994.18,994.14,-3.85,-2.60,0.00,0.99,0.30,9.29,-0.00,0.00,0.00,0.00
2026-06-26 17:57:54.076,994.18,994.14,-3.85,-2.60,0.00,0.99,0.30,9.29,0.00,0.00,0.00,0.00
2026-06-26 17:57:54.077,994.18,994.14,-3.85,-2.60,0.00,1.04,0.30,9.28,0.00,0.00,0.00,0.00
2026-06-26 17:57:54.082,994.18,994.14,-3.85,-2.60,0.00,1.04,0.30,9.28,0.00,0.00,0.00,0.00
2026-06-26 17:57:54.084,994.18,994.14,-3.85,-2.60,0.00,1.01,0.31,9.24,0.00,0.00,-0.00,0.00
2026-06-26 17:57:54.086,994.18,994.14,-3.85,-2.60,0.00,1.01,0.31,9.24,0.00,0.00,-0.00,0.00
2026-06-26 17:57:54.088,994.18,994.14,-3.85,-2.60,0.00,1.01,0.31,9.24,0.00,0.00,-0.00,0.00
2026-06-26 17:57:54.093,994.18,994.14,-3.85,-2.60,0.00,1.01,0.31,9.24,0.00,0.00,-0.00,0.00
2026-06-26 17:57:54.095,994.18,994.14,-3.85,-2.60,0.00,1.02,0.28,9.28,0.00,-0.00,0.00,0.00
2026-06-26 17:57:54.096,994.18,994.14,-3.85,-2.60,0.00,1.02,0.28,9.28,0.00,-0.00,0.00,0.00
2026-06-26 17:57:54.097,994.18,994.14,-3.85,-2.60,0.00,1.02,0.28,9.28,0.00,-0.00,0.00,0.00
2026-06-26 17:57:54.101,994.18,994.14,-3.85,-2.60,0.00,1.02,0.28,9.28,0.00,-0.00,0.00,0.00
2026-06-26 17:57:54.144,994.18,994.14,-4.07,-2.67,0.00,1.01,0.31,9.26,0.00,-0.00,0.00,0.00
2026-06-26 17:57:54.185,994.18,994.14,-4.41,-2.78,0.00,0.99,0.29,9.24,0.00,-0.00,0.00,0.00
2026-06-26 17:57:54.187,994.18,994.14,-4.41,-2.78,0.00,0.99,0.29,9.24,0.00,-0.00,0.00,0.00
2026-06-26 17:57:54.188,994.18,994.14,-4.41,-2.78,0.00,0.99,0.29,9.24,0.00,-0.00,0.00,0.00
2026-06-26 17:57:54.193,994.18,994.14,-4.41,-2.78,0.00,0.99,0.29,9.24,0.00,-0.00,0.00,0.00
2026-06-26 17:57:54.195,994.18,994.14,-4.41,-2.78,0.00,1.01,0.29,9.28,0.00,0.00,0.00,0.00
2026-06-26 17:57:54.196,994.18,994.14,-4.41,-2.78,0.00,1.01,0.29,9.28,0.00,0.00,0.00,0.00
2026-06-26 17:57:54.197,994.18,994.14,-4.41,-2.78,0.00,1.01,0.29,9.28,0.00,0.00,0.00,0.00
2026-06-26 17:57:54.199,994.18,994.14,-4.41,-2.78,0.00,1.01,0.29,9.28,0.00,0.00,0.00,0.00
2026-06-26 17:57:54.204,994.18,994.14,-4.41,-2.78,0.00,1.01,0.29,9.28,0.00,0.00,0.00,0.00
2026-06-26 17:57:54.205,994.18,994.14,-4.41,-2.78,0.00,1.01,0.30,9.28,0.00,-0.00,0.00,0.00
2026-06-26 17:57:54.207,994.18,994.14,-4.41,-2.78,0.00,1.01,0.30,9.28,0.00,-0.00,0.00,0.00
2026-06-26 17:57:54.208,994.18,994.14,-4.41,-2.78,0.00,1.01,0.30,9.28,0.00,-0.00,0.00,0.00
2026-06-26 17:57:54.209,994.18,994.14,-4.41,-2.78,0.00,1.01,0.30,9.28,0.00,-0.00,0.00,0.00
2026-06-26 17:57:54.211,994.18,994.14,-4.41,-2.78,0.00,1.01,0.30,9.28,0.00,-0.00,0.00,0.00
2026-06-26 17:57:54.212,994.18,994.14,-4.41,-2.78,0.00,1.01,0.30,9.28,0.00,-0.00,0.00,0.00
2026-06-26 17:57:54.214,994.18,994.14,-4.41,-2.78,0.00,1.01,0.30,9.28,-0.00,0.00,-0.00,0.00
2026-06-26 17:57:54.215,994.18,994.14,-4.41,-2.78,0.00,1.02,0.28,9.29,-0.00,0.00,-0.00,0.00
2026-06-26 17:57:54.217,994.18,994.14,-4.41,-2.78,0.00,1.02,0.28,9.29,-0.00,0.00,-0.00,0.00
2026-06-26 17:57:54.224,994.18,994.14,-4.41,-2.78,0.00,1.02,0.28,9.29,-0.00,0.00,-0.00,0.00
2026-06-26 17:57:54.226,994.18,994.14,-4.41,-2.78,0.00,1.01,0.29,9.27,-0.00,0.00,-0.00,0.00
2026-06-26 17:57:54.234,994.18,994.14,-4.41,-2.78,0.00,1.01,0.29,9.27,-0.00,0.00,-0.00,0.00
2026-06-26 17:57:54.237,994.18,994.14,-4.41,-2.78,0.00,1.01,0.29,9.26,-0.00,0.00,0.00,0.00
2026-06-26 17:57:54.284,994.18,994.14,-4.10,-2.68,0.00,1.01,0.29,9.30,0.00,-0.00,0.00,0.00
2026-06-26 17:57:54.285,994.18,994.14,-4.10,-2.68,0.00,1.01,0.28,9.27,0.00,-0.00,-0.00,0.00
2026-06-26 17:57:54.326,994.18,994.14,-4.50,-2.81,0.00,1.01,0.30,9.26,0.00,0.00,0.00,0.00
2026-06-26 17:57:54.328,994.18,994.14,-4.50,-2.81,0.00,1.01,0.30,9.26,0.00,0.00,0.00,0.00
2026-06-26 17:57:54.332,994.18,994.14,-4.50,-2.81,0.00,1.01,0.30,9.26,0.00,0.00,0.00,0.00
2026-06-26 17:57:54.334,994.18,994.14,-4.50,-2.81,0.00,1.01,0.30,9.26,0.00,0.00,0.00,0.00
2026-06-26 17:57:54.336,994.18,994.14,-4.50,-2.81,0.00,1.01,0.30,9.26,0.00,0.00,0.00,0.00
2026-06-26 17:57:54.337,994.18,994.14,-4.50,-2.81,0.00,1.01,0.30,9.26,0.00,0.00,0.00,0.00
2026-06-26 17:57:54.339,994.18,994.14,-4.50,-2.81,0.00,1.01,0.30,9.26,0.00,0.00,0.00,0.00
2026-06-26 17:57:54.344,994.18,994.14,-4.50,-2.81,0.00,1.01,0.30,9.26,0.00,0.00,0.00,0.00
2026-06-26 17:57:54.345,994.18,994.14,-4.50,-2.81,0.00,1.01,0.30,9.26,0.00,-0.00,-0.00,0.00
2026-06-26 17:57:54.347,994.18,994.14,-4.50,-2.81,0.00,1.01,0.30,9.26,0.00,-0.00,-0.00,0.00
2026-06-26 17:57:54.353,994.18,994.14,-4.50,-2.81,0.00,1.01,0.30,9.26,0.00,-0.00,-0.00,0.00
2026-06-26 17:57:54.355,994.18,994.14,-4.50,-2.81,0.00,1.01,0.31,9.28,0.00,0.00,0.00,0.00
2026-06-26 17:57:54.358,994.18,994.14,-4.50,-2.81,0.00,1.01,0.31,9.28,0.00,0.00,0.00,0.00
2026-06-26 17:57:54.360,994.18,994.14,-4.50,-2.81,0.00,1.01,0.31,9.28,0.00,0.00,0.00,0.00
2026-06-26 17:57:54.365,994.18,994.14,-4.50,-2.81,0.00,1.01,0.31,9.28,0.00,0.00,-0.00,0.00
2026-06-26 17:57:54.366,994.18,994.14,-4.50,-2.81,0.00,1.01,0.30,9.29,0.00,0.00,-0.00,0.00
2026-06-26 17:57:54.368,994.18,994.14,-4.50,-2.81,0.00,1.01,0.30,9.29,0.00,0.00,-0.00,0.00
2026-06-26 17:57:54.374,994.18,994.14,-4.50,-2.81,0.00,1.01,0.30,9.29,0.00,0.00,-0.00,0.00
2026-06-26 17:57:54.379,994.18,994.14,-4.50,-2.81,0.00,1.01,0.30,9.29,0.00,-0.00,0.00,0.00
2026-06-26 17:57:54.424,994.18,994.14,-4.52,-2.82,0.00,1.01,0.30,9.27,-0.00,0.00,0.00,0.00
2026-06-26 17:57:54.425,994.18,994.14,-4.52,-2.82,0.00,1.03,0.30,9.26,-0.00,0.00,0.00,0.00
2026-06-26 17:57:54.467,994.18,994.14,-4.17,-2.71,0.00,1.02,0.30,9.27,-0.00,0.00,-0.00,0.00
2026-06-26 17:57:54.468,994.18,994.14,-4.17,-2.71,0.00,1.02,0.30,9.27,-0.00,0.00,-0.00,0.00
2026-06-26 17:57:54.474,994.18,994.14,-4.17,-2.71,0.00,1.02,0.30,9.27,-0.00,0.00,-0.00,0.00
2026-06-26 17:57:54.475,994.18,994.14,-4.17,-2.71,0.00,1.00,0.29,9.27,-0.00,0.00,0.00,0.00
2026-06-26 17:57:54.480,994.18,994.14,-4.17,-2.71,0.00,1.00,0.29,9.27,-0.00,0.00,0.00,0.00
2026-06-26 17:57:54.484,994.18,994.14,-4.17,-2.71,0.00,1.00,0.29,9.27,0.00,0.00,0.00,0.00
2026-06-26 17:57:54.486,994.18,994.14,-4.17,-2.71,0.00,1.02,0.28,9.31,0.00,0.00,0.00,0.00
2026-06-26 17:57:54.487,994.18,994.14,-4.17,-2.71,0.00,1.02,0.28,9.31,0.00,0.00,0.00,0.00
2026-06-26 17:57:54.488,994.18,994.14,-4.17,-2.71,0.00,1.02,0.28,9.31,0.00,0.00,0.00,0.00
2026-06-26 17:57:54.493,994.18,994.14,-4.17,-2.71,0.00,1.02,0.28,9.31,0.00,0.00,0.00,0.00
2026-06-26 17:57:54.495,994.18,994.14,-4.17,-2.71,0.00,1.01,0.31,9.27,0.00,0.00,0.00,0.00
2026-06-26 17:57:54.496,994.18,994.14,-4.17,-2.71,0.00,1.01,0.31,9.27,0.00,0.00,0.00,0.00
2026-06-26 17:57:54.501,994.18,994.14,-4.17,-2.71,0.00,1.01,0.31,9.27,0.00,0.00,0.00,0.00
2026-06-26 17:57:54.505,994.18,994.14,-4.17,-2.71,0.00,1.01,0.31,9.27,0.00,-0.00,0.00,0.00
2026-06-26 17:57:54.507,994.18,994.14,-4.17,-2.71,0.00,0.99,0.31,9.30,0.00,-0.00,0.00,0.00
2026-06-26 17:57:54.508,994.18,994.14,-4.17,-2.71,0.00,0.99,0.31,9.30,0.00,-0.00,0.00,0.00
2026-06-26 17:57:54.509,994.18,994.14,-4.17,-2.71,0.00,0.99,0.31,9.30,0.00,-0.00,0.00,0.00
2026-06-26 17:57:54.511,994.18,994.14,-4.17,-2.71,0.00,0.99,0.31,9.30,0.00,-0.00,0.00,0.00
2026-06-26 17:57:54.512,994.18,994.14,-4.17,-2.71,0.00,0.99,0.31,9.30,0.00,-0.00,0.00,0.00
2026-06-26 17:57:54.515,994.18,994.14,-4.17,-2.71,0.00,0.99,0.31,9.30,-0.00,0.00,0.00,0.00
2026-06-26 17:57:54.516,994.18,994.14,-4.17,-2.71,0.00,1.02,0.31,9.28,-0.00,0.00,0.00,0.00
2026-06-26 17:57:54.518,994.18,994.14,-4.17,-2.71,0.00,1.02,0.31,9.28,-0.00,0.00,0.00,0.00
2026-06-26 17:57:54.523,994.18,994.14,-4.17,-2.71,0.00,1.02,0.31,9.28,-0.00,0.00,0.00,0.00
2026-06-26 17:57:54.565,994.18,994.14,-3.90,-2.62,0.00,1.01,0.30,9.30,0.00,-0.00,0.00,0.00
2026-06-26 17:57:54.566,994.18,994.14,-3.90,-2.62,0.00,1.01,0.30,9.30,0.00,-0.00,0.00,0.00
2026-06-26 17:57:54.608,994.18,994.14,-4.00,-2.65,0.00,1.01,0.30,9.27,0.00,0.00,-0.00,0.00
2026-06-26 17:57:54.610,994.18,994.14,-4.00,-2.65,0.00,1.01,0.30,9.27,0.00,0.00,-0.00,0.00
2026-06-26 17:57:54.611,994.18,994.14,-4.00,-2.65,0.00,1.01,0.30,9.27,0.00,0.00,-0.00,0.00
2026-06-26 17:57:54.614,994.18,994.14,-4.00,-2.65,0.00,1.01,0.30,9.27,0.00,0.00,-0.00,0.00
2026-06-26 17:57:54.615,994.18,994.14,-4.00,-2.65,0.00,1.01,0.32,9.30,0.00,-0.00,-0.00,0.00
2026-06-26 17:57:54.617,994.18,994.14,-4.00,-2.65,0.00,1.01,0.32,9.30,0.00,-0.00,-0.00,0.00
2026-06-26 17:57:54.618,994.18,994.14,-4.00,-2.65,0.00,1.01,0.32,9.30,0.00,-0.00,-0.00,0.00
2026-06-26 17:57:54.619,994.18,994.14,-4.00,-2.65,0.00,1.01,0.32,9.30,0.00,-0.00,-0.00,0.00
2026-06-26 17:57:54.624,994.18,994.14,-4.00,-2.65,0.00,1.01,0.32,9.30,0.00,-0.00,-0.00,0.00
2026-06-26 17:57:54.627,994.18,994.14,-4.00,-2.65,0.00,1.00,0.30,9.30,-0.00,0.00,0.00,0.00
2026-06-26 17:57:54.628,994.18,994.14,-4.00,-2.65,0.00,1.00,0.30,9.30,-0.00,0.00,0.00,0.00
2026-06-26 17:57:54.635,994.18,994.14,-4.00,-2.65,0.00,1.00,0.30,9.30,-0.00,0.00,0.00,0.00
2026-06-26 17:57:54.636,994.18,994.14,-4.00,-2.65,0.00,1.01,0.32,9.27,0.00,0.00,0.00,0.00
2026-06-26 17:57:54.638,994.18,994.14,-4.00,-2.65,0.00,1.01,0.32,9.27,0.00,0.00,0.00,0.00
2026-06-26 17:57:54.639,994.18,994.14,-4.00,-2.65,0.00,1.01,0.32,9.27,0.00,0.00,0.00,0.00
2026-06-26 17:57:54.643,994.18,994.14,-4.00,-2.65,0.00,1.01,0.32,9.27,0.00,0.00,0.00,0.00
2026-06-26 17:57:54.645,994.18,994.14,-4.00,-2.65,0.00,1.00,0.29,9.29,0.00,0.00,0.00,0.00
2026-06-26 17:57:54.646,994.18,994.14,-4.00,-2.65,0.00,1.00,0.29,9.29,0.00,0.00,0.00,0.00
2026-06-26 17:57:54.648,994.18,994.14,-4.00,-2.65,0.00,1.00,0.29,9.29,0.00,0.00,0.00,0.00
2026-06-26 17:57:54.650,994.18,994.14,-4.00,-2.65,0.00,1.00,0.29,9.29,0.00,0.00,0.00,0.00
2026-06-26 17:57:54.655,994.18,994.14,-4.00,-2.65,0.00,1.00,0.29,9.29,-0.00,0.00,0.00,0.00
2026-06-26 17:57:54.656,994.18,994.14,-4.00,-2.65,0.00,1.01,0.29,9.32,-0.00,0.00,0.00,0.00
2026-06-26 17:57:54.658,994.18,994.14,-4.00,-2.65,0.00,1.01,0.29,9.32,-0.00,0.00,0.00,0.00
2026-06-26 17:57:54.659,994.18,994.14,-4.00,-2.65,0.00,1.01,0.29,9.32,-0.00,0.00,0.00,0.00
2026-06-26 17:57:54.660,994.18,994.14,-4.00,-2.65,0.00,1.01,0.29,9.32,-0.00,0.00,0.00,0.00
2026-06-26 17:57:54.661,994.18,994.14,-4.00,-2.65,0.00,1.01,0.29,9.32,-0.00,0.00,0.00,0.00
2026-06-26 17:57:54.663,994.18,994.14,-4.00,-2.65,0.00,1.01,0.29,9.32,-0.00,0.00,0.00,0.00
2026-06-26 17:57:54.665,994.18,994.14,-4.00,-2.65,0.00,1.01,0.29,9.32,-0.00,0.00,0.00,0.00
2026-06-26 17:57:54.705,994.18,994.14,-3.96,-2.64,0.00,1.00,0.29,9.28,-0.00,-0.00,0.00,0.00
2026-06-26 17:57:54.707,994.18,994.14,-3.96,-2.64,0.00,1.00,0.28,9.27,-0.00,-0.00,0.00,0.00
2026-06-26 17:57:54.754,994.18,994.14,-3.89,-2.61,0.00,1.04,0.31,9.27,0.00,0.00,-0.00,0.00
2026-06-26 17:57:54.756,994.18,994.14,-3.89,-2.61,0.00,1.03,0.32,9.28,0.00,0.00,0.00,0.00
2026-06-26 17:57:54.757,994.18,994.14,-3.89,-2.61,0.00,1.03,0.32,9.28,0.00,0.00,0.00,0.00
2026-06-26 17:57:54.758,994.18,994.14,-3.89,-2.61,0.00,1.03,0.32,9.28,0.00,0.00,0.00,0.00
2026-06-26 17:57:54.761,994.18,994.14,-3.89,-2.61,0.00,1.03,0.32,9.28,0.00,0.00,0.00,0.00
2026-06-26 17:57:54.762,994.18,994.14,-3.89,-2.61,0.00,1.03,0.32,9.28,0.00,0.00,0.00,0.00
2026-06-26 17:57:54.765,994.18,994.14,-3.89,-2.61,0.00,1.03,0.32,9.28,0.00,0.00,0.00,0.00
2026-06-26 17:57:54.767,994.18,994.14,-3.89,-2.61,0.00,1.02,0.32,9.26,0.00,-0.00,-0.00,0.00
2026-06-26 17:57:54.770,994.18,994.14,-3.89,-2.61,0.00,1.02,0.32,9.26,0.00,-0.00,-0.00,0.00
2026-06-26 17:57:54.775,994.18,994.14,-3.89,-2.61,0.00,1.02,0.32,9.26,0.00,-0.00,0.00,0.00
2026-06-26 17:57:54.776,994.18,994.14,-3.89,-2.61,0.00,1.01,0.31,9.29,0.00,-0.00,0.00,0.00
2026-06-26 17:57:54.778,994.18,994.14,-3.89,-2.61,0.00,1.01,0.31,9.29,0.00,-0.00,0.00,0.00
2026-06-26 17:57:54.779,994.18,994.14,-3.89,-2.61,0.00,1.01,0.31,9.29,0.00,-0.00,0.00,0.00
2026-06-26 17:57:54.782,994.18,994.14,-3.89,-2.61,0.00,1.01,0.31,9.29,0.00,-0.00,0.00,0.00
2026-06-26 17:57:54.785,994.18,994.14,-3.89,-2.61,0.00,1.01,0.31,9.29,0.00,0.00,0.00,0.00
2026-06-26 17:57:54.787,994.18,994.14,-3.89,-2.61,0.00,1.01,0.29,9.27,0.00,0.00,0.00,0.00
2026-06-26 17:57:54.789,994.18,994.14,-3.89,-2.61,0.00,1.01,0.29,9.27,0.00,0.00,0.00,0.00
2026-06-26 17:57:54.795,994.18,994.14,-3.89,-2.61,0.00,1.01,0.29,9.27,0.00,0.00,0.00,0.00
2026-06-26 17:57:54.797,994.18,994.14,-3.89,-2.61,0.00,1.01,0.30,9.29,-0.00,-0.00,0.00,0.00
2026-06-26 17:57:54.798,994.18,994.14,-3.89,-2.61,0.00,1.01,0.30,9.29,-0.00,-0.00,0.00,0.00
2026-06-26 17:57:54.801,994.18,994.14,-3.89,-2.61,0.00,1.01,0.30,9.29,-0.00,-0.00,0.00,0.00
2026-06-26 17:57:54.805,994.18,994.14,-3.89,-2.61,0.00,1.01,0.30,9.29,0.00,-0.00,-0.00,0.00
2026-06-26 17:57:54.848,994.18,994.14,-4.11,-2.69,0.00,1.03,0.28,9.29,-0.00,0.00,0.00,0.00
2026-06-26 17:57:54.896,994.18,994.14,-4.11,-2.69,0.00,1.01,0.31,9.27,-0.00,0.00,-0.00,0.00
2026-06-26 17:57:54.898,994.18,994.14,-4.11,-2.69,0.00,1.03,0.27,9.28,0.00,0.00,0.00,0.00
2026-06-26 17:57:54.899,994.18,994.14,-4.11,-2.69,0.00,1.03,0.27,9.28,0.00,0.00,0.00,0.00
2026-06-26 17:57:54.905,994.18,994.14,-4.11,-2.69,0.00,1.03,0.27,9.28,0.00,0.00,0.00,0.00
2026-06-26 17:57:54.907,994.18,994.14,-4.11,-2.69,0.00,1.02,0.29,9.28,-0.00,0.00,0.00,0.00
2026-06-26 17:57:54.908,994.18,994.14,-4.11,-2.69,0.00,1.02,0.29,9.28,-0.00,0.00,0.00,0.00
2026-06-26 17:57:54.910,994.18,994.14,-4.11,-2.69,0.00,1.02,0.29,9.28,-0.00,0.00,0.00,0.00
2026-06-26 17:57:54.911,994.18,994.14,-4.11,-2.69,0.00,1.02,0.29,9.28,-0.00,0.00,0.00,0.00
2026-06-26 17:57:54.915,994.18,994.14,-4.11,-2.69,0.00,1.02,0.29,9.28,-0.00,0.00,0.00,0.00
2026-06-26 17:57:54.916,994.18,994.14,-4.11,-2.69,0.00,1.03,0.31,9.29,-0.00,-0.00,0.00,0.00
2026-06-26 17:57:54.918,994.18,994.14,-4.11,-2.69,0.00,1.03,0.31,9.29,-0.00,-0.00,0.00,0.00
2026-06-26 17:57:54.922,994.18,994.14,-4.11,-2.69,0.00,1.03,0.31,9.29,-0.00,-0.00,0.00,0.00
2026-06-26 17:57:54.926,994.18,994.14,-4.11,-2.69,0.00,1.03,0.31,9.29,0.00,0.00,-0.00,0.00
2026-06-26 17:57:54.928,994.18,994.14,-4.11,-2.69,0.00,1.01,0.29,9.30,0.00,0.00,-0.00,0.00
2026-06-26 17:57:54.929,994.18,994.14,-4.11,-2.69,0.00,1.01,0.29,9.30,0.00,0.00,-0.00,0.00
2026-06-26 17:57:54.935,994.18,994.14,-4.11,-2.69,0.00,1.01,0.29,9.30,0.00,0.00,-0.00,0.00
2026-06-26 17:57:54.937,994.18,994.14,-4.11,-2.69,0.00,0.99,0.32,9.25,0.00,-0.00,-0.00,0.00
2026-06-26 17:57:54.939,994.18,994.14,-4.11,-2.69,0.00,0.99,0.32,9.25,0.00,-0.00,-0.00,0.00
2026-06-26 17:57:54.949,994.18,994.14,-4.11,-2.69,0.00,0.99,0.32,9.25,0.00,0.00,0.00,0.00
2026-06-26 17:57:55.036,994.18,994.14,-4.27,-2.74,0.00,1.02,0.29,9.28,-0.00,0.00,0.00,0.00
2026-06-26 17:57:55.037,994.18,994.14,-4.27,-2.74,0.00,1.01,0.29,9.27,-0.00,0.00,0.00,0.00
2026-06-26 17:57:55.038,994.18,994.14,-4.27,-2.74,0.00,1.01,0.29,9.27,-0.00,0.00,0.00,0.00
2026-06-26 17:57:55.040,994.18,994.14,-4.27,-2.74,0.00,1.01,0.29,9.27,-0.00,0.00,0.00,0.00
2026-06-26 17:57:55.041,994.18,994.14,-4.27,-2.74,0.00,1.01,0.29,9.27,-0.00,0.00,0.00,0.00
2026-06-26 17:57:55.046,994.18,994.14,-4.27,-2.74,0.00,1.01,0.29,9.27,-0.00,0.00,-0.00,0.00
2026-06-26 17:57:55.047,994.18,994.14,-4.27,-2.74,0.00,1.01,0.30,9.30,-0.00,0.00,-0.00,0.00
2026-06-26 17:57:55.048,994.18,994.14,-4.27,-2.74,0.00,1.01,0.30,9.30,-0.00,0.00,-0.00,0.00
2026-06-26 17:57:55.050,994.18,994.14,-4.27,-2.74,0.00,1.01,0.30,9.30,-0.00,0.00,-0.00,0.00
2026-06-26 17:57:55.056,994.18,994.14,-4.27,-2.74,0.00,1.01,0.30,9.30,-0.00,0.00,-0.00,0.00
2026-06-26 17:57:55.057,994.18,994.14,-4.27,-2.74,0.00,1.00,0.30,9.27,0.00,0.00,0.00,0.00
2026-06-26 17:57:55.058,994.18,994.14,-4.27,-2.74,0.00,1.00,0.30,9.27,0.00,0.00,0.00,0.00
2026-06-26 17:57:55.060,994.18,994.14,-4.27,-2.74,0.00,1.00,0.30,9.27,0.00,0.00,0.00,0.00
2026-06-26 17:57:55.062,994.18,994.14,-4.27,-2.74,0.00,1.00,0.30,9.27,0.00,0.00,0.00,0.00
2026-06-26 17:57:55.068,994.18,994.14,-4.27,-2.74,0.00,1.01,0.29,9.26,0.00,-0.00,-0.00,0.00
2026-06-26 17:57:55.069,994.18,994.14,-4.27,-2.74,0.00,1.01,0.29,9.26,0.00,-0.00,-0.00,0.00
2026-06-26 17:57:55.075,994.18,994.14,-4.27,-2.74,0.00,1.01,0.29,9.26,0.00,-0.00,-0.00,0.00
2026-06-26 17:57:55.077,994.18,994.14,-4.27,-2.74,0.00,1.00,0.30,9.30,0.00,-0.00,-0.00,0.00
2026-06-26 17:57:55.082,994.18,994.14,-4.27,-2.74,0.00,1.00,0.30,9.30,0.00,-0.00,-0.00,0.00
2026-06-26 17:57:55.086,994.18,994.14,-4.27,-2.74,0.00,1.00,0.30,9.30,0.00,0.00,0.00,0.00
2026-06-26 17:57:55.088,994.18,994.14,-4.27,-2.74,0.00,1.00,0.29,9.25,0.00,0.00,0.00,0.00
2026-06-26 17:57:55.091,994.18,994.14,-4.27,-2.74,0.00,1.00,0.29,9.25,0.00,0.00,0.00,0.00
2026-06-26 17:57:55.096,994.18,994.14,-4.27,-2.74,0.00,1.00,0.29,9.25,0.00,0.00,0.00,0.00
2026-06-26 17:57:55.178,994.19,994.14,-4.70,-2.87,0.00,1.03,0.29,9.27,0.00,0.00,0.00,0.00
2026-06-26 17:57:55.180,994.19,994.14,-4.70,-2.87,0.00,1.03,0.29,9.27,0.00,0.00,0.00,0.00
2026-06-26 17:57:55.185,994.19,994.14,-4.70,-2.87,0.00,1.03,0.29,9.27,0.00,0.00,0.00,0.00
2026-06-26 17:57:55.187,994.19,994.14,-4.70,-2.87,0.00,1.00,0.29,9.26,-0.00,0.00,0.00,0.00
2026-06-26 17:57:55.188,994.19,994.14,-4.70,-2.87,0.00,1.00,0.29,9.26,-0.00,0.00,0.00,0.00
2026-06-26 17:57:55.190,994.19,994.14,-4.70,-2.87,0.00,1.00,0.29,9.26,-0.00,0.00,0.00,0.00
2026-06-26 17:57:55.195,994.19,994.14,-4.70,-2.87,0.00,1.00,0.29,9.26,-0.00,0.00,0.00,0.00
2026-06-26 17:57:55.197,994.19,994.14,-4.70,-2.87,0.00,1.01,0.29,9.29,-0.00,0.00,0.00,0.00
2026-06-26 17:57:55.199,994.19,994.14,-4.70,-2.87,0.00,1.01,0.29,9.29,-0.00,0.00,0.00,0.00
2026-06-26 17:57:55.203,994.19,994.14,-4.70,-2.87,0.00,1.01,0.29,9.29,-0.00,0.00,0.00,0.00
2026-06-26 17:57:55.207,994.19,994.14,-4.70,-2.87,0.00,1.01,0.29,9.29,0.00,0.00,0.00,0.00
2026-06-26 17:57:55.210,994.19,994.14,-4.70,-2.87,0.00,1.02,0.29,9.29,0.00,0.00,0.00,0.00
2026-06-26 17:57:55.212,994.19,994.14,-4.70,-2.87,0.00,1.02,0.29,9.29,0.00,0.00,0.00,0.00
2026-06-26 17:57:55.216,994.19,994.14,-4.70,-2.87,0.00,1.02,0.29,9.29,0.00,0.00,0.00,0.00
2026-06-26 17:57:55.217,994.19,994.14,-4.70,-2.87,0.00,1.02,0.29,9.30,0.00,-0.00,0.00,0.00
2026-06-26 17:57:55.218,994.19,994.14,-4.70,-2.87,0.00,1.02,0.29,9.30,0.00,-0.00,0.00,0.00
2026-06-26 17:57:55.220,994.19,994.14,-4.70,-2.87,0.00,1.02,0.29,9.30,0.00,-0.00,0.00,0.00
2026-06-26 17:57:55.225,994.19,994.14,-4.70,-2.87,0.00,1.02,0.29,9.30,0.00,-0.00,0.00,0.00
2026-06-26 17:57:55.227,994.19,994.14,-4.70,-2.87,0.00,1.01,0.28,9.27,0.00,0.00,0.00,0.00
2026-06-26 17:57:55.235,994.19,994.14,-4.70,-2.87,0.00,1.01,0.28,9.27,0.00,0.00,0.00,0.00
2026-06-26 17:57:55.237,994.19,994.14,-4.70,-2.87,0.00,1.02,0.28,9.27,0.00,0.00,-0.00,0.00
2026-06-26 17:57:55.238,994.19,994.14,-4.70,-2.87,0.00,1.02,0.28,9.27,0.00,0.00,-0.00,0.00
2026-06-26 17:57:55.276,994.19,994.14,-4.85,-2.92,0.00,1.01,0.29,9.31,0.00,0.00,0.00,0.00
2026-06-26 17:57:55.278,994.19,994.14,-4.85,-2.92,0.00,1.01,0.29,9.31,0.00,0.00,0.00,0.00
2026-06-26 17:57:55.323,994.18,994.14,-4.67,-2.87,0.00,1.02,0.31,9.28,-0.00,0.00,-0.00,0.00
2026-06-26 17:57:55.326,994.18,994.14,-4.67,-2.87,0.00,1.02,0.31,9.28,0.00,0.00,0.00,0.00
2026-06-26 17:57:55.328,994.18,994.14,-4.67,-2.87,0.00,1.02,0.30,9.27,0.00,0.00,0.00,0.00
2026-06-26 17:57:55.329,994.18,994.14,-4.67,-2.87,0.00,1.02,0.30,9.27,0.00,0.00,0.00,0.00
2026-06-26 17:57:55.330,994.18,994.14,-4.67,-2.87,0.00,1.02,0.30,9.27,0.00,0.00,0.00,0.00
2026-06-26 17:57:55.334,994.18,994.14,-4.67,-2.87,0.00,1.02,0.30,9.27,0.00,0.00,0.00,0.00
2026-06-26 17:57:55.336,994.18,994.14,-4.67,-2.87,0.00,1.02,0.30,9.27,0.00,-0.00,-0.00,0.00
2026-06-26 17:57:55.338,994.18,994.14,-4.67,-2.87,0.00,1.01,0.30,9.22,0.00,-0.00,-0.00,0.00
2026-06-26 17:57:55.339,994.18,994.14,-4.67,-2.87,0.00,1.01,0.30,9.22,0.00,-0.00,-0.00,0.00
2026-06-26 17:57:55.340,994.18,994.14,-4.67,-2.87,0.00,1.01,0.30,9.22,0.00,-0.00,-0.00,0.00
2026-06-26 17:57:55.344,994.18,994.14,-4.67,-2.87,0.00,1.01,0.30,9.22,0.00,-0.00,-0.00,0.00
2026-06-26 17:57:55.347,994.18,994.14,-4.67,-2.87,0.00,1.01,0.28,9.26,0.00,0.00,0.00,0.00
2026-06-26 17:57:55.349,994.18,994.14,-4.67,-2.87,0.00,1.01,0.28,9.26,0.00,0.00,0.00,0.00
2026-06-26 17:57:55.351,994.18,994.14,-4.67,-2.87,0.00,1.01,0.28,9.26,0.00,0.00,0.00,0.00
2026-06-26 17:57:55.356,994.18,994.14,-4.67,-2.87,0.00,1.01,0.28,9.26,0.00,0.00,0.00,0.00
2026-06-26 17:57:55.358,994.18,994.14,-4.67,-2.87,0.00,1.03,0.30,9.27,0.00,-0.00,0.00,0.00
2026-06-26 17:57:55.359,994.18,994.14,-4.67,-2.87,0.00,1.03,0.30,9.27,0.00,-0.00,0.00,0.00
2026-06-26 17:57:55.360,994.18,994.14,-4.67,-2.87,0.00,1.03,0.30,9.27,0.00,-0.00,0.00,0.00
2026-06-26 17:57:55.362,994.18,994.14,-4.67,-2.87,0.00,1.03,0.30,9.27,0.00,-0.00,0.00,0.00
2026-06-26 17:57:55.363,994.18,994.14,-4.67,-2.87,0.00,1.03,0.30,9.27,0.00,-0.00,0.00,0.00
2026-06-26 17:57:55.366,994.18,994.14,-4.67,-2.87,0.00,1.03,0.30,9.27,0.00,-0.00,0.00,0.00
2026-06-26 17:57:55.367,994.18,994.14,-4.67,-2.87,0.00,1.02,0.29,9.27,0.00,-0.00,0.00,0.00
2026-06-26 17:57:55.369,994.18,994.14,-4.67,-2.87,0.00,1.02,0.29,9.27,0.00,-0.00,0.00,0.00
2026-06-26 17:57:55.372,994.18,994.14,-4.67,-2.87,0.00,1.02,0.29,9.27,0.00,-0.00,0.00,0.00
2026-06-26 17:57:55.376,994.18,994.14,-4.67,-2.87,0.00,1.02,0.29,9.27,0.00,-0.00,-0.00,0.00
2026-06-26 17:57:55.418,994.18,994.13,-4.96,-2.95,0.00,1.01,0.30,9.28,0.00,-0.00,0.00,0.00
2026-06-26 17:57:55.420,994.18,994.13,-4.96,-2.95,0.00,1.01,0.30,9.28,0.00,-0.00,0.00,0.00
2026-06-26 17:57:55.461,994.18,994.13,-4.96,-2.95,0.00,1.01,0.31,9.28,0.00,-0.00,0.00,0.00
2026-06-26 17:57:55.462,994.18,994.13,-4.96,-2.95,0.00,1.01,0.31,9.28,0.00,-0.00,0.00,0.00
2026-06-26 17:57:55.465,994.18,994.13,-4.96,-2.95,0.00,1.01,0.31,9.28,0.00,-0.00,0.00,0.00
2026-06-26 17:57:55.467,994.18,994.13,-4.96,-2.95,0.00,1.01,0.30,9.28,0.00,0.00,0.00,0.00
2026-06-26 17:57:55.469,994.18,994.13,-4.96,-2.95,0.00,1.01,0.30,9.28,0.00,0.00,0.00,0.00
2026-06-26 17:57:55.470,994.18,994.13,-4.96,-2.95,0.00,1.01,0.30,9.28,0.00,0.00,0.00,0.00
2026-06-26 17:57:55.476,994.18,994.13,-4.96,-2.95,0.00,1.01,0.30,9.28,0.00,0.00,0.00,0.00
2026-06-26 17:57:55.477,994.18,994.13,-4.96,-2.95,0.00,1.00,0.29,9.28,0.00,-0.00,0.00,0.00
2026-06-26 17:57:55.479,994.18,994.13,-4.96,-2.95,0.00,1.00,0.29,9.28,0.00,-0.00,0.00,0.00
2026-06-26 17:57:55.480,994.18,994.13,-4.96,-2.95,0.00,1.00,0.29,9.28,0.00,-0.00,0.00,0.00
2026-06-26 17:57:55.486,994.18,994.13,-4.96,-2.95,0.00,1.00,0.29,9.28,0.00,-0.00,0.00,0.00
2026-06-26 17:57:55.489,994.18,994.13,-4.96,-2.95,0.00,1.01,0.28,9.26,0.00,-0.00,-0.00,0.00
2026-06-26 17:57:55.491,994.18,994.13,-4.96,-2.95,0.00,1.01,0.28,9.26,0.00,-0.00,-0.00,0.00
2026-06-26 17:57:55.496,994.18,994.13,-4.96,-2.95,0.00,1.01,0.28,9.26,0.00,-0.00,-0.00,0.00
2026-06-26 17:57:55.498,994.18,994.13,-4.96,-2.95,0.00,1.01,0.30,9.28,0.00,0.00,-0.00,0.00
2026-06-26 17:57:55.499,994.18,994.13,-4.96,-2.95,0.00,1.01,0.30,9.28,0.00,0.00,-0.00,0.00
2026-06-26 17:57:55.500,994.18,994.13,-4.96,-2.95,0.00,1.01,0.30,9.28,0.00,0.00,-0.00,0.00
2026-06-26 17:57:55.507,994.18,994.13,-4.96,-2.95,0.00,1.01,0.30,9.28,0.00,-0.00,0.00,0.00
2026-06-26 17:57:55.508,994.18,994.13,-4.96,-2.95,0.00,1.02,0.29,9.29,0.00,-0.00,0.00,0.00
2026-06-26 17:57:55.509,994.18,994.13,-4.96,-2.95,0.00,1.02,0.29,9.29,0.00,-0.00,0.00,0.00
2026-06-26 17:57:55.510,994.18,994.13,-4.96,-2.95,0.00,1.02,0.29,9.29,0.00,-0.00,0.00,0.00
2026-06-26 17:57:55.512,994.18,994.13,-4.96,-2.95,0.00,1.02,0.29,9.29,0.00,-0.00,0.00,0.00
2026-06-26 17:57:55.514,994.18,994.13,-4.96,-2.95,0.00,1.02,0.29,9.29,0.00,-0.00,0.00,0.00
2026-06-26 17:57:55.517,994.18,994.13,-4.96,-2.95,0.00,1.02,0.29,9.29,0.00,0.00,-0.00,0.00
2026-06-26 17:57:55.560,994.18,994.14,-4.72,-2.88,0.00,1.02,0.28,9.28,0.00,-0.00,0.00,0.00
2026-06-26 17:57:55.607,994.19,994.14,-4.96,-2.95,0.00,1.01,0.29,9.29,0.00,-0.01,0.00,0.00
2026-06-26 17:57:55.608,994.19,994.14,-4.96,-2.95,0.00,1.02,0.29,9.29,0.00,-0.00,0.00,0.00
2026-06-26 17:57:55.609,994.19,994.14,-4.96,-2.95,0.00,1.02,0.29,9.29,0.00,-0.00,0.00,0.00
2026-06-26 17:57:55.610,994.19,994.14,-4.96,-2.95,0.00,1.02,0.29,9.29,0.00,-0.00,0.00,0.00
2026-06-26 17:57:55.612,994.19,994.14,-4.96,-2.95,0.00,1.02,0.29,9.29,0.00,-0.00,0.00,0.00
2026-06-26 17:57:55.613,994.19,994.14,-4.96,-2.95,0.00,1.02,0.29,9.29,0.00,-0.00,0.00,0.00
2026-06-26 17:57:55.614,994.19,994.14,-4.96,-2.95,0.00,1.02,0.29,9.29,0.00,-0.00,0.00,0.00
2026-06-26 17:57:55.616,994.19,994.14,-4.96,-2.95,0.00,1.02,0.29,9.29,-0.00,-0.00,0.00,0.00
2026-06-26 17:57:55.618,994.19,994.14,-4.96,-2.95,0.00,1.01,0.28,9.28,-0.00,-0.00,0.00,0.00
2026-06-26 17:57:55.624,994.19,994.14,-4.96,-2.95,0.00,1.01,0.28,9.28,-0.00,-0.00,0.00,0.00
2026-06-26 17:57:55.627,994.19,994.14,-4.96,-2.95,0.00,1.05,0.29,9.27,0.00,-0.00,-0.00,0.00
2026-06-26 17:57:55.629,994.19,994.14,-4.96,-2.95,0.00,1.05,0.29,9.27,0.00,-0.00,-0.00,0.00
2026-06-26 17:57:55.630,994.19,994.14,-4.96,-2.95,0.00,1.05,0.29,9.27,0.00,-0.00,-0.00,0.00
2026-06-26 17:57:55.632,994.19,994.14,-4.96,-2.95,0.00,1.05,0.29,9.27,0.00,-0.00,-0.00,0.00
2026-06-26 17:57:55.636,994.19,994.14,-4.96,-2.95,0.00,1.05,0.29,9.27,0.00,0.00,-0.00,0.00
2026-06-26 17:57:55.638,994.19,994.14,-4.96,-2.95,0.00,1.01,0.28,9.29,0.00,0.00,-0.00,0.00
2026-06-26 17:57:55.640,994.19,994.14,-4.96,-2.95,0.00,1.01,0.28,9.29,0.00,0.00,-0.00,0.00
2026-06-26 17:57:55.646,994.19,994.14,-4.96,-2.95,0.00,1.01,0.28,9.29,0.00,0.00,-0.00,0.00
2026-06-26 17:57:55.648,994.19,994.14,-4.96,-2.95,0.00,1.01,0.29,9.27,-0.00,-0.00,0.00,0.00
2026-06-26 17:57:55.649,994.19,994.14,-4.96,-2.95,0.00,1.01,0.29,9.27,-0.00,-0.00,0.00,0.00
2026-06-26 17:57:55.650,994.19,994.14,-4.96,-2.95,0.00,1.01,0.29,9.27,-0.00,-0.00,0.00,0.00
2026-06-26 17:57:55.654,994.19,994.14,-4.96,-2.95,0.00,1.01,0.29,9.27,-0.00,-0.00,0.00,0.00
2026-06-26 17:57:55.658,994.19,994.14,-4.96,-2.95,0.00,1.01,0.29,9.27,-0.00,-0.00,-0.00,0.00
2026-06-26 17:57:55.700,994.19,994.14,-4.96,-2.95,0.00,1.00,0.30,9.30,0.00,-0.00,-0.00,0.00
2026-06-26 17:57:55.702,994.19,994.14,-4.96,-2.95,0.00,1.00,0.30,9.30,0.00,-0.00,-0.00,0.00
2026-06-26 17:57:55.740,994.18,994.14,-4.79,-2.90,0.00,1.02,0.30,9.25,0.00,-0.00,0.00,0.00
2026-06-26 17:57:55.741,994.18,994.14,-4.79,-2.90,0.00,1.02,0.30,9.25,0.00,-0.00,0.00,0.00
2026-06-26 17:57:55.747,994.18,994.14,-4.79,-2.90,0.00,1.02,0.30,9.25,0.00,-0.00,0.00,0.00
2026-06-26 17:57:55.748,994.18,994.14,-4.79,-2.90,0.00,1.02,0.29,9.28,-0.00,0.00,0.00,0.00
2026-06-26 17:57:55.750,994.18,994.14,-4.79,-2.90,0.00,1.02,0.29,9.28,-0.00,0.00,0.00,0.00
2026-06-26 17:57:55.751,994.18,994.14,-4.79,-2.90,0.00,1.02,0.29,9.28,-0.00,0.00,0.00,0.00
2026-06-26 17:57:55.756,994.18,994.14,-4.79,-2.90,0.00,1.02,0.29,9.28,-0.00,0.00,0.00,0.00
2026-06-26 17:57:55.758,994.18,994.14,-4.79,-2.90,0.00,1.02,0.28,9.25,0.00,-0.00,-0.00,0.00
2026-06-26 17:57:55.759,994.18,994.14,-4.79,-2.90,0.00,1.02,0.28,9.25,0.00,-0.00,-0.00,0.00
2026-06-26 17:57:55.762,994.18,994.14,-4.79,-2.90,0.00,1.02,0.28,9.25,0.00,-0.00,-0.00,0.00
2026-06-26 17:57:55.767,994.18,994.14,-4.79,-2.90,0.00,1.02,0.28,9.25,0.00,-0.00,-0.00,0.00
2026-06-26 17:57:55.769,994.18,994.14,-4.79,-2.90,0.00,1.01,0.29,9.29,0.00,-0.00,-0.00,0.00
2026-06-26 17:57:55.771,994.18,994.14,-4.79,-2.90,0.00,1.01,0.29,9.29,0.00,-0.00,-0.00,0.00
2026-06-26 17:57:55.777,994.18,994.14,-4.79,-2.90,0.00,1.01,0.29,9.29,0.00,-0.00,-0.00,0.00
2026-06-26 17:57:55.778,994.18,994.14,-4.79,-2.90,0.00,1.02,0.30,9.29,0.00,0.00,-0.00,0.00
2026-06-26 17:57:55.780,994.18,994.14,-4.79,-2.90,0.00,1.02,0.30,9.29,0.00,0.00,-0.00,0.00
2026-06-26 17:57:55.781,994.18,994.14,-4.79,-2.90,0.00,1.02,0.30,9.29,0.00,0.00,-0.00,0.00
2026-06-26 17:57:55.787,994.18,994.14,-4.79,-2.90,0.00,1.02,0.30,9.29,0.00,0.00,-0.00,0.00
2026-06-26 17:57:55.788,994.18,994.14,-4.79,-2.90,0.00,1.02,0.30,9.26,0.00,0.00,-0.00,0.00
2026-06-26 17:57:55.790,994.18,994.14,-4.79,-2.90,0.00,1.02,0.30,9.26,0.00,0.00,-0.00,0.00
2026-06-26 17:57:55.791,994.18,994.14,-4.79,-2.90,0.00,1.02,0.30,9.26,0.00,0.00,-0.00,0.00
2026-06-26 17:57:55.795,994.18,994.14,-4.79,-2.90,0.00,1.02,0.30,9.26,0.00,0.00,-0.00,0.00
2026-06-26 17:57:55.798,994.18,994.14,-4.79,-2.90,0.00,1.01,0.30,9.28,0.00,-0.00,-0.00,0.00
2026-06-26 17:57:55.838,994.18,994.14,-4.40,-2.78,0.00,1.02,0.30,9.28,-0.00,0.00,-0.00,0.00
2026-06-26 17:57:55.878,994.19,994.14,-4.58,-2.84,0.00,1.00,0.32,9.29,0.00,0.00,0.00,0.00
2026-06-26 17:57:55.879,994.19,994.14,-4.58,-2.84,0.00,1.00,0.32,9.29,0.00,0.00,0.00,0.00
2026-06-26 17:57:55.880,994.19,994.14,-4.58,-2.84,0.00,1.00,0.32,9.29,0.00,0.00,0.00,0.00
2026-06-26 17:57:55.881,994.19,994.14,-4.58,-2.84,0.00,1.00,0.32,9.29,0.00,0.00,0.00,0.00
2026-06-26 17:57:55.887,994.19,994.14,-4.58,-2.84,0.00,1.00,0.32,9.29,0.00,0.00,0.00,0.00
2026-06-26 17:57:55.888,994.19,994.14,-4.58,-2.84,0.00,1.02,0.30,9.28,0.00,0.00,-0.00,0.00
2026-06-26 17:57:55.889,994.19,994.14,-4.58,-2.84,0.00,1.02,0.30,9.28,0.00,0.00,-0.00,0.00
2026-06-26 17:57:55.891,994.19,994.14,-4.58,-2.84,0.00,1.02,0.30,9.28,0.00,0.00,-0.00,0.00
2026-06-26 17:57:55.894,994.19,994.14,-4.58,-2.84,0.00,1.02,0.30,9.28,0.00,0.00,-0.00,0.00
2026-06-26 17:57:55.898,994.19,994.14,-4.58,-2.84,0.00,1.02,0.30,9.28,0.00,0.00,0.00,0.00
2026-06-26 17:57:55.899,994.19,994.14,-4.58,-2.84,0.00,1.02,0.30,9.28,0.00,0.00,0.00,0.00
2026-06-26 17:57:55.900,994.19,994.14,-4.58,-2.84,0.00,1.02,0.30,9.28,0.00,0.00,0.00,0.00
2026-06-26 17:57:55.901,994.19,994.14,-4.58,-2.84,0.00,1.02,0.30,9.28,0.00,0.00,0.00,0.00
2026-06-26 17:57:55.907,994.19,994.14,-4.58,-2.84,0.00,1.02,0.30,9.28,0.00,0.00,0.00,0.00
2026-06-26 17:57:55.909,994.19,994.14,-4.58,-2.84,0.00,1.02,0.29,9.30,0.00,-0.00,-0.00,0.00
2026-06-26 17:57:55.911,994.19,994.14,-4.58,-2.84,0.00,1.02,0.29,9.30,0.00,-0.00,-0.00,0.00
2026-06-26 17:57:55.912,994.19,994.14,-4.58,-2.84,0.00,1.02,0.29,9.30,0.00,-0.00,-0.00,0.00
2026-06-26 17:57:55.915,994.19,994.14,-4.58,-2.84,0.00,1.02,0.29,9.30,0.00,-0.00,-0.00,0.00
2026-06-26 17:57:55.919,994.19,994.14,-4.58,-2.84,0.00,1.01,0.28,9.28,0.00,0.00,0.00,0.00
2026-06-26 17:57:55.920,994.19,994.14,-4.58,-2.84,0.00,1.01,0.28,9.28,0.00,0.00,0.00,0.00
2026-06-26 17:57:55.922,994.19,994.14,-4.58,-2.84,0.00,1.01,0.28,9.28,0.00,0.00,0.00,0.00
2026-06-26 17:57:55.927,994.19,994.14,-4.58,-2.84,0.00,1.01,0.28,9.28,0.00,0.00,0.00,0.00
2026-06-26 17:57:55.929,994.19,994.14,-4.58,-2.84,0.00,1.04,0.28,9.28,0.00,0.00,-0.00,0.00
2026-06-26 17:57:55.931,994.19,994.14,-4.58,-2.84,0.00,1.04,0.28,9.28,0.00,0.00,-0.00,0.00
2026-06-26 17:57:55.937,994.19,994.14,-4.58,-2.84,0.00,1.04,0.28,9.28,0.00,0.00,-0.00,0.00
2026-06-26 17:57:56.019,994.19,994.14,-4.96,-2.95,0.00,1.02,0.28,9.28,0.00,-0.00,0.00,0.00
2026-06-26 17:57:56.020,994.19,994.14,-4.96,-2.95,0.00,1.02,0.28,9.28,0.00,-0.00,0.00,0.00
2026-06-26 17:57:56.022,994.19,994.14,-4.96,-2.95,0.00,1.02,0.28,9.28,0.00,-0.00,0.00,0.00
2026-06-26 17:57:56.028,994.19,994.14,-4.96,-2.95,0.00,1.02,0.28,9.28,0.00,0.00,0.00,0.00
2026-06-26 17:57:56.030,994.19,994.14,-4.96,-2.95,0.00,0.99,0.30,9.29,0.00,0.00,0.00,0.00
2026-06-26 17:57:56.031,994.19,994.14,-4.96,-2.95,0.00,0.99,0.30,9.29,0.00,0.00,0.00,0.00
2026-06-26 17:57:56.035,994.19,994.14,-4.96,-2.95,0.00,0.99,0.30,9.29,0.00,0.00,0.00,0.00
2026-06-26 17:57:56.038,994.19,994.14,-4.96,-2.95,0.00,0.99,0.30,9.29,0.00,0.00,0.00,0.00
2026-06-26 17:57:56.039,994.19,994.14,-4.96,-2.95,0.00,0.99,0.31,9.27,0.00,0.00,0.00,0.00
2026-06-26 17:57:56.040,994.19,994.14,-4.96,-2.95,0.00,0.99,0.31,9.27,0.00,0.00,0.00,0.00
2026-06-26 17:57:56.042,994.19,994.14,-4.96,-2.95,0.00,0.99,0.31,9.27,0.00,0.00,0.00,0.00
2026-06-26 17:57:56.049,994.19,994.14,-4.96,-2.95,0.00,0.99,0.31,9.27,0.00,0.00,0.00,0.00
2026-06-26 17:57:56.051,994.19,994.14,-4.96,-2.95,0.00,1.01,0.29,9.28,-0.00,-0.00,0.00,0.00
2026-06-26 17:57:56.056,994.19,994.14,-4.96,-2.95,0.00,1.01,0.29,9.28,-0.00,-0.00,0.00,0.00
2026-06-26 17:57:56.058,994.19,994.14,-4.96,-2.95,0.00,1.01,0.30,9.27,0.00,0.00,-0.00,0.00
2026-06-26 17:57:56.060,994.19,994.14,-4.96,-2.95,0.00,1.01,0.30,9.27,0.00,0.00,-0.00,0.00
2026-06-26 17:57:56.066,994.19,994.14,-4.96,-2.95,0.00,1.01,0.30,9.27,0.00,0.00,-0.00,0.00
2026-06-26 17:57:56.069,994.19,994.14,-4.96,-2.95,0.00,1.01,0.31,9.30,0.00,-0.00,0.00,0.00
2026-06-26 17:57:56.070,994.19,994.14,-4.96,-2.95,0.00,1.01,0.31,9.30,0.00,-0.00,0.00,0.00
2026-06-26 17:57:56.071,994.19,994.14,-4.96,-2.95,0.00,1.01,0.31,9.30,0.00,-0.00,0.00,0.00
2026-06-26 17:57:56.077,994.19,994.14,-4.96,-2.95,0.00,1.01,0.31,9.30,0.00,-0.00,0.00,0.00
2026-06-26 17:57:56.078,994.19,994.14,-4.96,-2.95,0.00,1.01,0.30,9.26,-0.00,-0.00,0.00,0.00
2026-06-26 17:57:56.160,994.19,994.14,-4.96,-2.95,0.00,1.02,0.30,9.32,0.00,-0.00,-0.00,0.00
2026-06-26 17:57:56.162,994.19,994.14,-4.96,-2.95,0.00,1.02,0.30,9.32,0.00,-0.00,-0.00,0.00
2026-06-26 17:57:56.163,994.19,994.14,-4.96,-2.95,0.00,1.02,0.30,9.32,0.00,-0.00,-0.00,0.00
2026-06-26 17:57:56.165,994.19,994.14,-4.96,-2.95,0.00,1.02,0.30,9.32,0.00,-0.00,-0.00,0.00
2026-06-26 17:57:56.168,994.19,994.14,-4.96,-2.95,0.00,1.02,0.30,9.32,0.00,0.00,0.00,0.00
2026-06-26 17:57:56.169,994.19,994.14,-4.96,-2.95,0.00,1.01,0.32,9.27,0.00,0.00,0.00,0.00
2026-06-26 17:57:56.171,994.19,994.14,-4.96,-2.95,0.00,1.01,0.32,9.27,0.00,0.00,0.00,0.00
2026-06-26 17:57:56.172,994.19,994.14,-4.96,-2.95,0.00,1.01,0.32,9.27,0.00,0.00,0.00,0.00
2026-06-26 17:57:56.177,994.19,994.14,-4.96,-2.95,0.00,1.01,0.32,9.27,0.00,0.00,0.00,0.00
2026-06-26 17:57:56.179,994.19,994.14,-4.96,-2.95,0.00,1.01,0.31,9.28,0.00,0.00,-0.00,0.00
2026-06-26 17:57:56.181,994.19,994.14,-4.96,-2.95,0.00,1.01,0.31,9.28,0.00,0.00,-0.00,0.00
2026-06-26 17:57:56.182,994.19,994.14,-4.96,-2.95,0.00,1.01,0.31,9.28,0.00,0.00,-0.00,0.00
2026-06-26 17:57:56.188,994.19,994.14,-4.96,-2.95,0.00,1.01,0.31,9.28,0.00,0.00,-0.00,0.00
2026-06-26 17:57:56.189,994.19,994.14,-4.96,-2.95,0.00,1.02,0.29,9.27,0.00,-0.00,-0.00,0.00
2026-06-26 17:57:56.191,994.19,994.14,-4.96,-2.95,0.00,1.02,0.29,9.27,0.00,-0.00,-0.00,0.00
2026-06-26 17:57:56.192,994.19,994.14,-4.96,-2.95,0.00,1.02,0.29,9.27,0.00,-0.00,-0.00,0.00
2026-06-26 17:57:56.198,994.19,994.14,-4.96,-2.95,0.00,1.02,0.29,9.27,0.00,-0.00,-0.00,0.00
2026-06-26 17:57:56.201,994.19,994.14,-4.96,-2.95,0.00,1.02,0.27,9.28,0.00,0.00,-0.00,0.00
2026-06-26 17:57:56.208,994.19,994.14,-4.96,-2.95,0.00,1.02,0.27,9.28,0.00,0.00,-0.00,0.00
2026-06-26 17:57:56.209,994.19,994.14,-4.96,-2.95,0.00,1.00,0.30,9.27,0.00,0.00,0.00,0.00
2026-06-26 17:57:56.210,994.19,994.14,-4.96,-2.95,0.00,1.00,0.30,9.27,0.00,0.00,0.00,0.00
2026-06-26 17:57:56.212,994.19,994.14,-4.96,-2.95,0.00,1.00,0.30,9.27,0.00,0.00,0.00,0.00
2026-06-26 17:57:56.213,994.19,994.14,-4.96,-2.95,0.00,1.00,0.30,9.27,0.00,0.00,0.00,0.00
2026-06-26 17:57:56.214,994.19,994.14,-4.96,-2.95,0.00,1.00,0.30,9.27,0.00,0.00,0.00,0.00
2026-06-26 17:57:56.215,994.19,994.14,-4.96,-2.95,0.00,1.00,0.30,9.27,0.00,0.00,0.00,0.00
2026-06-26 17:57:56.218,994.19,994.14,-4.96,-2.95,0.00,1.00,0.30,9.27,-0.00,0.00,-0.00,0.00
2026-06-26 17:57:56.221,994.19,994.14,-4.96,-2.95,0.00,1.02,0.31,9.28,-0.00,0.00,-0.00,0.00
2026-06-26 17:57:56.309,994.19,994.14,-5.07,-2.99,0.00,1.01,0.29,9.28,-0.00,0.00,-0.00,0.00
2026-06-26 17:57:56.310,994.19,994.14,-5.07,-2.99,0.00,1.01,0.29,9.28,-0.00,0.00,-0.00,0.00
2026-06-26 17:57:56.312,994.19,994.14,-5.07,-2.99,0.00,1.01,0.29,9.28,-0.00,0.00,-0.00,0.00
2026-06-26 17:57:56.313,994.19,994.14,-5.07,-2.99,0.00,1.01,0.29,9.28,-0.00,0.00,-0.00,0.00
2026-06-26 17:57:56.314,994.19,994.14,-5.07,-2.99,0.00,1.01,0.29,9.28,-0.00,0.00,-0.00,0.00
2026-06-26 17:57:56.316,994.19,994.14,-5.07,-2.99,0.00,1.01,0.29,9.28,-0.00,0.00,-0.00,0.00
2026-06-26 17:57:56.319,994.19,994.14,-5.07,-2.99,0.00,1.01,0.29,9.28,-0.00,-0.00,0.00,0.00
2026-06-26 17:57:56.320,994.19,994.14,-5.07,-2.99,0.00,1.01,0.31,9.27,-0.00,-0.00,0.00,0.00
2026-06-26 17:57:56.322,994.19,994.14,-5.07,-2.99,0.00,1.01,0.31,9.27,-0.00,-0.00,0.00,0.00
2026-06-26 17:57:56.325,994.19,994.14,-5.07,-2.99,0.00,1.01,0.31,9.27,-0.00,-0.00,0.00,0.00
2026-06-26 17:57:56.328,994.19,994.14,-5.07,-2.99,0.00,1.01,0.31,9.27,-0.00,-0.00,0.00,0.00
2026-06-26 17:57:56.330,994.19,994.14,-5.07,-2.99,0.00,1.01,0.30,9.27,-0.00,-0.00,0.00,0.00
2026-06-26 17:57:56.331,994.19,994.14,-5.07,-2.99,0.00,1.01,0.30,9.27,-0.00,-0.00,0.00,0.00
2026-06-26 17:57:56.333,994.19,994.14,-5.07,-2.99,0.00,1.01,0.30,9.27,-0.00,-0.00,0.00,0.00
2026-06-26 17:57:56.339,994.19,994.14,-5.07,-2.99,0.00,1.01,0.28,9.25,0.00,0.00,0.00,0.00
2026-06-26 17:57:56.341,994.19,994.14,-5.07,-2.99,0.00,1.01,0.28,9.25,0.00,0.00,0.00,0.00
2026-06-26 17:57:56.346,994.19,994.14,-5.07,-2.99,0.00,1.01,0.28,9.25,0.00,0.00,0.00,0.00
2026-06-26 17:57:56.349,994.19,994.14,-5.07,-2.99,0.00,1.01,0.28,9.25,0.00,0.00,-0.00,0.00
2026-06-26 17:57:56.350,994.19,994.14,-5.07,-2.99,0.00,1.01,0.31,9.30,0.00,0.00,-0.00,0.00
2026-06-26 17:57:56.351,994.19,994.14,-5.07,-2.99,0.00,1.01,0.31,9.30,0.00,0.00,-0.00,0.00
2026-06-26 17:57:56.354,994.19,994.14,-5.07,-2.99,0.00,1.01,0.31,9.30,0.00,0.00,-0.00,0.00
2026-06-26 17:57:56.359,994.19,994.14,-5.07,-2.99,0.00,1.01,0.31,9.30,0.00,-0.00,0.00,0.00
2026-06-26 17:57:56.360,994.19,994.14,-5.07,-2.99,0.00,1.01,0.30,9.30,0.00,-0.00,0.00,0.00
2026-06-26 17:57:56.363,994.19,994.14,-5.07,-2.99,0.00,1.01,0.30,9.30,0.00,-0.00,0.00,0.00
2026-06-26 17:57:56.365,994.19,994.14,-5.07,-2.99,0.00,1.01,0.30,9.30,0.00,-0.00,0.00,0.00
2026-06-26 17:57:56.368,994.19,994.14,-5.07,-2.99,0.00,1.01,0.30,9.30,0.00,-0.00,0.00,0.00
2026-06-26 17:57:56.408,994.19,994.13,-5.25,-3.04,0.00,1.01,0.31,9.29,0.00,0.00,0.00,0.00
