timestamp,pressure_bag,pressure_bme,diff_pressure,v_wind_est,speed,accel_x,accel_y,accel_z,gyro_x,gyro_y,gyro_z,power
2026-06-27 09:39:24.875,995.31,995.22,-9.44,-4.05,0.00,0.97,0.16,9.27,0.00,0.00,-0.00,0.00
2026-06-27 09:39:24.883,995.31,995.22,-9.44,-4.05,0.00,0.97,0.16,9.27,-0.00,-0.00,0.00,0.00
2026-06-27 09:39:24.888,995.31,995.22,-9.44,-4.05,0.00,0.97,0.19,9.30,-0.00,-0.00,0.00,0.00
2026-06-27 09:39:24.965,995.31,995.20,-10.80,-4.33,0.00,0.98,0.16,9.28,0.00,-0.00,-0.00,0.00
2026-06-27 09:39:24.971,995.31,995.20,-10.80,-4.33,0.00,0.98,0.16,9.28,0.00,-0.00,-0.00,0.00
2026-06-27 09:39:24.973,995.31,995.20,-10.80,-4.33,0.00,0.99,0.17,9.27,-0.00,0.00,0.00,0.00
2026-06-27 09:39:25.043,995.34,995.20,-13.16,-4.78,0.00,0.98,0.17,9.29,0.00,0.00,-0.00,0.00
2026-06-27 09:39:25.046,995.34,995.20,-13.16,-4.78,0.00,0.99,0.15,9.31,0.00,0.00,-0.00,0.00
2026-06-27 09:39:25.051,995.34,995.20,-13.16,-4.78,0.00,0.99,0.15,9.31,0.00,0.00,-0.00,0.00
2026-06-27 09:39:25.053,995.34,995.20,-13.16,-4.78,0.00,1.00,0.17,9.30,-0.00,0.00,0.00,0.00
2026-06-27 09:39:25.054,995.34,995.20,-13.16,-4.78,0.00,1.00,0.17,9.30,-0.00,0.00,0.00,0.00
2026-06-27 09:39:25.056,995.34,995.20,-13.16,-4.78,0.00,1.00,0.17,9.30,-0.00,0.00,0.00,0.00
2026-06-27 09:39:25.061,995.34,995.20,-13.16,-4.78,0.00,1.00,0.17,9.30,-0.00,0.00,0.00,0.00
2026-06-27 09:39:25.063,995.34,995.20,-13.16,-4.78,0.00,0.99,0.15,9.27,0.00,0.00,0.00,0.00
2026-06-27 09:39:25.068,995.34,995.20,-13.16,-4.78,0.00,0.99,0.15,9.27,0.00,0.00,0.00,0.00
2026-06-27 09:39:25.212,995.32,995.22,-10.28,-4.22,0.00,1.01,0.16,9.27,-0.00,0.00,-0.00,0.00
2026-06-27 09:39:25.213,995.32,995.22,-10.28,-4.22,0.00,1.00,0.18,9.27,-0.00,0.00,0.00,0.00
2026-06-27 09:39:25.214,995.32,995.22,-10.28,-4.22,0.00,1.00,0.18,9.27,-0.00,0.00,0.00,0.00
2026-06-27 09:39:25.216,995.32,995.22,-10.28,-4.22,0.00,1.00,0.18,9.27,-0.00,0.00,0.00,0.00
2026-06-27 09:39:25.217,995.32,995.22,-10.28,-4.22,0.00,1.00,0.18,9.27,-0.00,0.00,0.00,0.00
2026-06-27 09:39:25.220,995.32,995.22,-10.28,-4.22,0.00,1.00,0.18,9.27,-0.00,0.00,0.00,0.00
2026-06-27 09:39:25.223,995.32,995.22,-10.28,-4.22,0.00,1.00,0.18,9.27,-0.00,0.00,0.00,0.00
2026-06-27 09:39:25.224,995.32,995.22,-10.28,-4.22,0.00,0.99,0.17,9.30,-0.00,0.00,0.00,0.00
2026-06-27 09:39:25.226,995.32,995.22,-10.28,-4.22,0.00,0.99,0.17,9.30,-0.00,0.00,0.00,0.00
2026-06-27 09:39:25.227,995.32,995.22,-10.28,-4.22,0.00,0.99,0.17,9.30,-0.00,0.00,0.00,0.00
2026-06-27 09:39:25.232,995.32,995.22,-10.28,-4.22,0.00,0.99,0.17,9.30,-0.00,0.00,0.00,0.00
2026-06-27 09:39:25.233,995.32,995.22,-10.28,-4.22,0.00,1.00,0.18,9.29,-0.00,0.00,0.00,0.00
2026-06-27 09:39:25.234,995.32,995.22,-10.28,-4.22,0.00,1.00,0.18,9.29,-0.00,0.00,0.00,0.00
2026-06-27 09:39:25.236,995.32,995.22,-10.28,-4.22,0.00,1.00,0.18,9.29,-0.00,0.00,0.00,0.00
2026-06-27 09:39:25.237,995.32,995.22,-10.28,-4.22,0.00,1.00,0.18,9.29,-0.00,0.00,0.00,0.00
2026-06-27 09:39:25.239,995.32,995.22,-10.28,-4.22,0.00,1.00,0.18,9.29,-0.00,0.00,0.00,0.00
2026-06-27 09:39:25.240,995.32,995.22,-10.28,-4.22,0.00,1.00,0.18,9.29,-0.00,0.00,0.00,0.00
2026-06-27 09:39:25.243,995.32,995.22,-10.28,-4.22,0.00,0.97,0.17,9.31,-0.00,0.00,-0.00,0.00
2026-06-27 09:39:25.386,995.31,995.20,-11.11,-4.39,0.00,1.00,0.16,9.31,-0.00,0.00,0.00,0.00
2026-06-27 09:39:25.388,995.31,995.20,-11.11,-4.39,0.00,1.00,0.16,9.31,-0.00,0.00,0.00,0.00
2026-06-27 09:39:25.389,995.31,995.20,-11.11,-4.39,0.00,1.00,0.16,9.31,-0.00,0.00,0.00,0.00
2026-06-27 09:39:25.393,995.31,995.20,-11.11,-4.39,0.00,1.00,0.16,9.31,-0.00,0.00,0.00,0.00
2026-06-27 09:39:25.394,995.31,995.20,-11.11,-4.39,0.00,0.98,0.15,9.30,-0.00,0.00,0.00,0.00
2026-06-27 09:39:25.395,995.31,995.20,-11.11,-4.39,0.00,0.98,0.15,9.30,-0.00,0.00,0.00,0.00
2026-06-27 09:39:25.397,995.31,995.20,-11.11,-4.39,0.00,0.98,0.15,9.30,-0.00,0.00,0.00,0.00
2026-06-27 09:39:25.399,995.31,995.20,-11.11,-4.39,0.00,0.98,0.15,9.30,-0.00,0.00,0.00,0.00
2026-06-27 09:39:25.403,995.31,995.20,-11.11,-4.39,0.00,0.98,0.15,9.30,-0.00,-0.00,0.00,0.00
2026-06-27 09:39:25.405,995.31,995.20,-11.11,-4.39,0.00,0.99,0.16,9.30,-0.00,-0.00,0.00,0.00
2026-06-27 09:39:25.406,995.31,995.20,-11.11,-4.39,0.00,0.99,0.16,9.30,-0.00,-0.00,0.00,0.00
2026-06-27 09:39:25.409,995.31,995.20,-11.11,-4.39,0.00,0.99,0.16,9.30,-0.00,-0.00,0.00,0.00
2026-06-27 09:39:25.413,995.31,995.20,-11.11,-4.39,0.00,0.99,0.16,9.30,-0.00,0.00,0.00,0.00
2026-06-27 09:39:25.414,995.31,995.20,-11.11,-4.39,0.00,0.96,0.18,9.26,-0.00,0.00,0.00,0.00
2026-06-27 09:39:25.415,995.31,995.20,-11.11,-4.39,0.00,0.96,0.18,9.26,-0.00,0.00,0.00,0.00
2026-06-27 09:39:25.417,995.31,995.20,-11.11,-4.39,0.00,0.96,0.18,9.26,-0.00,0.00,0.00,0.00
2026-06-27 09:39:25.418,995.31,995.20,-11.11,-4.39,0.00,0.96,0.18,9.26,-0.00,0.00,0.00,0.00
2026-06-27 09:39:25.421,995.31,995.20,-11.11,-4.39,0.00,0.96,0.18,9.26,-0.00,0.00,0.00,0.00
2026-06-27 09:39:25.559,995.30,995.22,-8.17,-3.77,0.00,1.00,0.18,9.28,-0.00,-0.00,0.00,0.00
2026-06-27 09:39:25.563,995.30,995.22,-8.17,-3.77,0.00,1.00,0.18,9.28,0.00,0.00,-0.00,0.00
2026-06-27 09:39:25.564,995.30,995.22,-8.17,-3.77,0.00,0.99,0.18,9.28,0.00,0.00,-0.00,0.00
2026-06-27 09:39:25.566,995.30,995.22,-8.17,-3.77,0.00,0.99,0.18,9.28,0.00,0.00,-0.00,0.00
2026-06-27 09:39:25.567,995.30,995.22,-8.17,-3.77,0.00,0.99,0.18,9.28,0.00,0.00,-0.00,0.00
2026-06-27 09:39:25.568,995.30,995.22,-8.17,-3.77,0.00,0.99,0.18,9.28,0.00,0.00,-0.00,0.00
2026-06-27 09:39:25.573,995.30,995.22,-8.17,-3.77,0.00,0.99,0.18,9.28,0.00,0.00,-0.00,0.00
2026-06-27 09:39:25.575,995.30,995.22,-8.17,-3.77,0.00,0.98,0.18,9.29,0.00,0.00,0.00,0.00
2026-06-27 09:39:25.576,995.30,995.22,-8.17,-3.77,0.00,0.98,0.18,9.29,0.00,0.00,0.00,0.00
2026-06-27 09:39:25.577,995.30,995.22,-8.17,-3.77,0.00,0.98,0.18,9.29,0.00,0.00,0.00,0.00
2026-06-27 09:39:25.581,995.30,995.22,-8.17,-3.77,0.00,0.98,0.18,9.29,0.00,0.00,0.00,0.00
2026-06-27 09:39:25.584,995.30,995.22,-8.17,-3.77,0.00,0.98,0.18,9.29,0.00,0.00,0.00,0.00
2026-06-27 09:39:25.585,995.30,995.22,-8.17,-3.77,0.00,0.99,0.16,9.28,0.00,0.00,0.00,0.00
2026-06-27 09:39:25.586,995.30,995.22,-8.17,-3.77,0.00,0.99,0.16,9.28,0.00,0.00,0.00,0.00
2026-06-27 09:39:25.588,995.30,995.22,-8.17,-3.77,0.00,0.99,0.16,9.28,0.00,0.00,0.00,0.00
2026-06-27 09:39:25.591,995.30,995.22,-8.17,-3.77,0.00,0.99,0.16,9.28,0.00,0.00,0.00,0.00
2026-06-27 09:39:25.595,995.30,995.22,-8.17,-3.77,0.00,0.99,0.16,9.28,0.00,-0.00,0.00,0.00
2026-06-27 09:39:25.734,995.30,995.21,-8.49,-3.84,0.00,0.98,0.16,9.30,0.00,-0.00,-0.00,0.00
2026-06-27 09:39:25.736,995.30,995.21,-8.49,-3.84,0.00,0.98,0.16,9.30,0.00,-0.00,-0.00,0.00
2026-06-27 09:39:25.738,995.30,995.21,-8.49,-3.84,0.00,0.98,0.16,9.30,0.00,-0.00,-0.00,0.00
2026-06-27 09:39:25.739,995.30,995.21,-8.49,-3.84,0.00,0.98,0.16,9.30,0.00,-0.00,-0.00,0.00
2026-06-27 09:39:25.741,995.30,995.21,-8.49,-3.84,0.00,0.98,0.16,9.30,0.00,-0.00,-0.00,0.00
2026-06-27 09:39:25.744,995.30,995.21,-8.49,-3.84,0.00,0.98,0.16,9.30,0.00,0.00,-0.00,0.00
2026-06-27 09:39:25.745,995.30,995.21,-8.49,-3.84,0.00,0.99,0.18,9.29,0.00,0.00,-0.00,0.00
2026-06-27 09:39:25.746,995.30,995.21,-8.49,-3.84,0.00,0.99,0.18,9.29,0.00,0.00,-0.00,0.00
2026-06-27 09:39:25.748,995.30,995.21,-8.49,-3.84,0.00,0.99,0.18,9.29,0.00,0.00,-0.00,0.00
2026-06-27 09:39:25.752,995.30,995.21,-8.49,-3.84,0.00,0.99,0.18,9.29,0.00,0.00,-0.00,0.00
2026-06-27 09:39:25.754,995.30,995.21,-8.49,-3.84,0.00,0.98,0.18,9.27,0.00,-0.00,0.00,0.00
2026-06-27 09:39:25.756,995.30,995.21,-8.49,-3.84,0.00,0.98,0.18,9.27,0.00,-0.00,0.00,0.00
2026-06-27 09:39:25.758,995.30,995.21,-8.49,-3.84,0.00,0.98,0.18,9.27,0.00,-0.00,0.00,0.00
2026-06-27 09:39:25.763,995.30,995.21,-8.49,-3.84,0.00,0.98,0.18,9.27,0.00,-0.00,0.00,0.00
2026-06-27 09:39:25.765,995.30,995.21,-8.49,-3.84,0.00,1.00,0.18,9.25,-0.00,-0.00,0.00,0.00
2026-06-27 09:39:25.766,995.30,995.21,-8.49,-3.84,0.00,1.00,0.18,9.25,-0.00,-0.00,0.00,0.00
2026-06-27 09:39:25.767,995.30,995.21,-8.49,-3.84,0.00,1.00,0.18,9.25,-0.00,-0.00,0.00,0.00
2026-06-27 09:39:25.771,995.30,995.21,-8.49,-3.84,0.00,1.00,0.18,9.25,-0.00,-0.00,0.00,0.00
2026-06-27 09:39:25.914,995.31,995.21,-9.29,-4.01,0.00,0.98,0.18,9.27,0.00,-0.00,0.00,0.00
2026-06-27 09:39:25.915,995.31,995.21,-9.29,-4.01,0.00,1.00,0.17,9.27,0.00,0.00,-0.00,0.00
2026-06-27 09:39:25.917,995.31,995.21,-9.29,-4.01,0.00,1.00,0.17,9.27,0.00,0.00,-0.00,0.00
2026-06-27 09:39:25.918,995.31,995.21,-9.29,-4.01,0.00,1.00,0.17,9.27,0.00,0.00,-0.00,0.00
2026-06-27 09:39:25.919,995.31,995.21,-9.29,-4.01,0.00,1.00,0.17,9.27,0.00,0.00,-0.00,0.00
2026-06-27 09:39:25.924,995.31,995.21,-9.29,-4.01,0.00,1.00,0.17,9.27,-0.00,-0.00,0.00,0.00
2026-06-27 09:39:25.926,995.31,995.21,-9.29,-4.01,0.00,0.99,0.17,9.30,-0.00,-0.00,0.00,0.00
2026-06-27 09:39:25.927,995.31,995.21,-9.29,-4.01,0.00,0.99,0.17,9.30,-0.00,-0.00,0.00,0.00
2026-06-27 09:39:25.929,995.31,995.21,-9.29,-4.01,0.00,0.99,0.17,9.30,-0.00,-0.00,0.00,0.00
2026-06-27 09:39:25.934,995.31,995.21,-9.29,-4.01,0.00,0.99,0.17,9.30,-0.00,-0.00,0.00,0.00
2026-06-27 09:39:25.935,995.31,995.21,-9.29,-4.01,0.00,1.00,0.09,9.24,0.00,0.00,0.00,0.00
2026-06-27 09:39:25.937,995.31,995.21,-9.29,-4.01,0.00,1.00,0.09,9.24,0.00,0.00,0.00,0.00
2026-06-27 09:39:25.938,995.31,995.21,-9.29,-4.01,0.00,1.00,0.09,9.24,0.00,0.00,0.00,0.00
2026-06-27 09:39:25.940,995.31,995.21,-9.29,-4.01,0.00,1.00,0.09,9.24,0.00,0.00,0.00,0.00
2026-06-27 09:39:25.944,995.31,995.21,-9.29,-4.01,0.00,1.00,0.09,9.24,0.00,0.00,0.00,0.00
2026-06-27 09:39:25.947,995.31,995.21,-9.29,-4.01,0.00,0.92,0.21,9.14,0.00,0.00,-0.00,0.00
2026-06-27 09:39:26.089,995.33,995.21,-11.96,-4.56,0.00,1.00,0.23,9.34,0.00,0.01,0.00,0.00
2026-06-27 09:39:26.090,995.33,995.21,-11.96,-4.56,0.00,1.00,0.23,9.34,0.00,0.01,0.00,0.00
2026-06-27 09:39:26.094,995.33,995.21,-11.96,-4.56,0.00,1.00,0.23,9.34,0.00,0.01,0.00,0.00
2026-06-27 09:39:26.095,995.33,995.21,-11.96,-4.56,0.00,0.88,0.21,9.32,0.00,0.01,-0.00,0.00
2026-06-27 09:39:26.097,995.33,995.21,-11.96,-4.56,0.00,0.88,0.21,9.32,0.00,0.01,-0.00,0.00
2026-06-27 09:39:26.098,995.33,995.21,-11.96,-4.56,0.00,0.88,0.21,9.32,0.00,0.01,-0.00,0.00
2026-06-27 09:39:26.099,995.33,995.21,-11.96,-4.56,0.00,0.88,0.21,9.32,0.00,0.01,-0.00,0.00
2026-06-27 09:39:26.104,995.33,995.21,-11.96,-4.56,0.00,0.88,0.21,9.32,0.00,0.01,-0.00,0.00
2026-06-27 09:39:26.106,995.33,995.21,-11.96,-4.56,0.00,0.79,0.21,9.25,0.00,0.00,0.00,0.00
2026-06-27 09:39:26.108,995.33,995.21,-11.96,-4.56,0.00,0.79,0.21,9.25,0.00,0.00,0.00,0.00
2026-06-27 09:39:26.110,995.33,995.21,-11.96,-4.56,0.00,0.79,0.21,9.25,0.00,0.00,0.00,0.00
2026-06-27 09:39:26.115,995.33,995.21,-11.96,-4.56,0.00,0.79,0.21,9.25,0.00,0.00,-0.00,0.00
2026-06-27 09:39:26.116,995.33,995.21,-11.96,-4.56,0.00,1.03,0.16,9.23,0.00,0.00,-0.00,0.00
2026-06-27 09:39:26.117,995.33,995.21,-11.96,-4.56,0.00,1.03,0.16,9.23,0.00,0.00,-0.00,0.00
2026-06-27 09:39:26.118,995.33,995.21,-11.96,-4.56,0.00,1.03,0.16,9.23,0.00,0.00,-0.00,0.00
2026-06-27 09:39:26.120,995.33,995.21,-11.96,-4.56,0.00,1.03,0.16,9.23,0.00,0.00,-0.00,0.00
2026-06-27 09:39:26.125,995.33,995.21,-11.96,-4.56,0.00,1.03,0.16,9.23,0.00,0.00,-0.00,0.00
2026-06-27 09:39:26.266,995.31,995.21,-10.59,-4.29,0.00,1.28,0.22,9.28,0.02,0.18,-0.01,0.00
2026-06-27 09:39:26.267,995.31,995.21,-10.59,-4.29,0.00,1.28,0.22,9.28,0.02,0.18,-0.01,0.00
2026-06-27 09:39:26.270,995.31,995.21,-10.59,-4.29,0.00,1.28,0.22,9.28,0.02,0.18,-0.01,0.00
2026-06-27 09:39:26.275,995.31,995.21,-10.59,-4.29,0.00,1.28,0.22,9.28,0.02,0.18,-0.01,0.00
2026-06-27 09:39:26.278,995.31,995.21,-10.59,-4.29,0.00,1.43,0.15,9.28,0.03,0.19,-0.02,0.00
2026-06-27 09:39:26.279,995.31,995.21,-10.59,-4.29,0.00,1.43,0.15,9.28,0.03,0.19,-0.02,0.00
2026-06-27 09:39:26.280,995.31,995.21,-10.59,-4.29,0.00,1.43,0.15,9.28,0.03,0.19,-0.02,0.00
2026-06-27 09:39:26.285,995.31,995.21,-10.59,-4.29,0.00,1.43,0.15,9.28,0.03,0.20,-0.02,0.00
2026-06-27 09:39:26.287,995.31,995.21,-10.59,-4.29,0.00,1.33,0.18,9.27,0.03,0.20,-0.02,0.00
2026-06-27 09:39:26.288,995.31,995.21,-10.59,-4.29,0.00,1.33,0.18,9.27,0.03,0.20,-0.02,0.00
2026-06-27 09:39:26.290,995.31,995.21,-10.59,-4.29,0.00,1.33,0.18,9.27,0.03,0.20,-0.02,0.00
2026-06-27 09:39:26.292,995.31,995.21,-10.59,-4.29,0.00,1.33,0.18,9.27,0.03,0.20,-0.02,0.00
2026-06-27 09:39:26.293,995.31,995.21,-10.59,-4.29,0.00,1.33,0.18,9.27,0.03,0.20,-0.02,0.00
2026-06-27 09:39:26.294,995.31,995.21,-10.59,-4.29,0.00,1.33,0.18,9.27,0.03,0.20,-0.02,0.00
2026-06-27 09:39:26.296,995.31,995.21,-10.59,-4.29,0.00,1.33,0.18,9.27,0.03,0.21,-0.03,0.00
2026-06-27 09:39:26.298,995.31,995.21,-10.59,-4.29,0.00,1.11,0.21,9.27,0.03,0.21,-0.03,0.00
2026-06-27 09:39:26.299,995.31,995.21,-10.59,-4.29,0.00,1.11,0.21,9.27,0.03,0.21,-0.03,0.00
2026-06-27 09:39:26.301,995.31,995.21,-10.59,-4.29,0.00,1.11,0.21,9.27,0.03,0.21,-0.03,0.00
2026-06-27 09:39:26.302,995.31,995.21,-10.59,-4.29,0.00,1.11,0.21,9.27,0.03,0.21,-0.03,0.00
2026-06-27 09:39:26.444,995.31,995.20,-11.50,-4.47,0.00,0.62,0.29,9.30,0.03,0.26,-0.02,0.00
2026-06-27 09:39:26.446,995.31,995.20,-11.50,-4.47,0.00,0.62,0.29,9.30,0.03,0.25,-0.02,0.00
2026-06-27 09:39:26.447,995.31,995.20,-11.50,-4.47,0.00,0.55,0.29,9.32,0.03,0.25,-0.02,0.00
2026-06-27 09:39:26.449,995.31,995.20,-11.50,-4.47,0.00,0.55,0.29,9.32,0.03,0.25,-0.02,0.00
2026-06-27 09:39:26.451,995.31,995.20,-11.50,-4.47,0.00,0.55,0.29,9.32,0.03,0.25,-0.02,0.00
2026-06-27 09:39:26.453,995.31,995.20,-11.50,-4.47,0.00,0.55,0.29,9.32,0.03,0.25,-0.02,0.00
2026-06-27 09:39:26.454,995.31,995.20,-11.50,-4.47,0.00,0.55,0.29,9.32,0.03,0.25,-0.02,0.00
2026-06-27 09:39:26.456,995.31,995.20,-11.50,-4.47,0.00,0.55,0.29,9.32,0.03,0.25,-0.02,0.00
2026-06-27 09:39:26.458,995.31,995.20,-11.50,-4.47,0.00,0.39,0.29,9.33,0.03,0.25,-0.02,0.00
2026-06-27 09:39:26.459,995.31,995.20,-11.50,-4.47,0.00,0.39,0.29,9.33,0.03,0.25,-0.02,0.00
2026-06-27 09:39:26.460,995.31,995.20,-11.50,-4.47,0.00,0.39,0.29,9.33,0.03,0.25,-0.02,0.00
2026-06-27 09:39:26.462,995.31,995.20,-11.50,-4.47,0.00,0.39,0.29,9.33,0.03,0.25,-0.02,0.00
2026-06-27 09:39:26.463,995.31,995.20,-11.50,-4.47,0.00,0.39,0.29,9.33,0.03,0.25,-0.02,0.00
2026-06-27 09:39:26.464,995.31,995.20,-11.50,-4.47,0.00,0.39,0.29,9.33,0.03,0.25,-0.02,0.00
2026-06-27 09:39:26.466,995.31,995.20,-11.50,-4.47,0.00,0.39,0.29,9.33,0.03,0.25,-0.02,0.00
2026-06-27 09:39:26.467,995.31,995.20,-11.50,-4.47,0.00,0.36,0.31,9.34,0.03,0.25,-0.02,0.00
2026-06-27 09:39:26.468,995.31,995.20,-11.50,-4.47,0.00,0.36,0.31,9.34,0.03,0.25,-0.02,0.00
2026-06-27 09:39:26.470,995.31,995.20,-11.50,-4.47,0.00,0.36,0.31,9.34,0.03,0.25,-0.02,0.00
2026-06-27 09:39:26.473,995.31,995.20,-11.50,-4.47,0.00,0.36,0.31,9.34,0.03,0.25,-0.02,0.00
2026-06-27 09:39:26.476,995.31,995.20,-11.50,-4.47,0.00,0.36,0.31,9.34,0.03,0.25,-0.02,0.00
2026-06-27 09:39:26.478,995.31,995.20,-11.50,-4.47,0.00,0.41,0.32,9.33,0.03,0.25,-0.02,0.00
2026-06-27 09:39:26.617,995.31,995.19,-12.68,-4.69,0.00,0.18,0.28,9.34,0.03,0.25,-0.02,0.00
2026-06-27 09:39:26.620,995.31,995.19,-12.68,-4.69,0.00,0.18,0.28,9.34,0.03,0.25,-0.02,0.00
2026-06-27 09:39:26.622,995.31,995.19,-12.68,-4.69,0.00,0.18,0.28,9.34,0.03,0.25,-0.02,0.00
2026-06-27 09:39:26.626,995.31,995.19,-12.68,-4.69,0.00,0.18,0.28,9.34,0.03,0.24,-0.02,0.00
2026-06-27 09:39:26.627,995.31,995.19,-12.68,-4.69,0.00,0.26,0.28,9.31,0.03,0.24,-0.02,0.00
2026-06-27 09:39:26.629,995.31,995.19,-12.68,-4.69,0.00,0.26,0.28,9.31,0.03,0.24,-0.02,0.00
2026-06-27 09:39:26.630,995.31,995.19,-12.68,-4.69,0.00,0.26,0.28,9.31,0.03,0.24,-0.02,0.00
2026-06-27 09:39:26.631,995.31,995.19,-12.68,-4.69,0.00,0.26,0.28,9.31,0.03,0.24,-0.02,0.00
2026-06-27 09:39:26.635,995.31,995.19,-12.68,-4.69,0.00,0.26,0.28,9.31,0.03,0.24,-0.02,0.00
2026-06-27 09:39:26.637,995.31,995.19,-12.68,-4.69,0.00,-0.01,0.29,9.32,0.03,0.24,-0.02,0.00
2026-06-27 09:39:26.639,995.31,995.19,-12.68,-4.69,0.00,-0.01,0.29,9.32,0.03,0.24,-0.02,0.00
2026-06-27 09:39:26.640,995.31,995.19,-12.68,-4.69,0.00,-0.01,0.29,9.32,0.03,0.24,-0.02,0.00
2026-06-27 09:39:26.643,995.31,995.19,-12.68,-4.69,0.00,-0.01,0.29,9.32,0.03,0.24,-0.02,0.00
2026-06-27 09:39:26.645,995.31,995.19,-12.68,-4.69,0.00,-0.01,0.29,9.32,0.03,0.24,-0.02,0.00
2026-06-27 09:39:26.646,995.31,995.19,-12.68,-4.69,0.00,-0.01,0.29,9.32,0.03,0.24,-0.02,0.00
2026-06-27 09:39:26.647,995.31,995.19,-12.68,-4.69,0.00,-0.11,0.32,9.34,0.03,0.25,-0.03,0.00
2026-06-27 09:39:26.649,995.31,995.19,-12.68,-4.69,0.00,-0.11,0.32,9.34,0.03,0.25,-0.03,0.00
2026-06-27 09:39:26.651,995.31,995.19,-12.68,-4.69,0.00,-0.11,0.32,9.34,0.03,0.25,-0.03,0.00
2026-06-27 09:39:26.652,995.31,995.19,-12.68,-4.69,0.00,-0.11,0.32,9.34,0.03,0.25,-0.03,0.00
2026-06-27 09:39:26.654,995.31,995.19,-12.68,-4.69,0.00,-0.11,0.32,9.34,0.03,0.25,-0.03,0.00
2026-06-27 09:39:26.796,995.31,995.21,-9.73,-4.11,0.00,-0.53,0.28,9.36,0.03,0.24,-0.00,0.00
2026-06-27 09:39:26.798,995.31,995.21,-9.73,-4.11,0.00,-0.53,0.28,9.36,0.03,0.23,-0.00,0.00
2026-06-27 09:39:26.799,995.31,995.21,-9.73,-4.11,0.00,-0.64,0.26,9.38,0.03,0.23,-0.00,0.00
2026-06-27 09:39:26.800,995.31,995.21,-9.73,-4.11,0.00,-0.64,0.26,9.38,0.03,0.23,-0.00,0.00
2026-06-27 09:39:26.801,995.31,995.21,-9.73,-4.11,0.00,-0.64,0.26,9.38,0.03,0.23,-0.00,0.00
2026-06-27 09:39:26.803,995.31,995.21,-9.73,-4.11,0.00,-0.64,0.26,9.38,0.03,0.23,-0.00,0.00
2026-06-27 09:39:26.804,995.31,995.21,-9.73,-4.11,0.00,-0.64,0.26,9.38,0.03,0.23,-0.00,0.00
2026-06-27 09:39:26.806,995.31,995.21,-9.73,-4.11,0.00,-0.64,0.26,9.38,0.03,0.23,-0.00,0.00
2026-06-27 09:39:26.807,995.31,995.21,-9.73,-4.11,0.00,-0.64,0.26,9.38,0.03,0.22,-0.01,0.00
2026-06-27 09:39:26.809,995.31,995.21,-9.73,-4.11,0.00,-0.79,0.22,9.35,0.03,0.22,-0.01,0.00
2026-06-27 09:39:26.810,995.31,995.21,-9.73,-4.11,0.00,-0.79,0.22,9.35,0.03,0.22,-0.01,0.00
2026-06-27 09:39:26.811,995.31,995.21,-9.73,-4.11,0.00,-0.79,0.22,9.35,0.03,0.22,-0.01,0.00
2026-06-27 09:39:26.813,995.31,995.21,-9.73,-4.11,0.00,-0.79,0.22,9.35,0.03,0.22,-0.01,0.00
2026-06-27 09:39:26.817,995.31,995.21,-9.73,-4.11,0.00,-0.79,0.22,9.35,0.03,0.21,-0.01,0.00
2026-06-27 09:39:26.818,995.31,995.21,-9.73,-4.11,0.00,-0.79,0.22,9.34,0.03,0.21,-0.01,0.00
2026-06-27 09:39:26.819,995.31,995.21,-9.73,-4.11,0.00,-0.79,0.22,9.34,0.03,0.21,-0.01,0.00
2026-06-27 09:39:26.821,995.31,995.21,-9.73,-4.11,0.00,-0.79,0.22,9.34,0.03,0.21,-0.01,0.00
2026-06-27 09:39:26.823,995.31,995.21,-9.73,-4.11,0.00,-0.79,0.22,9.34,0.03,0.21,-0.01,0.00
2026-06-27 09:39:26.827,995.31,995.21,-9.73,-4.11,0.00,-0.79,0.22,9.34,0.03,0.19,-0.02,0.00
2026-06-27 09:39:26.828,995.31,995.21,-9.73,-4.11,0.00,-0.83,0.22,9.36,0.03,0.19,-0.02,0.00
2026-06-27 09:39:26.830,995.31,995.21,-9.73,-4.11,0.00,-0.83,0.22,9.36,0.03,0.19,-0.02,0.00
2026-06-27 09:39:26.831,995.31,995.21,-9.73,-4.11,0.00,-0.83,0.22,9.36,0.03,0.19,-0.02,0.00
2026-06-27 09:39:26.975,995.32,995.21,-10.82,-4.33,0.00,-0.87,0.36,9.39,0.01,0.11,-0.00,0.00
2026-06-27 09:39:26.978,995.32,995.21,-10.82,-4.33,0.00,-0.87,0.36,9.39,0.01,0.11,-0.00,0.00
2026-06-27 09:39:26.980,995.32,995.21,-10.82,-4.33,0.00,-0.84,0.34,9.34,0.01,0.11,-0.00,0.00
2026-06-27 09:39:26.981,995.32,995.21,-10.82,-4.33,0.00,-0.84,0.34,9.34,0.01,0.11,-0.00,0.00
2026-06-27 09:39:26.984,995.32,995.21,-10.82,-4.33,0.00,-0.84,0.34,9.34,0.01,0.11,-0.00,0.00
2026-06-27 09:39:26.988,995.32,995.21,-10.82,-4.33,0.00,-0.84,0.34,9.34,0.01,0.10,-0.00,0.00
2026-06-27 09:39:26.989,995.32,995.21,-10.82,-4.33,0.00,-0.87,0.32,9.36,0.01,0.10,-0.00,0.00
2026-06-27 09:39:26.991,995.32,995.21,-10.82,-4.33,0.00,-0.87,0.32,9.36,0.01,0.10,-0.00,0.00
2026-06-27 09:39:26.992,995.32,995.21,-10.82,-4.33,0.00,-0.87,0.32,9.36,0.01,0.10,-0.00,0.00
2026-06-27 09:39:26.994,995.32,995.21,-10.82,-4.33,0.00,-0.87,0.32,9.36,0.01,0.10,-0.00,0.00
2026-06-27 09:39:26.995,995.32,995.21,-10.82,-4.33,0.00,-0.87,0.32,9.36,0.01,0.10,-0.00,0.00
2026-06-27 09:39:26.996,995.32,995.21,-10.82,-4.33,0.00,-0.87,0.32,9.36,0.01,0.10,-0.00,0.00
2026-06-27 09:39:26.997,995.32,995.21,-10.82,-4.33,0.00,-0.87,0.32,9.36,0.01,0.09,-0.00,0.00
2026-06-27 09:39:26.999,995.32,995.21,-10.82,-4.33,0.00,-0.83,0.30,9.34,0.01,0.09,-0.00,0.00
2026-06-27 09:39:26.001,995.32,995.21,-10.82,-4.33,0.00,-0.83,0.30,9.34,0.01,0.09,-0.00,0.00
2026-06-27 09:39:27.003,995.32,995.21,-10.82,-4.33,0.00,-0.83,0.30,9.34,0.01,0.09,-0.00,0.00
2026-06-27 09:39:27.004,995.32,995.21,-10.82,-4.33,0.00,-0.83,0.30,9.34,0.01,0.09,-0.00,0.00
2026-06-27 09:39:27.006,995.32,995.21,-10.82,-4.33,0.00,-0.83,0.30,9.34,0.01,0.09,-0.00,0.00
2026-06-27 09:39:27.008,995.32,995.21,-10.82,-4.33,0.00,-0.83,0.30,9.34,0.01,0.08,-0.01,0.00
2026-06-27 09:39:27.145,995.33,995.20,-12.36,-4.63,0.00,-0.94,0.29,9.35,-0.00,-0.03,0.00,0.00
2026-06-27 09:39:27.146,995.33,995.20,-12.36,-4.63,0.00,-0.94,0.29,9.35,-0.00,-0.03,0.00,0.00
2026-06-27 09:39:27.148,995.33,995.20,-12.36,-4.63,0.00,-0.94,0.29,9.35,-0.00,-0.04,0.00,0.00
2026-06-27 09:39:27.149,995.33,995.20,-12.36,-4.63,0.00,-0.83,0.30,9.39,-0.00,-0.04,0.00,0.00
2026-06-27 09:39:27.150,995.33,995.20,-12.36,-4.63,0.00,-0.83,0.30,9.39,-0.00,-0.04,0.00,0.00
2026-06-27 09:39:27.151,995.33,995.20,-12.36,-4.63,0.00,-0.83,0.30,9.39,-0.00,-0.04,0.00,0.00
2026-06-27 09:39:27.152,995.33,995.20,-12.36,-4.63,0.00,-0.83,0.30,9.39,-0.00,-0.04,0.00,0.00
2026-06-27 09:39:27.154,995.33,995.20,-12.36,-4.63,0.00,-0.83,0.30,9.39,-0.00,-0.04,0.00,0.00
2026-06-27 09:39:27.157,995.33,995.20,-12.36,-4.63,0.00,-0.83,0.30,9.39,-0.00,-0.04,0.00,0.00
2026-06-27 09:39:27.159,995.33,995.20,-12.36,-4.63,0.00,-0.77,0.30,9.38,-0.01,-0.05,0.00,0.00
2026-06-27 09:39:27.160,995.33,995.20,-12.36,-4.63,0.00,-0.77,0.30,9.38,-0.01,-0.05,0.00,0.00
2026-06-27 09:39:27.161,995.33,995.20,-12.36,-4.63,0.00,-0.77,0.30,9.38,-0.01,-0.05,0.00,0.00
2026-06-27 09:39:27.163,995.33,995.20,-12.36,-4.63,0.00,-0.77,0.30,9.38,-0.01,-0.05,0.00,0.00
2026-06-27 09:39:27.164,995.33,995.20,-12.36,-4.63,0.00,-0.77,0.30,9.38,-0.01,-0.05,0.00,0.00
2026-06-27 09:39:27.165,995.33,995.20,-12.36,-4.63,0.00,-0.77,0.30,9.38,-0.01,-0.05,0.00,0.00
2026-06-27 09:39:27.166,995.33,995.20,-12.36,-4.63,0.00,-0.77,0.30,9.38,-0.01,-0.05,0.00,0.00
2026-06-27 09:39:27.168,995.33,995.20,-12.36,-4.63,0.00,-0.77,0.30,9.38,-0.01,-0.05,0.00,0.00
2026-06-27 09:39:27.170,995.33,995.20,-12.36,-4.63,0.00,-0.79,0.28,9.36,-0.01,-0.05,0.00,0.00
2026-06-27 09:39:27.172,995.33,995.20,-12.36,-4.63,0.00,-0.79,0.28,9.36,-0.01,-0.05,0.00,0.00
2026-06-27 09:39:27.178,995.33,995.20,-12.36,-4.63,0.00,-0.79,0.28,9.36,-0.01,-0.05,0.00,0.00
2026-06-27 09:39:27.179,995.33,995.20,-12.36,-4.63,0.00,-0.76,0.31,9.36,-0.01,-0.06,0.00,0.00
2026-06-27 09:39:27.322,995.34,995.20,-14.30,-4.98,0.00,-0.36,0.47,9.34,-0.01,-0.06,0.00,0.00
2026-06-27 09:39:27.323,995.34,995.20,-14.30,-4.98,0.00,-0.36,0.47,9.34,-0.01,-0.06,0.00,0.00
2026-06-27 09:39:27.328,995.34,995.20,-14.30,-4.98,0.00,-0.36,0.47,9.34,-0.01,-0.06,0.01,0.00
2026-06-27 09:39:27.330,995.34,995.20,-14.30,-4.98,0.00,-0.41,0.49,9.35,-0.01,-0.06,0.01,0.00
2026-06-27 09:39:27.331,995.34,995.20,-14.30,-4.98,0.00,-0.41,0.49,9.35,-0.01,-0.06,0.01,0.00
2026-06-27 09:39:27.332,995.34,995.20,-14.30,-4.98,0.00,-0.41,0.49,9.35,-0.01,-0.06,0.01,0.00
2026-06-27 09:39:27.333,995.34,995.20,-14.30,-4.98,0.00,-0.41,0.49,9.35,-0.01,-0.06,0.01,0.00
2026-06-27 09:39:27.338,995.34,995.20,-14.30,-4.98,0.00,-0.41,0.49,9.35,-0.01,-0.06,0.01,0.00
2026-06-27 09:39:27.340,995.34,995.20,-14.30,-4.98,0.00,-0.39,0.49,9.35,-0.01,-0.06,0.01,0.00
2026-06-27 09:39:27.342,995.34,995.20,-14.30,-4.98,0.00,-0.39,0.49,9.35,-0.01,-0.06,0.01,0.00
2026-06-27 09:39:27.343,995.34,995.20,-14.30,-4.98,0.00,-0.39,0.49,9.35,-0.01,-0.06,0.01,0.00
2026-06-27 09:39:27.344,995.34,995.20,-14.30,-4.98,0.00,-0.39,0.49,9.35,-0.01,-0.06,0.01,0.00
2026-06-27 09:39:27.345,995.34,995.20,-14.30,-4.98,0.00,-0.39,0.49,9.35,-0.01,-0.06,0.01,0.00
2026-06-27 09:39:27.347,995.34,995.20,-14.30,-4.98,0.00,-0.39,0.49,9.35,-0.01,-0.06,0.01,0.00
2026-06-27 09:39:27.348,995.34,995.20,-14.30,-4.98,0.00,-0.39,0.49,9.35,-0.01,-0.06,0.01,0.00
2026-06-27 09:39:27.349,995.34,995.20,-14.30,-4.98,0.00,-0.29,0.49,9.37,-0.01,-0.05,0.01,0.00
2026-06-27 09:39:27.350,995.34,995.20,-14.30,-4.98,0.00,-0.29,0.49,9.37,-0.01,-0.05,0.01,0.00
2026-06-27 09:39:27.352,995.34,995.20,-14.30,-4.98,0.00,-0.29,0.49,9.37,-0.01,-0.05,0.01,0.00
2026-06-27 09:39:27.353,995.34,995.20,-14.30,-4.98,0.00,-0.29,0.49,9.37,-0.01,-0.05,0.01,0.00
2026-06-27 09:39:27.354,995.34,995.20,-14.30,-4.98,0.00,-0.29,0.49,9.37,-0.01,-0.05,0.01,0.00
2026-06-27 09:39:27.499,995.33,995.20,-12.54,-4.67,0.00,-0.44,0.47,9.39,0.00,0.01,0.00,0.00
2026-06-27 09:39:27.500,995.33,995.20,-12.54,-4.67,0.00,-0.46,0.44,9.32,0.00,0.01,0.00,0.00
2026-06-27 09:39:27.501,995.33,995.20,-12.54,-4.67,0.00,-0.46,0.44,9.32,0.00,0.01,0.00,0.00
2026-06-27 09:39:27.503,995.33,995.20,-12.54,-4.67,0.00,-0.46,0.44,9.32,0.00,0.01,0.00,0.00
2026-06-27 09:39:27.507,995.33,995.20,-12.54,-4.67,0.00,-0.46,0.44,9.32,0.00,0.01,0.00,0.00
2026-06-27 09:39:27.509,995.33,995.20,-12.54,-4.67,0.00,-0.41,0.44,9.34,0.00,0.01,0.00,0.00
2026-06-27 09:39:27.511,995.33,995.20,-12.54,-4.67,0.00,-0.41,0.44,9.34,0.00,0.01,0.00,0.00
2026-06-27 09:39:27.512,995.33,995.20,-12.54,-4.67,0.00,-0.41,0.44,9.34,0.00,0.01,0.00,0.00
2026-06-27 09:39:27.513,995.33,995.20,-12.54,-4.67,0.00,-0.41,0.44,9.34,0.00,0.01,0.00,0.00
2026-06-27 09:39:27.516,995.33,995.20,-12.54,-4.67,0.00,-0.41,0.44,9.34,0.00,0.01,0.00,0.00
2026-06-27 09:39:27.520,995.33,995.20,-12.54,-4.67,0.00,-0.41,0.44,9.34,0.00,0.01,-0.00,0.00
2026-06-27 09:39:27.521,995.33,995.20,-12.54,-4.67,0.00,-0.38,0.45,9.33,0.00,0.01,-0.00,0.00
2026-06-27 09:39:27.523,995.33,995.20,-12.54,-4.67,0.00,-0.38,0.45,9.33,0.00,0.01,-0.00,0.00
2026-06-27 09:39:27.526,995.33,995.20,-12.54,-4.67,0.00,-0.38,0.45,9.33,0.00,0.01,-0.00,0.00
2026-06-27 09:39:27.529,995.33,995.20,-12.54,-4.67,0.00,-0.38,0.45,9.33,0.00,0.01,0.00,0.00
2026-06-27 09:39:27.530,995.33,995.20,-12.54,-4.67,0.00,-0.40,0.43,9.36,0.00,0.01,0.00,0.00
2026-06-27 09:39:27.672,995.32,995.21,-11.23,-4.41,0.00,-0.61,0.22,9.38,0.00,0.00,0.00,0.00
2026-06-27 09:39:27.675,995.32,995.21,-11.23,-4.41,0.00,-0.61,0.22,9.38,0.00,0.00,0.00,0.00
2026-06-27 09:39:27.679,995.32,995.21,-11.23,-4.41,0.00,-0.61,0.22,9.38,0.00,-0.00,0.01,0.00
2026-06-27 09:39:27.681,995.32,995.21,-11.23,-4.41,0.00,-0.82,0.24,9.38,0.00,-0.00,0.01,0.00
2026-06-27 09:39:27.683,995.32,995.21,-11.23,-4.41,0.00,-0.82,0.24,9.38,0.00,-0.00,0.01,0.00
2026-06-27 09:39:27.685,995.32,995.21,-11.23,-4.41,0.00,-0.82,0.24,9.38,0.00,-0.00,0.01,0.00
2026-06-27 09:39:27.690,995.32,995.21,-11.23,-4.41,0.00,-0.82,0.24,9.38,-0.00,-0.01,0.01,0.00
2026-06-27 09:39:27.695,995.32,995.21,-11.23,-4.41,0.00,-0.72,0.27,9.35,-0.00,-0.01,0.01,0.00
2026-06-27 09:39:27.699,995.32,995.21,-11.23,-4.41,0.00,-0.72,0.27,9.35,-0.00,-0.01,0.01,0.00
2026-06-27 09:39:27.701,995.32,995.21,-11.23,-4.41,0.00,-0.66,0.23,9.39,0.00,-0.01,0.00,0.00
2026-06-27 09:39:27.702,995.32,995.21,-11.23,-4.41,0.00,-0.66,0.23,9.39,0.00,-0.01,0.00,0.00
2026-06-27 09:39:27.704,995.32,995.21,-11.23,-4.41,0.00,-0.66,0.23,9.39,0.00,-0.01,0.00,0.00
2026-06-27 09:39:27.709,995.32,995.21,-11.23,-4.41,0.00,-0.66,0.23,9.39,-0.00,-0.02,0.00,0.00
2026-06-27 09:39:27.848,995.33,995.20,-12.86,-4.72,0.00,-0.42,0.37,9.37,-0.01,-0.05,0.00,0.00
2026-06-27 09:39:27.850,995.33,995.20,-12.86,-4.72,0.00,-0.42,0.37,9.37,-0.01,-0.05,0.00,0.00
2026-06-27 09:39:27.852,995.33,995.20,-12.86,-4.72,0.00,-0.39,0.34,9.36,-0.01,-0.05,0.00,0.00
2026-06-27 09:39:27.853,995.33,995.20,-12.86,-4.72,0.00,-0.39,0.34,9.36,-0.01,-0.05,0.00,0.00
2026-06-27 09:39:27.855,995.33,995.20,-12.86,-4.72,0.00,-0.39,0.34,9.36,-0.01,-0.05,0.00,0.00
2026-06-27 09:39:27.857,995.33,995.20,-12.86,-4.72,0.00,-0.39,0.34,9.36,-0.01,-0.05,0.00,0.00
2026-06-27 09:39:27.858,995.33,995.20,-12.86,-4.72,0.00,-0.39,0.34,9.36,-0.01,-0.05,0.00,0.00
2026-06-27 09:39:27.860,995.33,995.20,-12.86,-4.72,0.00,-0.39,0.34,9.36,-0.00,-0.05,-0.00,0.00
2026-06-27 09:39:27.863,995.33,995.20,-12.86,-4.72,0.00,-0.33,0.36,9.38,-0.00,-0.05,-0.00,0.00
2026-06-27 09:39:27.865,995.33,995.20,-12.86,-4.72,0.00,-0.33,0.36,9.38,-0.00,-0.05,-0.00,0.00
2026-06-27 09:39:27.866,995.33,995.20,-12.86,-4.72,0.00,-0.33,0.36,9.38,-0.00,-0.05,-0.00,0.00
2026-06-27 09:39:27.870,995.33,995.20,-12.86,-4.72,0.00,-0.33,0.36,9.38,-0.00,-0.05,-0.00,0.00
2026-06-27 09:39:27.871,995.33,995.20,-12.86,-4.72,0.00,-0.37,0.39,9.34,-0.00,-0.04,-0.00,0.00
2026-06-27 09:39:27.873,995.33,995.20,-12.86,-4.72,0.00,-0.37,0.39,9.34,-0.00,-0.04,-0.00,0.00
2026-06-27 09:39:27.875,995.33,995.20,-12.86,-4.72,0.00,-0.37,0.39,9.34,-0.00,-0.04,-0.00,0.00
2026-06-27 09:39:27.880,995.33,995.20,-12.86,-4.72,0.00,-0.37,0.39,9.34,-0.00,-0.04,-0.00,0.00
2026-06-27 09:39:27.881,995.33,995.20,-12.86,-4.72,0.00,-0.37,0.36,9.34,-0.00,-0.04,0.00,0.00
2026-06-27 09:39:27.883,995.33,995.20,-12.86,-4.72,0.00,-0.37,0.36,9.34,-0.00,-0.04,0.00,0.00
2026-06-27 09:39:27.884,995.33,995.20,-12.86,-4.72,0.00,-0.37,0.36,9.34,-0.00,-0.04,0.00,0.00
2026-06-27 09:39:27.887,995.33,995.20,-12.86,-4.72,0.00,-0.37,0.36,9.34,-0.00,-0.04,0.00,0.00
2026-06-27 09:39:28.031,995.33,995.19,-14.57,-5.03,0.00,-0.33,0.38,9.35,-0.00,-0.01,0.00,0.00
2026-06-27 09:39:28.033,995.33,995.19,-14.57,-5.03,0.00,-0.32,0.37,9.36,-0.00,-0.01,0.00,0.00
2026-06-27 09:39:28.040,995.33,995.19,-14.57,-5.03,0.00,-0.32,0.37,9.36,-0.00,-0.01,0.00,0.00
2026-06-27 09:39:28.042,995.33,995.19,-14.57,-5.03,0.00,-0.34,0.38,9.35,0.00,-0.01,0.00,0.00
2026-06-27 09:39:28.044,995.33,995.19,-14.57,-5.03,0.00,-0.34,0.38,9.35,0.00,-0.01,0.00,0.00
2026-06-27 09:39:28.046,995.33,995.19,-14.57,-5.03,0.00,-0.34,0.38,9.35,0.00,-0.01,0.00,0.00
2026-06-27 09:39:28.047,995.33,995.19,-14.57,-5.03,0.00,-0.34,0.38,9.35,0.00,-0.01,0.00,0.00
2026-06-27 09:39:28.049,995.33,995.19,-14.57,-5.03,0.00,-0.34,0.38,9.35,0.00,-0.01,0.00,0.00
2026-06-27 09:39:28.051,995.33,995.19,-14.57,-5.03,0.00,-0.37,0.39,9.36,0.00,-0.01,0.00,0.00
2026-06-27 09:39:28.060,995.33,995.19,-14.57,-5.03,0.00,-0.37,0.39,9.36,0.00,-0.01,0.00,0.00
2026-06-27 09:39:28.062,995.33,995.19,-14.57,-5.03,0.00,-0.33,0.39,9.34,0.00,-0.01,0.00,0.00
2026-06-27 09:39:28.063,995.33,995.19,-14.57,-5.03,0.00,-0.33,0.39,9.34,0.00,-0.01,0.00,0.00
2026-06-27 09:39:28.200,995.34,995.21,-12.80,-4.71,0.00,-0.44,0.39,9.37,-0.00,-0.02,-0.00,0.00
2026-06-27 09:39:28.202,995.34,995.21,-12.80,-4.71,0.00,-0.41,0.36,9.37,-0.00,-0.03,-0.00,0.00
2026-06-27 09:39:28.203,995.34,995.21,-12.80,-4.71,0.00,-0.41,0.36,9.37,-0.00,-0.03,-0.00,0.00
2026-06-27 09:39:28.206,995.34,995.21,-12.80,-4.71,0.00,-0.41,0.36,9.37,-0.00,-0.03,-0.00,0.00
2026-06-27 09:39:28.208,995.34,995.21,-12.80,-4.71,0.00,-0.41,0.36,9.37,-0.00,-0.03,-0.00,0.00
2026-06-27 09:39:28.210,995.34,995.21,-12.80,-4.71,0.00,-0.41,0.36,9.37,-0.00,-0.03,-0.00,0.00
2026-06-27 09:39:28.212,995.34,995.21,-12.80,-4.71,0.00,-0.38,0.35,9.37,-0.00,-0.03,0.00,0.00
2026-06-27 09:39:28.213,995.34,995.21,-12.80,-4.71,0.00,-0.38,0.35,9.37,-0.00,-0.03,0.00,0.00
2026-06-27 09:39:28.215,995.34,995.21,-12.80,-4.71,0.00,-0.38,0.35,9.37,-0.00,-0.03,0.00,0.00
2026-06-27 09:39:28.216,995.34,995.21,-12.80,-4.71,0.00,-0.38,0.35,9.37,-0.00,-0.03,0.00,0.00
2026-06-27 09:39:28.220,995.34,995.21,-12.80,-4.71,0.00,-0.38,0.35,9.37,-0.00,-0.03,0.00,0.00
2026-06-27 09:39:28.222,995.34,995.21,-12.80,-4.71,0.00,-0.35,0.36,9.33,-0.00,-0.03,0.00,0.00
2026-06-27 09:39:28.224,995.34,995.21,-12.80,-4.71,0.00,-0.35,0.36,9.33,-0.00,-0.03,0.00,0.00
2026-06-27 09:39:28.226,995.34,995.21,-12.80,-4.71,0.00,-0.35,0.36,9.33,-0.00,-0.03,0.00,0.00
2026-06-27 09:39:28.231,995.34,995.21,-12.80,-4.71,0.00,-0.35,0.36,9.33,-0.00,-0.03,0.00,0.00
2026-06-27 09:39:28.233,995.34,995.21,-12.80,-4.71,0.00,-0.38,0.38,9.38,-0.00,-0.03,0.00,0.00
2026-06-27 09:39:28.238,995.34,995.21,-12.80,-4.71,0.00,-0.38,0.38,9.38,-0.00,-0.03,0.00,0.00
2026-06-27 09:39:28.382,995.32,995.19,-13.04,-4.76,0.00,-0.25,0.37,9.35,-0.00,-0.04,0.00,0.00
2026-06-27 09:39:28.384,995.32,995.19,-13.04,-4.76,0.00,-0.25,0.37,9.35,-0.00,-0.04,0.00,0.00
2026-06-27 09:39:28.385,995.32,995.19,-13.04,-4.76,0.00,-0.25,0.37,9.35,-0.00,-0.04,0.00,0.00
2026-06-27 09:39:28.387,995.32,995.19,-13.04,-4.76,0.00,-0.25,0.37,9.35,-0.00,-0.04,0.00,0.00
2026-06-27 09:39:28.392,995.32,995.19,-13.04,-4.76,0.00,-0.25,0.37,9.35,-0.00,-0.04,-0.00,0.00
2026-06-27 09:39:28.395,995.32,995.19,-13.04,-4.76,0.00,-0.24,0.36,9.35,-0.00,-0.04,-0.00,0.00
2026-06-27 09:39:28.397,995.32,995.19,-13.04,-4.76,0.00,-0.24,0.36,9.35,-0.00,-0.04,-0.00,0.00
2026-06-27 09:39:28.398,995.32,995.19,-13.04,-4.76,0.00,-0.24,0.36,9.35,-0.00,-0.04,-0.00,0.00
2026-06-27 09:39:28.399,995.32,995.19,-13.04,-4.76,0.00,-0.24,0.36,9.35,-0.00,-0.04,-0.00,0.00
2026-06-27 09:39:28.401,995.32,995.19,-13.04,-4.76,0.00,-0.24,0.36,9.35,-0.00,-0.04,-0.00,0.00
2026-06-27 09:39:28.403,995.32,995.19,-13.04,-4.76,0.00,-0.22,0.35,9.38,-0.00,-0.03,-0.00,0.00
2026-06-27 09:39:28.404,995.32,995.19,-13.04,-4.76,0.00,-0.22,0.35,9.38,-0.00,-0.03,-0.00,0.00
2026-06-27 09:39:28.406,995.32,995.19,-13.04,-4.76,0.00,-0.22,0.35,9.38,-0.00,-0.03,-0.00,0.00
2026-06-27 09:39:28.408,995.32,995.19,-13.04,-4.76,0.00,-0.22,0.35,9.38,-0.00,-0.03,-0.00,0.00
2026-06-27 09:39:28.410,995.32,995.19,-13.04,-4.76,0.00,-0.22,0.35,9.38,-0.00,-0.03,-0.00,0.00
2026-06-27 09:39:28.411,995.32,995.19,-13.04,-4.76,0.00,-0.22,0.35,9.38,-0.00,-0.03,-0.00,0.00
2026-06-27 09:39:28.413,995.32,995.19,-13.04,-4.76,0.00,-0.20,0.35,9.37,-0.00,-0.03,-0.00,0.00
2026-06-27 09:39:28.429,995.32,995.19,-13.04,-4.76,0.00,-0.20,0.35,9.37,-0.00,-0.03,-0.00,0.00
2026-06-27 09:39:28.572,995.34,995.19,-15.36,-5.16,0.00,-0.22,0.37,9.37,-0.00,-0.01,0.00,0.00
2026-06-27 09:39:28.574,995.34,995.19,-15.36,-5.16,0.00,-0.21,0.36,9.38,-0.00,-0.01,0.00,0.00
2026-06-27 09:39:28.575,995.34,995.19,-15.36,-5.16,0.00,-0.21,0.36,9.38,-0.00,-0.01,0.00,0.00
2026-06-27 09:39:28.581,995.34,995.19,-15.36,-5.16,0.00,-0.21,0.36,9.38,-0.00,-0.01,0.00,0.00
2026-06-27 09:39:28.583,995.34,995.19,-15.36,-5.16,0.00,-0.18,0.35,9.36,-0.00,-0.01,0.00,0.00
2026-06-27 09:39:28.584,995.34,995.19,-15.36,-5.16,0.00,-0.18,0.35,9.36,-0.00,-0.01,0.00,0.00
2026-06-27 09:39:28.586,995.34,995.19,-15.36,-5.16,0.00,-0.18,0.35,9.36,-0.00,-0.01,0.00,0.00
2026-06-27 09:39:28.590,995.34,995.19,-15.36,-5.16,0.00,-0.18,0.35,9.36,-0.00,-0.01,0.00,0.00
2026-06-27 09:39:28.593,995.34,995.19,-15.36,-5.16,0.00,-0.12,0.34,9.39,-0.00,-0.01,-0.00,0.00
2026-06-27 09:39:28.595,995.34,995.19,-15.36,-5.16,0.00,-0.12,0.34,9.39,-0.00,-0.01,-0.00,0.00
2026-06-27 09:39:28.596,995.34,995.19,-15.36,-5.16,0.00,-0.12,0.34,9.39,-0.00,-0.01,-0.00,0.00
2026-06-27 09:39:28.597,995.34,995.19,-15.36,-5.16,0.00,-0.12,0.34,9.39,-0.00,-0.01,-0.00,0.00
2026-06-27 09:39:28.599,995.34,995.19,-15.36,-5.16,0.00,-0.12,0.34,9.39,-0.00,-0.01,-0.00,0.00
2026-06-27 09:39:28.601,995.34,995.19,-15.36,-5.16,0.00,-0.12,0.34,9.39,-0.00,-0.01,-0.00,0.00
2026-06-27 09:39:28.736,995.34,995.20,-13.62,-4.86,0.00,-0.27,0.38,9.37,0.00,0.02,-0.01,0.00
2026-06-27 09:39:28.742,995.34,995.20,-13.62,-4.86,0.00,-0.27,0.38,9.37,0.00,0.02,-0.01,0.00
2026-06-27 09:39:28.744,995.34,995.20,-13.62,-4.86,0.00,-0.28,0.37,9.35,0.00,0.02,-0.01,0.00
2026-06-27 09:39:28.746,995.34,995.20,-13.62,-4.86,0.00,-0.28,0.37,9.35,0.00,0.02,-0.01,0.00
2026-06-27 09:39:28.747,995.34,995.20,-13.62,-4.86,0.00,-0.28,0.37,9.35,0.00,0.02,-0.01,0.00
2026-06-27 09:39:28.749,995.34,995.20,-13.62,-4.86,0.00,-0.28,0.37,9.35,0.00,0.02,-0.01,0.00
2026-06-27 09:39:28.750,995.34,995.20,-13.62,-4.86,0.00,-0.28,0.37,9.35,0.00,0.02,-0.01,0.00
2026-06-27 09:39:28.751,995.34,995.20,-13.62,-4.86,0.00,-0.28,0.37,9.35,0.00,0.02,-0.01,0.00
2026-06-27 09:39:28.753,995.34,995.20,-13.62,-4.86,0.00,-0.28,0.37,9.35,0.00,0.03,-0.00,0.00
2026-06-27 09:39:28.755,995.34,995.20,-13.62,-4.86,0.00,-0.27,0.34,9.36,0.00,0.03,-0.00,0.00
2026-06-27 09:39:28.757,995.34,995.20,-13.62,-4.86,0.00,-0.27,0.34,9.36,0.00,0.03,-0.00,0.00
2026-06-27 09:39:28.758,995.34,995.20,-13.62,-4.86,0.00,-0.27,0.34,9.36,0.00,0.03,-0.00,0.00
2026-06-27 09:39:28.760,995.34,995.20,-13.62,-4.86,0.00,-0.27,0.34,9.36,0.00,0.03,-0.00,0.00
2026-06-27 09:39:28.762,995.34,995.20,-13.62,-4.86,0.00,-0.27,0.34,9.36,0.00,0.03,-0.00,0.00
2026-06-27 09:39:28.763,995.34,995.20,-13.62,-4.86,0.00,-0.27,0.34,9.36,0.00,0.02,-0.00,0.00
2026-06-27 09:39:28.765,995.34,995.20,-13.62,-4.86,0.00,-0.26,0.36,9.38,0.00,0.02,-0.00,0.00
2026-06-27 09:39:28.766,995.34,995.20,-13.62,-4.86,0.00,-0.26,0.36,9.38,0.00,0.02,-0.00,0.00
2026-06-27 09:39:28.767,995.34,995.20,-13.62,-4.86,0.00,-0.26,0.36,9.38,0.00,0.02,-0.00,0.00
2026-06-27 09:39:28.769,995.34,995.20,-13.62,-4.86,0.00,-0.26,0.36,9.38,0.00,0.02,-0.00,0.00
2026-06-27 09:39:28.771,995.34,995.20,-13.62,-4.86,0.00,-0.26,0.36,9.38,0.00,0.02,-0.00,0.00
2026-06-27 09:39:28.773,995.34,995.20,-13.62,-4.86,0.00,-0.29,0.34,9.33,0.00,0.02,-0.00,0.00
2026-06-27 09:39:28.775,995.34,995.20,-13.62,-4.86,0.00,-0.29,0.34,9.33,0.00,0.02,-0.00,0.00
2026-06-27 09:39:28.913,995.34,995.18,-15.51,-5.19,0.00,-0.37,0.31,9.40,0.00,0.02,-0.00,0.00
2026-06-27 09:39:28.915,995.34,995.18,-15.51,-5.19,0.00,-0.35,0.31,9.37,0.00,0.02,-0.00,0.00
2026-06-27 09:39:28.916,995.34,995.18,-15.51,-5.19,0.00,-0.35,0.31,9.37,0.00,0.02,-0.00,0.00
2026-06-27 09:39:28.920,995.34,995.18,-15.51,-5.19,0.00,-0.35,0.31,9.37,0.00,0.02,-0.00,0.00
2026-06-27 09:39:28.924,995.34,995.18,-15.51,-5.19,0.00,-0.35,0.31,9.37,0.00,0.02,-0.00,0.00
2026-06-27 09:39:28.926,995.34,995.18,-15.51,-5.19,0.00,-0.36,0.30,9.40,0.00,0.02,-0.00,0.00
2026-06-27 09:39:28.927,995.34,995.18,-15.51,-5.19,0.00,-0.36,0.30,9.40,0.00,0.02,-0.00,0.00
2026-06-27 09:39:28.933,995.34,995.18,-15.51,-5.19,0.00,-0.36,0.30,9.40,0.00,0.02,-0.00,0.00
2026-06-27 09:39:28.934,995.34,995.18,-15.51,-5.19,0.00,-0.39,0.29,9.38,0.00,0.01,-0.00,0.00
2026-06-27 09:39:28.935,995.34,995.18,-15.51,-5.19,0.00,-0.39,0.29,9.38,0.00,0.01,-0.00,0.00
2026-06-27 09:39:28.936,995.34,995.18,-15.51,-5.19,0.00,-0.39,0.29,9.38,0.00,0.01,-0.00,0.00
2026-06-27 09:39:28.942,995.34,995.18,-15.51,-5.19,0.00,-0.39,0.29,9.38,0.00,0.01,-0.00,0.00
2026-06-27 09:39:28.945,995.34,995.18,-15.51,-5.19,0.00,-0.42,0.28,9.38,0.00,0.01,-0.00,0.00
2026-06-27 09:39:28.946,995.34,995.18,-15.51,-5.19,0.00,-0.42,0.28,9.38,0.00,0.01,-0.00,0.00
2026-06-27 09:39:28.947,995.34,995.18,-15.51,-5.19,0.00,-0.42,0.28,9.38,0.00,0.01,-0.00,0.00
2026-06-27 09:39:29.094,995.34,995.20,-14.04,-4.94,0.00,-0.30,0.32,9.38,-0.00,-0.00,0.00,0.00
2026-06-27 09:39:29.095,995.34,995.20,-14.04,-4.94,0.00,-0.29,0.33,9.38,-0.00,-0.01,0.00,0.00
2026-06-27 09:39:29.096,995.34,995.20,-14.04,-4.94,0.00,-0.29,0.33,9.38,-0.00,-0.01,0.00,0.00
2026-06-27 09:39:29.097,995.34,995.20,-14.04,-4.94,0.00,-0.29,0.33,9.38,-0.00,-0.01,0.00,0.00
2026-06-27 09:39:29.099,995.34,995.20,-14.04,-4.94,0.00,-0.29,0.33,9.38,-0.00,-0.01,0.00,0.00
2026-06-27 09:39:29.100,995.34,995.20,-14.04,-4.94,0.00,-0.29,0.33,9.38,-0.00,-0.01,0.00,0.00
2026-06-27 09:39:29.101,995.34,995.20,-14.04,-4.94,0.00,-0.29,0.33,9.38,-0.00,-0.01,0.00,0.00
2026-06-27 09:39:29.104,995.34,995.20,-14.04,-4.94,0.00,-0.29,0.33,9.38,0.00,-0.01,0.00,0.00
2026-06-27 09:39:29.105,995.34,995.20,-14.04,-4.94,0.00,-0.32,0.33,9.38,0.00,-0.01,0.00,0.00
2026-06-27 09:39:29.107,995.34,995.20,-14.04,-4.94,0.00,-0.32,0.33,9.38,0.00,-0.01,0.00,0.00
2026-06-27 09:39:29.113,995.34,995.20,-14.04,-4.94,0.00,-0.32,0.33,9.38,0.00,-0.01,0.00,0.00
2026-06-27 09:39:29.115,995.34,995.20,-14.04,-4.94,0.00,-0.31,0.34,9.39,-0.00,-0.00,0.00,0.00
2026-06-27 09:39:29.116,995.34,995.20,-14.04,-4.94,0.00,-0.31,0.34,9.39,-0.00,-0.00,0.00,0.00
2026-06-27 09:39:29.117,995.34,995.20,-14.04,-4.94,0.00,-0.31,0.34,9.39,-0.00,-0.00,0.00,0.00
2026-06-27 09:39:29.121,995.34,995.20,-14.04,-4.94,0.00,-0.31,0.34,9.39,-0.00,-0.00,0.00,0.00
2026-06-27 09:39:29.124,995.34,995.20,-14.04,-4.94,0.00,-0.31,0.34,9.39,0.00,0.00,0.00,0.00
2026-06-27 09:39:29.125,995.34,995.20,-14.04,-4.94,0.00,-0.29,0.37,9.39,0.00,0.00,0.00,0.00
2026-06-27 09:39:29.267,995.34,995.21,-12.63,-4.68,0.00,-0.35,0.33,9.38,-0.00,0.00,-0.00,0.00
2026-06-27 09:39:29.268,995.34,995.21,-12.63,-4.68,0.00,-0.35,0.33,9.38,-0.00,0.00,-0.00,0.00
2026-06-27 09:39:29.274,995.34,995.21,-12.63,-4.68,0.00,-0.35,0.33,9.38,-0.00,0.00,-0.00,0.00
2026-06-27 09:39:29.275,995.34,995.21,-12.63,-4.68,0.00,-0.37,0.33,9.36,0.00,-0.00,-0.00,0.00
2026-06-27 09:39:29.277,995.34,995.21,-12.63,-4.68,0.00,-0.37,0.33,9.36,0.00,-0.00,-0.00,0.00
2026-06-27 09:39:29.278,995.34,995.21,-12.63,-4.68,0.00,-0.37,0.33,9.36,0.00,-0.00,-0.00,0.00
2026-06-27 09:39:29.281,995.34,995.21,-12.63,-4.68,0.00,-0.37,0.33,9.36,0.00,-0.00,-0.00,0.00
2026-06-27 09:39:29.284,995.34,995.21,-12.63,-4.68,0.00,-0.37,0.33,9.36,-0.00,-0.01,0.00,0.00
2026-06-27 09:39:29.285,995.34,995.21,-12.63,-4.68,0.00,-0.38,0.32,9.36,-0.00,-0.01,0.00,0.00
2026-06-27 09:39:29.287,995.34,995.21,-12.63,-4.68,0.00,-0.38,0.32,9.36,-0.00,-0.01,0.00,0.00
2026-06-27 09:39:29.288,995.34,995.21,-12.63,-4.68,0.00,-0.38,0.32,9.36,-0.00,-0.01,0.00,0.00
2026-06-27 09:39:29.294,995.34,995.21,-12.63,-4.68,0.00,-0.38,0.32,9.36,-0.00,-0.01,0.00,0.00
2026-06-27 09:39:29.295,995.34,995.21,-12.63,-4.68,0.00,-0.35,0.32,9.37,-0.00,-0.01,0.00,0.00
2026-06-27 09:39:29.297,995.34,995.21,-12.63,-4.68,0.00,-0.35,0.32,9.37,-0.00,-0.01,0.00,0.00
2026-06-27 09:39:29.298,995.34,995.21,-12.63,-4.68,0.00,-0.35,0.32,9.37,-0.00,-0.01,0.00,0.00
2026-06-27 09:39:29.299,995.34,995.21,-12.63,-4.68,0.00,-0.35,0.32,9.37,-0.00,-0.01,0.00,0.00
2026-06-27 09:39:29.300,995.34,995.21,-12.63,-4.68,0.00,-0.35,0.32,9.37,-0.00,-0.01,0.00,0.00
2026-06-27 09:39:29.301,995.34,995.21,-12.63,-4.68,0.00,-0.35,0.32,9.37,-0.00,-0.01,0.00,0.00
2026-06-27 09:39:29.445,995.34,995.19,-14.48,-5.01,0.00,-0.29,0.35,9.36,-0.00,-0.01,-0.00,0.00
2026-06-27 09:39:29.446,995.34,995.19,-14.48,-5.01,0.00,-0.27,0.33,9.38,-0.00,-0.02,-0.00,0.00
2026-06-27 09:39:29.453,995.34,995.19,-14.48,-5.01,0.00,-0.27,0.33,9.38,-0.00,-0.02,-0.00,0.00
2026-06-27 09:39:29.455,995.34,995.19,-14.48,-5.01,0.00,-0.29,0.34,9.37,-0.00,-0.02,-0.00,0.00
2026-06-27 09:39:29.457,995.34,995.19,-14.48,-5.01,0.00,-0.29,0.34,9.37,-0.00,-0.02,-0.00,0.00
2026-06-27 09:39:29.458,995.34,995.19,-14.48,-5.01,0.00,-0.29,0.34,9.37,-0.00,-0.02,-0.00,0.00
2026-06-27 09:39:29.464,995.34,995.19,-14.48,-5.01,0.00,-0.29,0.34,9.37,-0.00,-0.02,-0.00,0.00
2026-06-27 09:39:29.465,995.34,995.19,-14.48,-5.01,0.00,-0.27,0.33,9.37,-0.00,-0.01,-0.00,0.00
2026-06-27 09:39:29.466,995.34,995.19,-14.48,-5.01,0.00,-0.27,0.33,9.37,-0.00,-0.01,-0.00,0.00
2026-06-27 09:39:29.468,995.34,995.19,-14.48,-5.01,0.00,-0.27,0.33,9.37,-0.00,-0.01,-0.00,0.00
2026-06-27 09:39:29.469,995.34,995.19,-14.48,-5.01,0.00,-0.27,0.33,9.37,-0.00,-0.01,-0.00,0.00
2026-06-27 09:39:29.475,995.34,995.19,-14.48,-5.01,0.00,-0.27,0.33,9.37,-0.00,-0.01,-0.00,0.00
2026-06-27 09:39:29.476,995.34,995.19,-14.48,-5.01,0.00,-0.29,0.32,9.35,-0.00,-0.01,-0.00,0.00
2026-06-27 09:39:29.616,995.33,995.20,-13.13,-4.77,0.00,-0.26,0.31,9.38,0.00,-0.00,0.00,0.00
2026-06-27 09:39:29.617,995.33,995.20,-13.13,-4.77,0.00,-0.26,0.31,9.38,0.00,-0.00,0.00,0.00
2026-06-27 09:39:29.618,995.33,995.20,-13.13,-4.77,0.00,-0.26,0.31,9.38,0.00,-0.00,0.00,0.00
2026-06-27 09:39:29.620,995.33,995.20,-13.13,-4.77,0.00,-0.26,0.31,9.38,0.00,-0.00,0.00,0.00
2026-06-27 09:39:29.625,995.33,995.20,-13.13,-4.77,0.00,-0.26,0.31,9.38,0.00,-0.00,0.00,0.00
2026-06-27 09:39:29.626,995.33,995.20,-13.13,-4.77,0.00,-0.28,0.31,9.37,0.00,-0.00,-0.00,0.00
2026-06-27 09:39:29.627,995.33,995.20,-13.13,-4.77,0.00,-0.28,0.31,9.37,0.00,-0.00,-0.00,0.00
2026-06-27 09:39:29.629,995.33,995.20,-13.13,-4.77,0.00,-0.28,0.31,9.37,0.00,-0.00,-0.00,0.00
2026-06-27 09:39:29.630,995.33,995.20,-13.13,-4.77,0.00,-0.28,0.31,9.37,0.00,-0.00,-0.00,0.00
2026-06-27 09:39:29.633,995.33,995.20,-13.13,-4.77,0.00,-0.28,0.31,9.37,0.00,-0.00,-0.00,0.00
2026-06-27 09:39:29.636,995.33,995.20,-13.13,-4.77,0.00,-0.28,0.31,9.37,0.00,-0.00,0.00,0.00
2026-06-27 09:39:29.637,995.33,995.20,-13.13,-4.77,0.00,-0.27,0.32,9.38,0.00,-0.00,0.00,0.00
2026-06-27 09:39:29.638,995.33,995.20,-13.13,-4.77,0.00,-0.27,0.32,9.38,0.00,-0.00,0.00,0.00
2026-06-27 09:39:29.643,995.33,995.20,-13.13,-4.77,0.00,-0.27,0.32,9.38,0.00,-0.00,0.00,0.00
2026-06-27 09:39:29.646,995.33,995.20,-13.13,-4.77,0.00,-0.27,0.30,9.36,-0.00,-0.00,-0.00,0.00
2026-06-27 09:39:29.647,995.33,995.20,-13.13,-4.77,0.00,-0.27,0.30,9.36,-0.00,-0.00,-0.00,0.00
2026-06-27 09:39:29.649,995.33,995.20,-13.13,-4.77,0.00,-0.27,0.30,9.36,-0.00,-0.00,-0.00,0.00
2026-06-27 09:39:29.650,995.33,995.20,-13.13,-4.77,0.00,-0.27,0.30,9.36,-0.00,-0.00,-0.00,0.00
2026-06-27 09:39:29.651,995.33,995.20,-13.13,-4.77,0.00,-0.27,0.30,9.36,-0.00,-0.00,-0.00,0.00
2026-06-27 09:39:29.796,995.33,995.19,-13.64,-4.87,0.00,-0.30,0.30,9.37,-0.00,-0.01,0.00,0.00
2026-06-27 09:39:29.797,995.33,995.19,-13.64,-4.87,0.00,-0.32,0.32,9.34,-0.00,-0.01,0.00,0.00
2026-06-27 09:39:29.799,995.33,995.19,-13.64,-4.87,0.00,-0.32,0.32,9.34,-0.00,-0.01,0.00,0.00
2026-06-27 09:39:29.800,995.33,995.19,-13.64,-4.87,0.00,-0.32,0.32,9.34,-0.00,-0.01,0.00,0.00
2026-06-27 09:39:29.801,995.33,995.19,-13.64,-4.87,0.00,-0.32,0.32,9.34,-0.00,-0.01,0.00,0.00
2026-06-27 09:39:29.802,995.33,995.19,-13.64,-4.87,0.00,-0.32,0.32,9.34,-0.00,-0.01,0.00,0.00
2026-06-27 09:39:29.806,995.33,995.19,-13.64,-4.87,0.00,-0.32,0.32,9.34,0.00,-0.01,0.00,0.00
2026-06-27 09:39:29.807,995.33,995.19,-13.64,-4.87,0.00,-0.27,0.31,9.39,0.00,-0.01,0.00,0.00
2026-06-27 09:39:29.809,995.33,995.19,-13.64,-4.87,0.00,-0.27,0.31,9.39,0.00,-0.01,0.00,0.00
2026-06-27 09:39:29.815,995.33,995.19,-13.64,-4.87,0.00,-0.27,0.31,9.39,0.00,-0.01,0.00,0.00
2026-06-27 09:39:29.817,995.33,995.19,-13.64,-4.87,0.00,-0.28,0.30,9.39,0.00,-0.01,0.00,0.00
2026-06-27 09:39:29.818,995.33,995.19,-13.64,-4.87,0.00,-0.28,0.30,9.39,0.00,-0.01,0.00,0.00
2026-06-27 09:39:29.819,995.33,995.19,-13.64,-4.87,0.00,-0.28,0.30,9.39,0.00,-0.01,0.00,0.00
2026-06-27 09:39:29.823,995.33,995.19,-13.64,-4.87,0.00,-0.28,0.30,9.39,0.00,-0.01,0.00,0.00
2026-06-27 09:39:29.826,995.33,995.19,-13.64,-4.87,0.00,-0.28,0.30,9.39,-0.00,-0.01,0.00,0.00
2026-06-27 09:39:29.827,995.33,995.19,-13.64,-4.87,0.00,-0.27,0.28,9.35,-0.00,-0.01,0.00,0.00
2026-06-27 09:39:29.968,995.33,995.21,-12.18,-4.60,0.00,-0.25,0.33,9.36,0.00,-0.01,-0.00,0.00
2026-06-27 09:39:29.969,995.33,995.21,-12.18,-4.60,0.00,-0.25,0.33,9.36,0.00,-0.01,-0.00,0.00
2026-06-27 09:39:29.972,995.33,995.21,-12.18,-4.60,0.00,-0.25,0.33,9.36,0.00,-0.01,-0.00,0.00
2026-06-27 09:39:29.977,995.33,995.21,-12.18,-4.60,0.00,-0.25,0.33,9.36,-0.00,-0.01,0.00,0.00
2026-06-27 09:39:29.978,995.33,995.21,-12.18,-4.60,0.00,-0.23,0.33,9.36,-0.00,-0.01,0.00,0.00
2026-06-27 09:39:29.979,995.33,995.21,-12.18,-4.60,0.00,-0.23,0.33,9.36,-0.00,-0.01,0.00,0.00
2026-06-27 09:39:29.980,995.33,995.21,-12.18,-4.60,0.00,-0.23,0.33,9.36,-0.00,-0.01,0.00,0.00
2026-06-27 09:39:29.986,995.33,995.21,-12.18,-4.60,0.00,-0.23,0.33,9.36,-0.00,-0.01,0.00,0.00
2026-06-27 09:39:29.987,995.33,995.21,-12.18,-4.60,0.00,-0.24,0.30,9.38,0.00,-0.01,0.00,0.00
2026-06-27 09:39:29.989,995.33,995.21,-12.18,-4.60,0.00,-0.24,0.30,9.38,0.00,-0.01,0.00,0.00
2026-06-27 09:39:29.990,995.33,995.21,-12.18,-4.60,0.00,-0.24,0.30,9.38,0.00,-0.01,0.00,0.00
2026-06-27 09:39:29.996,995.33,995.21,-12.18,-4.60,0.00,-0.24,0.30,9.38,0.00,-0.01,0.00,0.00
2026-06-27 09:39:29.998,995.33,995.21,-12.18,-4.60,0.00,-0.22,0.31,9.35,0.00,-0.01,0.00,0.00
2026-06-27 09:39:29.999,995.33,995.21,-12.18,-4.60,0.00,-0.22,0.31,9.35,0.00,-0.01,0.00,0.00
2026-06-27 09:39:29.000,995.33,995.21,-12.18,-4.60,0.00,-0.22,0.31,9.35,0.00,-0.01,0.00,0.00
2026-06-27 09:39:29.002,995.33,995.21,-12.18,-4.60,0.00,-0.22,0.31,9.35,0.00,-0.01,0.00,0.00
2026-06-27 09:39:30.003,995.33,995.21,-12.18,-4.60,0.00,-0.22,0.31,9.35,0.00,-0.01,0.00,0.00
2026-06-27 09:39:30.147,995.34,995.21,-12.83,-4.72,0.00,-0.22,0.28,9.38,-0.00,-0.01,0.00,0.00
2026-06-27 09:39:30.148,995.34,995.21,-12.83,-4.72,0.00,-0.21,0.33,9.35,0.00,-0.01,0.00,0.00
2026-06-27 09:39:30.149,995.34,995.21,-12.83,-4.72,0.00,-0.21,0.33,9.35,0.00,-0.01,0.00,0.00
2026-06-27 09:39:30.150,995.34,995.21,-12.83,-4.72,0.00,-0.21,0.33,9.35,0.00,-0.01,0.00,0.00
2026-06-27 09:39:30.152,995.34,995.21,-12.83,-4.72,0.00,-0.21,0.33,9.35,0.00,-0.01,0.00,0.00
2026-06-27 09:39:30.153,995.34,995.21,-12.83,-4.72,0.00,-0.21,0.33,9.35,0.00,-0.01,0.00,0.00
2026-06-27 09:39:30.154,995.34,995.21,-12.83,-4.72,0.00,-0.21,0.33,9.35,0.00,-0.01,0.00,0.00
2026-06-27 09:39:30.157,995.34,995.21,-12.83,-4.72,0.00,-0.21,0.33,9.35,0.00,-0.01,0.00,0.00
2026-06-27 09:39:30.159,995.34,995.21,-12.83,-4.72,0.00,-0.22,0.32,9.36,0.00,-0.01,0.00,0.00
2026-06-27 09:39:30.160,995.34,995.21,-12.83,-4.72,0.00,-0.22,0.32,9.36,0.00,-0.01,0.00,0.00
2026-06-27 09:39:30.161,995.34,995.21,-12.83,-4.72,0.00,-0.22,0.32,9.36,0.00,-0.01,0.00,0.00
2026-06-27 09:39:30.166,995.34,995.21,-12.83,-4.72,0.00,-0.22,0.32,9.36,0.00,-0.01,0.00,0.00
2026-06-27 09:39:30.168,995.34,995.21,-12.83,-4.72,0.00,-0.21,0.32,9.37,0.00,-0.01,0.00,0.00
2026-06-27 09:39:30.169,995.34,995.21,-12.83,-4.72,0.00,-0.21,0.32,9.37,0.00,-0.01,0.00,0.00
2026-06-27 09:39:30.170,995.34,995.21,-12.83,-4.72,0.00,-0.21,0.32,9.37,0.00,-0.01,0.00,0.00
2026-06-27 09:39:30.174,995.34,995.21,-12.83,-4.72,0.00,-0.21,0.32,9.37,0.00,-0.01,0.00,0.00
2026-06-27 09:39:30.177,995.34,995.21,-12.83,-4.72,0.00,-0.21,0.32,9.37,0.00,-0.01,0.00,0.00
2026-06-27 09:39:30.178,995.34,995.21,-12.83,-4.72,0.00,-0.22,0.33,9.35,0.00,-0.01,0.00,0.00
2026-06-27 09:39:30.318,995.33,995.20,-12.77,-4.71,0.00,-0.19,0.34,9.38,-0.00,-0.01,0.00,0.00
2026-06-27 09:39:30.321,995.33,995.20,-12.77,-4.71,0.00,-0.19,0.34,9.38,-0.00,-0.01,0.00,0.00
2026-06-27 09:39:30.327,995.33,995.20,-12.77,-4.71,0.00,-0.19,0.34,9.38,-0.00,-0.01,0.00,0.00
2026-06-27 09:39:30.328,995.33,995.20,-12.77,-4.71,0.00,-0.21,0.36,9.36,-0.00,-0.01,0.00,0.00
2026-06-27 09:39:30.330,995.33,995.20,-12.77,-4.71,0.00,-0.21,0.36,9.36,-0.00,-0.01,0.00,0.00
2026-06-27 09:39:30.331,995.33,995.20,-12.77,-4.71,0.00,-0.21,0.36,9.36,-0.00,-0.01,0.00,0.00
2026-06-27 09:39:30.332,995.33,995.20,-12.77,-4.71,0.00,-0.21,0.36,9.36,-0.00,-0.01,0.00,0.00
2026-06-27 09:39:30.335,995.33,995.20,-12.77,-4.71,0.00,-0.21,0.36,9.36,-0.00,-0.01,0.00,0.00
2026-06-27 09:39:30.338,995.33,995.20,-12.77,-4.71,0.00,-0.21,0.36,9.36,-0.00,-0.01,0.00,0.00
2026-06-27 09:39:30.339,995.33,995.20,-12.77,-4.71,0.00,-0.22,0.35,9.34,-0.00,-0.01,0.00,0.00
2026-06-27 09:39:30.341,995.33,995.20,-12.77,-4.71,0.00,-0.22,0.35,9.34,-0.00,-0.01,0.00,0.00
2026-06-27 09:39:30.346,995.33,995.20,-12.77,-4.71,0.00,-0.22,0.35,9.34,-0.00,-0.01,0.00,0.00
2026-06-27 09:39:30.348,995.33,995.20,-12.77,-4.71,0.00,-0.20,0.37,9.36,-0.00,-0.01,0.00,0.00
2026-06-27 09:39:30.349,995.33,995.20,-12.77,-4.71,0.00,-0.20,0.37,9.36,-0.00,-0.01,0.00,0.00
2026-06-27 09:39:30.350,995.33,995.20,-12.77,-4.71,0.00,-0.20,0.37,9.36,-0.00,-0.01,0.00,0.00
2026-06-27 09:39:30.352,995.33,995.20,-12.77,-4.71,0.00,-0.20,0.37,9.36,-0.00,-0.01,0.00,0.00
2026-06-27 09:39:30.353,995.33,995.20,-12.77,-4.71,0.00,-0.20,0.37,9.36,-0.00,-0.01,0.00,0.00
2026-06-27 09:39:30.354,995.33,995.20,-12.77,-4.71,0.00,-0.20,0.37,9.36,-0.00,-0.01,0.00,0.00
2026-06-27 09:39:30.491,995.34,995.20,-13.51,-4.84,0.00,-0.14,0.33,9.38,-0.00,-0.02,-0.00,0.00
2026-06-27 09:39:30.494,995.34,995.20,-13.51,-4.84,0.00,-0.14,0.33,9.38,-0.00,-0.02,-0.00,0.00
2026-06-27 09:39:30.498,995.34,995.20,-13.51,-4.84,0.00,-0.14,0.33,9.38,-0.00,-0.02,0.00,0.00
2026-06-27 09:39:30.499,995.34,995.20,-13.51,-4.84,0.00,-0.14,0.33,9.37,-0.00,-0.02,0.00,0.00
2026-06-27 09:39:30.501,995.34,995.20,-13.51,-4.84,0.00,-0.14,0.33,9.37,-0.00,-0.02,0.00,0.00
2026-06-27 09:39:30.502,995.34,995.20,-13.51,-4.84,0.00,-0.14,0.33,9.37,-0.00,-0.02,0.00,0.00
2026-06-27 09:39:30.503,995.34,995.20,-13.51,-4.84,0.00,-0.14,0.33,9.37,-0.00,-0.02,0.00,0.00
2026-06-27 09:39:30.505,995.34,995.20,-13.51,-4.84,0.00,-0.14,0.33,9.37,-0.00,-0.02,0.00,0.00
2026-06-27 09:39:30.508,995.34,995.20,-13.51,-4.84,0.00,-0.14,0.33,9.37,-0.00,-0.02,0.00,0.00
2026-06-27 09:39:30.509,995.34,995.20,-13.51,-4.84,0.00,-0.15,0.34,9.37,-0.00,-0.02,0.00,0.00
2026-06-27 09:39:30.510,995.34,995.20,-13.51,-4.84,0.00,-0.15,0.34,9.37,-0.00,-0.02,0.00,0.00
2026-06-27 09:39:30.511,995.34,995.20,-13.51,-4.84,0.00,-0.15,0.34,9.37,-0.00,-0.02,0.00,0.00
2026-06-27 09:39:30.515,995.34,995.20,-13.51,-4.84,0.00,-0.15,0.34,9.37,-0.00,-0.02,0.00,0.00
2026-06-27 09:39:30.518,995.34,995.20,-13.51,-4.84,0.00,-0.15,0.34,9.37,-0.00,-0.02,0.00,0.00
2026-06-27 09:39:30.519,995.34,995.20,-13.51,-4.84,0.00,-0.14,0.32,9.35,-0.00,-0.02,0.00,0.00
2026-06-27 09:39:30.521,995.34,995.20,-13.51,-4.84,0.00,-0.14,0.32,9.35,-0.00,-0.02,0.00,0.00
2026-06-27 09:39:30.522,995.34,995.20,-13.51,-4.84,0.00,-0.14,0.32,9.35,-0.00,-0.02,0.00,0.00
2026-06-27 09:39:30.528,995.34,995.20,-13.51,-4.84,0.00,-0.14,0.32,9.35,-0.00,-0.02,0.00,0.00
2026-06-27 09:39:30.529,995.34,995.20,-13.51,-4.84,0.00,-0.12,0.34,9.36,-0.00,-0.02,0.00,0.00
2026-06-27 09:39:30.530,995.34,995.20,-13.51,-4.84,0.00,-0.12,0.34,9.36,-0.00,-0.02,0.00,0.00
2026-06-27 09:39:30.671,995.34,995.20,-14.24,-4.97,0.00,-0.05,0.31,9.39,-0.00,0.00,-0.00,0.00
2026-06-27 09:39:30.676,995.34,995.20,-14.24,-4.97,0.00,-0.05,0.31,9.39,-0.00,0.00,-0.00,0.00
2026-06-27 09:39:30.679,995.34,995.20,-14.24,-4.97,0.00,-0.05,0.31,9.39,0.00,0.00,-0.00,0.00
2026-06-27 09:39:30.680,995.34,995.20,-14.24,-4.97,0.00,-0.07,0.30,9.38,0.00,0.00,-0.00,0.00
2026-06-27 09:39:30.681,995.34,995.20,-14.24,-4.97,0.00,-0.07,0.30,9.38,0.00,0.00,-0.00,0.00
2026-06-27 09:39:30.682,995.34,995.20,-14.24,-4.97,0.00,-0.07,0.30,9.38,0.00,0.00,-0.00,0.00
2026-06-27 09:39:30.686,995.34,995.20,-14.24,-4.97,0.00,-0.07,0.30,9.38,0.00,0.00,-0.00,0.00
2026-06-27 09:39:30.689,995.34,995.20,-14.24,-4.97,0.00,-0.07,0.30,9.38,0.00,0.00,0.00,0.00
2026-06-27 09:39:30.692,995.34,995.20,-14.24,-4.97,0.00,-0.06,0.30,9.36,0.00,0.00,0.00,0.00
2026-06-27 09:39:30.698,995.34,995.20,-14.24,-4.97,0.00,-0.06,0.30,9.36,0.00,0.00,0.00,0.00
2026-06-27 09:39:30.700,995.34,995.20,-14.24,-4.97,0.00,-0.03,0.29,9.37,0.00,0.01,0.00,0.00
2026-06-27 09:39:30.701,995.34,995.20,-14.24,-4.97,0.00,-0.03,0.29,9.37,0.00,0.01,0.00,0.00
2026-06-27 09:39:30.702,995.34,995.20,-14.24,-4.97,0.00,-0.03,0.29,9.37,0.00,0.01,0.00,0.00
2026-06-27 09:39:30.703,995.34,995.20,-14.24,-4.97,0.00,-0.03,0.29,9.37,0.00,0.01,0.00,0.00
2026-06-27 09:39:30.705,995.34,995.20,-14.24,-4.97,0.00,-0.03,0.29,9.37,0.00,0.01,0.00,0.00
2026-06-27 09:39:30.707,995.34,995.20,-14.24,-4.97,0.00,-0.03,0.29,9.37,0.00,0.01,0.00,0.00
2026-06-27 09:39:30.849,995.35,995.21,-13.87,-4.91,0.00,-0.08,0.28,9.37,0.00,0.03,-0.00,0.00
2026-06-27 09:39:30.851,995.35,995.21,-13.87,-4.91,0.00,-0.09,0.29,9.37,0.00,0.03,-0.00,0.00
2026-06-27 09:39:30.852,995.35,995.21,-13.87,-4.91,0.00,-0.09,0.29,9.37,0.00,0.03,-0.00,0.00
2026-06-27 09:39:30.853,995.35,995.21,-13.87,-4.91,0.00,-0.09,0.29,9.37,0.00,0.03,-0.00,0.00
2026-06-27 09:39:30.855,995.35,995.21,-13.87,-4.91,0.00,-0.09,0.29,9.37,0.00,0.03,-0.00,0.00
2026-06-27 09:39:30.858,995.35,995.21,-13.87,-4.91,0.00,-0.09,0.29,9.37,0.00,0.03,-0.00,0.00
2026-06-27 09:39:30.859,995.35,995.21,-13.87,-4.91,0.00,-0.09,0.29,9.37,0.00,0.02,-0.00,0.00
2026-06-27 09:39:30.861,995.35,995.21,-13.87,-4.91,0.00,-0.09,0.28,9.38,0.00,0.02,-0.00,0.00
2026-06-27 09:39:30.862,995.35,995.21,-13.87,-4.91,0.00,-0.09,0.28,9.38,0.00,0.02,-0.00,0.00
2026-06-27 09:39:30.863,995.35,995.21,-13.87,-4.91,0.00,-0.09,0.28,9.38,0.00,0.02,-0.00,0.00
2026-06-27 09:39:30.864,995.35,995.21,-13.87,-4.91,0.00,-0.09,0.28,9.38,0.00,0.02,-0.00,0.00
2026-06-27 09:39:30.865,995.35,995.21,-13.87,-4.91,0.00,-0.09,0.28,9.38,0.00,0.02,-0.00,0.00
2026-06-27 09:39:30.867,995.35,995.21,-13.87,-4.91,0.00,-0.09,0.28,9.38,0.00,0.02,-0.00,0.00
2026-06-27 09:39:30.868,995.35,995.21,-13.87,-4.91,0.00,-0.09,0.28,9.38,0.00,0.02,-0.00,0.00
2026-06-27 09:39:30.872,995.35,995.21,-13.87,-4.91,0.00,-0.09,0.28,9.38,0.00,0.03,0.00,0.00
2026-06-27 09:39:30.874,995.35,995.21,-13.87,-4.91,0.00,-0.12,0.30,9.38,0.00,0.03,0.00,0.00
2026-06-27 09:39:30.875,995.35,995.21,-13.87,-4.91,0.00,-0.12,0.30,9.38,0.00,0.03,0.00,0.00
2026-06-27 09:39:30.877,995.35,995.21,-13.87,-4.91,0.00,-0.12,0.30,9.38,0.00,0.03,0.00,0.00
2026-06-27 09:39:30.878,995.35,995.21,-13.87,-4.91,0.00,-0.12,0.30,9.38,0.00,0.03,0.00,0.00
2026-06-27 09:39:30.880,995.35,995.21,-13.87,-4.91,0.00,-0.11,0.31,9.37,0.00,0.02,-0.00,0.00
2026-06-27 09:39:30.881,995.35,995.21,-13.87,-4.91,0.00,-0.11,0.31,9.37,0.00,0.02,-0.00,0.00
2026-06-27 09:39:30.882,995.35,995.21,-13.87,-4.91,0.00,-0.11,0.31,9.37,0.00,0.02,-0.00,0.00
2026-06-27 09:39:31.021,995.32,995.20,-12.02,-4.57,0.00,-0.16,0.36,9.37,0.00,0.02,0.00,0.00
2026-06-27 09:39:31.023,995.32,995.20,-12.02,-4.57,0.00,-0.16,0.36,9.37,0.00,0.02,0.00,0.00
2026-06-27 09:39:31.026,995.32,995.20,-12.02,-4.57,0.00,-0.16,0.36,9.37,0.00,0.02,0.00,0.00
2026-06-27 09:39:31.029,995.32,995.20,-12.02,-4.57,0.00,-0.16,0.36,9.37,0.00,0.03,-0.00,0.00
2026-06-27 09:39:31.031,995.32,995.20,-12.02,-4.57,0.00,-0.17,0.33,9.36,0.00,0.03,-0.00,0.00
2026-06-27 09:39:31.032,995.32,995.20,-12.02,-4.57,0.00,-0.17,0.33,9.36,0.00,0.03,-0.00,0.00
2026-06-27 09:39:31.033,995.32,995.20,-12.02,-4.57,0.00,-0.17,0.33,9.36,0.00,0.03,-0.00,0.00
2026-06-27 09:39:31.035,995.32,995.20,-12.02,-4.57,0.00,-0.17,0.33,9.36,0.00,0.03,-0.00,0.00
2026-06-27 09:39:31.039,995.32,995.20,-12.02,-4.57,0.00,-0.17,0.33,9.36,0.00,0.02,-0.00,0.00
2026-06-27 09:39:31.041,995.32,995.20,-12.02,-4.57,0.00,-0.17,0.33,9.38,0.00,0.02,-0.00,0.00
2026-06-27 09:39:31.043,995.32,995.20,-12.02,-4.57,0.00,-0.17,0.33,9.38,0.00,0.02,-0.00,0.00
2026-06-27 09:39:31.044,995.32,995.20,-12.02,-4.57,0.00,-0.17,0.33,9.38,0.00,0.02,-0.00,0.00
2026-06-27 09:39:31.049,995.32,995.20,-12.02,-4.57,0.00,-0.17,0.33,9.38,0.00,0.02,-0.00,0.00
2026-06-27 09:39:31.051,995.32,995.20,-12.02,-4.57,0.00,-0.18,0.35,9.37,0.00,0.02,-0.00,0.00
2026-06-27 09:39:31.052,995.32,995.20,-12.02,-4.57,0.00,-0.18,0.35,9.37,0.00,0.02,-0.00,0.00
2026-06-27 09:39:31.054,995.32,995.20,-12.02,-4.57,0.00,-0.18,0.35,9.37,0.00,0.02,-0.00,0.00
2026-06-27 09:39:31.055,995.32,995.20,-12.02,-4.57,0.00,-0.18,0.35,9.37,0.00,0.02,-0.00,0.00
2026-06-27 09:39:31.057,995.32,995.20,-12.02,-4.57,0.00,-0.18,0.35,9.37,0.00,0.02,-0.00,0.00
2026-06-27 09:39:31.200,995.33,995.21,-11.53,-4.47,0.00,-0.19,0.34,9.35,0.00,0.01,0.00,0.00
2026-06-27 09:39:31.201,995.33,995.21,-11.53,-4.47,0.00,-0.17,0.36,9.37,0.00,0.01,0.00,0.00
2026-06-27 09:39:31.203,995.33,995.21,-11.53,-4.47,0.00,-0.17,0.36,9.37,0.00,0.01,0.00,0.00
2026-06-27 09:39:31.204,995.33,995.21,-11.53,-4.47,0.00,-0.17,0.36,9.37,0.00,0.01,0.00,0.00
2026-06-27 09:39:31.206,995.33,995.21,-11.53,-4.47,0.00,-0.17,0.36,9.37,0.00,0.01,0.00,0.00
2026-06-27 09:39:31.207,995.33,995.21,-11.53,-4.47,0.00,-0.17,0.36,9.37,0.00,0.01,0.00,0.00
2026-06-27 09:39:31.210,995.33,995.21,-11.53,-4.47,0.00,-0.17,0.36,9.37,0.00,0.01,-0.00,0.00
2026-06-27 09:39:31.211,995.33,995.21,-11.53,-4.47,0.00,-0.15,0.33,9.36,0.00,0.01,-0.00,0.00
2026-06-27 09:39:31.212,995.33,995.21,-11.53,-4.47,0.00,-0.15,0.33,9.36,0.00,0.01,-0.00,0.00
2026-06-27 09:39:31.213,995.33,995.21,-11.53,-4.47,0.00,-0.15,0.33,9.36,0.00,0.01,-0.00,0.00
2026-06-27 09:39:31.215,995.33,995.21,-11.53,-4.47,0.00,-0.15,0.33,9.36,0.00,0.01,-0.00,0.00
2026-06-27 09:39:31.220,995.33,995.21,-11.53,-4.47,0.00,-0.15,0.33,9.36,0.00,0.01,0.00,0.00
2026-06-27 09:39:31.222,995.33,995.21,-11.53,-4.47,0.00,-0.16,0.33,9.36,0.00,0.01,0.00,0.00
2026-06-27 09:39:31.224,995.33,995.21,-11.53,-4.47,0.00,-0.16,0.33,9.36,0.00,0.01,0.00,0.00
2026-06-27 09:39:31.228,995.33,995.21,-11.53,-4.47,0.00,-0.16,0.33,9.36,0.00,0.01,0.00,0.00
2026-06-27 09:39:31.230,995.33,995.21,-11.53,-4.47,0.00,-0.16,0.33,9.36,0.00,0.01,-0.00,0.00
2026-06-27 09:39:31.231,995.33,995.21,-11.53,-4.47,0.00,-0.13,0.32,9.34,0.00,0.01,-0.00,0.00
2026-06-27 09:39:31.233,995.33,995.21,-11.53,-4.47,0.00,-0.13,0.32,9.34,0.00,0.01,-0.00,0.00
2026-06-27 09:39:31.374,995.35,995.20,-14.68,-5.05,0.00,-0.16,0.32,9.38,0.00,0.03,0.00,0.00
2026-06-27 09:39:31.377,995.35,995.20,-14.68,-5.05,0.00,-0.16,0.32,9.38,0.00,0.03,0.00,0.00
2026-06-27 09:39:31.381,995.35,995.20,-14.68,-5.05,0.00,-0.16,0.32,9.38,0.00,0.03,-0.00,0.00
2026-06-27 09:39:31.382,995.35,995.20,-14.68,-5.05,0.00,-0.20,0.32,9.37,0.00,0.03,-0.00,0.00
2026-06-27 09:39:31.383,995.35,995.20,-14.68,-5.05,0.00,-0.20,0.32,9.37,0.00,0.03,-0.00,0.00
2026-06-27 09:39:31.384,995.35,995.20,-14.68,-5.05,0.00,-0.20,0.32,9.37,0.00,0.03,-0.00,0.00
2026-06-27 09:39:31.385,995.35,995.20,-14.68,-5.05,0.00,-0.20,0.32,9.37,0.00,0.03,-0.00,0.00
2026-06-27 09:39:31.390,995.35,995.20,-14.68,-5.05,0.00,-0.20,0.32,9.37,0.00,0.03,-0.00,0.00
2026-06-27 09:39:31.392,995.35,995.20,-14.68,-5.05,0.00,-0.19,0.33,9.36,0.00,0.03,-0.00,0.00
2026-06-27 09:39:31.393,995.35,995.20,-14.68,-5.05,0.00,-0.19,0.33,9.36,0.00,0.03,-0.00,0.00
2026-06-27 09:39:31.394,995.35,995.20,-14.68,-5.05,0.00,-0.19,0.33,9.36,0.00,0.03,-0.00,0.00
2026-06-27 09:39:31.396,995.35,995.20,-14.68,-5.05,0.00,-0.19,0.33,9.36,0.00,0.03,-0.00,0.00
2026-06-27 09:39:31.401,995.35,995.20,-14.68,-5.05,0.00,-0.19,0.33,9.36,0.01,0.03,-0.00,0.00
2026-06-27 09:39:31.402,995.35,995.20,-14.68,-5.05,0.00,-0.19,0.33,9.39,0.01,0.03,-0.00,0.00
2026-06-27 09:39:31.404,995.35,995.20,-14.68,-5.05,0.00,-0.19,0.33,9.39,0.01,0.03,-0.00,0.00
2026-06-27 09:39:31.405,995.35,995.20,-14.68,-5.05,0.00,-0.19,0.33,9.39,0.01,0.03,-0.00,0.00
2026-06-27 09:39:31.407,995.35,995.20,-14.68,-5.05,0.00,-0.19,0.33,9.39,0.01,0.03,-0.00,0.00
2026-06-27 09:39:31.551,995.34,995.21,-12.71,-4.70,0.00,-0.26,0.33,9.37,0.00,0.03,-0.00,0.00
2026-06-27 09:39:31.552,995.34,995.21,-12.71,-4.70,0.00,-0.23,0.35,9.39,0.00,0.03,-0.00,0.00
2026-06-27 09:39:31.554,995.34,995.21,-12.71,-4.70,0.00,-0.23,0.35,9.39,0.00,0.03,-0.00,0.00
2026-06-27 09:39:31.556,995.34,995.21,-12.71,-4.70,0.00,-0.23,0.35,9.39,0.00,0.03,-0.00,0.00
2026-06-27 09:39:31.557,995.34,995.21,-12.71,-4.70,0.00,-0.23,0.35,9.39,0.00,0.03,-0.00,0.00
2026-06-27 09:39:31.559,995.34,995.21,-12.71,-4.70,0.00,-0.23,0.35,9.39,0.00,0.03,-0.00,0.00
2026-06-27 09:39:31.560,995.34,995.21,-12.71,-4.70,0.00,-0.23,0.35,9.39,0.00,0.03,-0.00,0.00
2026-06-27 09:39:31.561,995.34,995.21,-12.71,-4.70,0.00,-0.25,0.35,9.37,0.00,0.02,-0.00,0.00
2026-06-27 09:39:31.562,995.34,995.21,-12.71,-4.70,0.00,-0.25,0.35,9.37,0.00,0.02,-0.00,0.00
2026-06-27 09:39:31.564,995.34,995.21,-12.71,-4.70,0.00,-0.25,0.35,9.37,0.00,0.02,-0.00,0.00
2026-06-27 09:39:31.565,995.34,995.21,-12.71,-4.70,0.00,-0.25,0.35,9.37,0.00,0.02,-0.00,0.00
2026-06-27 09:39:31.566,995.34,995.21,-12.71,-4.70,0.00,-0.25,0.35,9.37,0.00,0.02,-0.00,0.00
2026-06-27 09:39:31.567,995.34,995.21,-12.71,-4.70,0.00,-0.25,0.35,9.37,0.00,0.02,-0.00,0.00
2026-06-27 09:39:31.571,995.34,995.21,-12.71,-4.70,0.00,-0.25,0.35,9.37,0.00,0.02,-0.00,0.00
2026-06-27 09:39:31.573,995.34,995.21,-12.71,-4.70,0.00,-0.25,0.31,9.38,0.00,0.02,-0.00,0.00
2026-06-27 09:39:31.574,995.34,995.21,-12.71,-4.70,0.00,-0.25,0.31,9.38,0.00,0.02,-0.00,0.00
2026-06-27 09:39:31.576,995.34,995.21,-12.71,-4.70,0.00,-0.25,0.31,9.38,0.00,0.02,-0.00,0.00
2026-06-27 09:39:31.577,995.34,995.21,-12.71,-4.70,0.00,-0.25,0.31,9.38,0.00,0.02,-0.00,0.00
2026-06-27 09:39:31.578,995.34,995.21,-12.71,-4.70,0.00,-0.25,0.31,9.38,0.00,0.02,-0.00,0.00
2026-06-27 09:39:31.580,995.34,995.21,-12.71,-4.70,0.00,-0.25,0.31,9.38,0.00,0.02,-0.00,0.00
2026-06-27 09:39:31.581,995.34,995.21,-12.71,-4.70,0.00,-0.25,0.31,9.38,0.00,0.02,-0.00,0.00
2026-06-27 09:39:31.582,995.34,995.21,-12.71,-4.70,0.00,-0.24,0.34,9.37,0.00,0.02,-0.00,0.00
2026-06-27 09:39:31.584,995.34,995.21,-12.71,-4.70,0.00,-0.24,0.34,9.37,0.00,0.02,-0.00,0.00
2026-06-27 09:39:31.723,995.34,995.19,-14.55,-5.02,0.00,-0.24,0.33,9.39,0.00,0.02,0.00,0.00
2026-06-27 09:39:31.725,995.34,995.19,-14.55,-5.02,0.00,-0.24,0.33,9.39,0.00,0.02,0.00,0.00
2026-06-27 09:39:31.726,995.34,995.19,-14.55,-5.02,0.00,-0.24,0.33,9.39,0.00,0.02,0.00,0.00
2026-06-27 09:39:31.731,995.34,995.19,-14.55,-5.02,0.00,-0.24,0.33,9.39,0.00,0.02,0.00,0.00
2026-06-27 09:39:31.733,995.34,995.19,-14.55,-5.02,0.00,-0.21,0.35,9.35,0.00,0.01,0.00,0.00
2026-06-27 09:39:31.736,995.34,995.19,-14.55,-5.02,0.00,-0.21,0.35,9.35,0.00,0.01,0.00,0.00
2026-06-27 09:39:31.741,995.34,995.19,-14.55,-5.02,0.00,-0.21,0.35,9.35,0.00,0.01,0.00,0.00
2026-06-27 09:39:31.743,995.34,995.19,-14.55,-5.02,0.00,-0.22,0.33,9.34,0.00,0.01,0.00,0.00
2026-06-27 09:39:31.744,995.34,995.19,-14.55,-5.02,0.00,-0.22,0.33,9.34,0.00,0.01,0.00,0.00
2026-06-27 09:39:31.745,995.34,995.19,-14.55,-5.02,0.00,-0.22,0.33,9.34,0.00,0.01,0.00,0.00
2026-06-27 09:39:31.747,995.34,995.19,-14.55,-5.02,0.00,-0.22,0.33,9.34,0.00,0.01,0.00,0.00
2026-06-27 09:39:31.752,995.34,995.19,-14.55,-5.02,0.00,-0.22,0.33,9.34,0.00,0.01,-0.00,0.00
2026-06-27 09:39:31.753,995.34,995.19,-14.55,-5.02,0.00,-0.23,0.33,9.37,0.00,0.01,-0.00,0.00
2026-06-27 09:39:31.754,995.34,995.19,-14.55,-5.02,0.00,-0.23,0.33,9.37,0.00,0.01,-0.00,0.00
2026-06-27 09:39:31.756,995.34,995.19,-14.55,-5.02,0.00,-0.23,0.33,9.37,0.00,0.01,-0.00,0.00
2026-06-27 09:39:31.758,995.34,995.19,-14.55,-5.02,0.00,-0.23,0.33,9.37,0.00,0.01,-0.00,0.00
2026-06-27 09:39:31.894,995.34,995.22,-11.63,-4.49,0.00,-0.22,0.33,9.37,0.00,0.02,-0.00,0.00
2026-06-27 09:39:31.896,995.34,995.22,-11.63,-4.49,0.00,-0.22,0.33,9.37,0.00,0.02,-0.00,0.00
2026-06-27 09:39:31.900,995.34,995.22,-11.63,-4.49,0.00,-0.22,0.33,9.37,0.00,0.02,-0.00,0.00
2026-06-27 09:39:31.903,995.34,995.22,-11.63,-4.49,0.00,-0.19,0.34,9.39,0.00,0.01,-0.00,0.00
2026-06-27 09:39:31.904,995.34,995.22,-11.63,-4.49,0.00,-0.19,0.34,9.39,0.00,0.01,-0.00,0.00
2026-06-27 09:39:31.906,995.34,995.22,-11.63,-4.49,0.00,-0.19,0.34,9.39,0.00,0.01,-0.00,0.00
2026-06-27 09:39:31.909,995.34,995.22,-11.63,-4.49,0.00,-0.19,0.34,9.39,0.00,0.01,-0.00,0.00
2026-06-27 09:39:31.911,995.34,995.22,-11.63,-4.49,0.00,-0.19,0.34,9.39,0.00,0.01,-0.00,0.00
2026-06-27 09:39:31.913,995.34,995.22,-11.63,-4.49,0.00,-0.20,0.32,9.37,0.00,0.02,-0.00,0.00
2026-06-27 09:39:31.914,995.34,995.22,-11.63,-4.49,0.00,-0.20,0.32,9.37,0.00,0.02,-0.00,0.00
2026-06-27 09:39:31.915,995.34,995.22,-11.63,-4.49,0.00,-0.20,0.32,9.37,0.00,0.02,-0.00,0.00
2026-06-27 09:39:31.916,995.34,995.22,-11.63,-4.49,0.00,-0.20,0.32,9.37,0.00,0.02,-0.00,0.00
2026-06-27 09:39:31.922,995.34,995.22,-11.63,-4.49,0.00,-0.20,0.32,9.37,0.00,0.02,-0.00,0.00
2026-06-27 09:39:31.923,995.34,995.22,-11.63,-4.49,0.00,-0.19,0.31,9.38,0.00,0.01,-0.00,0.00
2026-06-27 09:39:31.925,995.34,995.22,-11.63,-4.49,0.00,-0.19,0.31,9.38,0.00,0.01,-0.00,0.00
2026-06-27 09:39:31.926,995.34,995.22,-11.63,-4.49,0.00,-0.19,0.31,9.38,0.00,0.01,-0.00,0.00
2026-06-27 09:39:31.931,995.34,995.22,-11.63,-4.49,0.00,-0.19,0.31,9.38,0.00,0.01,-0.00,0.00
2026-06-27 09:39:32.075,995.33,995.21,-12.37,-4.63,0.00,-0.24,0.34,9.38,0.00,0.01,-0.00,0.00
2026-06-27 09:39:32.076,995.33,995.21,-12.37,-4.63,0.00,-0.24,0.34,9.38,0.00,0.01,-0.00,0.00
2026-06-27 09:39:32.080,995.33,995.21,-12.37,-4.63,0.00,-0.24,0.34,9.38,0.00,0.01,-0.00,0.00
2026-06-27 09:39:32.083,995.33,995.21,-12.37,-4.63,0.00,-0.24,0.34,9.38,0.00,0.01,-0.00,0.00
2026-06-27 09:39:32.084,995.33,995.21,-12.37,-4.63,0.00,-0.24,0.37,9.38,0.00,0.01,-0.00,0.00
2026-06-27 09:39:32.085,995.33,995.21,-12.37,-4.63,0.00,-0.24,0.37,9.38,0.00,0.01,-0.00,0.00
2026-06-27 09:39:32.086,995.33,995.21,-12.37,-4.63,0.00,-0.24,0.37,9.38,0.00,0.01,-0.00,0.00
2026-06-27 09:39:32.091,995.33,995.21,-12.37,-4.63,0.00,-0.24,0.37,9.38,0.00,0.01,-0.00,0.00
2026-06-27 09:39:32.093,995.33,995.21,-12.37,-4.63,0.00,-0.26,0.33,9.39,0.00,0.01,0.00,0.00
2026-06-27 09:39:32.094,995.33,995.21,-12.37,-4.63,0.00,-0.26,0.33,9.39,0.00,0.01,0.00,0.00
2026-06-27 09:39:32.095,995.33,995.21,-12.37,-4.63,0.00,-0.26,0.33,9.39,0.00,0.01,0.00,0.00
2026-06-27 09:39:32.097,995.33,995.21,-12.37,-4.63,0.00,-0.26,0.33,9.39,0.00,0.01,0.00,0.00
2026-06-27 09:39:32.098,995.33,995.21,-12.37,-4.63,0.00,-0.26,0.33,9.39,0.00,0.01,0.00,0.00
2026-06-27 09:39:32.103,995.33,995.21,-12.37,-4.63,0.00,-0.26,0.33,9.39,0.00,0.01,-0.00,0.00
2026-06-27 09:39:32.105,995.33,995.21,-12.37,-4.63,0.00,-0.25,0.33,9.38,0.00,0.01,-0.00,0.00
2026-06-27 09:39:32.107,995.33,995.21,-12.37,-4.63,0.00,-0.25,0.33,9.38,0.00,0.01,-0.00,0.00
2026-06-27 09:39:32.108,995.33,995.21,-12.37,-4.63,0.00,-0.25,0.33,9.38,0.00,0.01,-0.00,0.00
2026-06-27 09:39:32.253,995.35,995.21,-13.39,-4.82,0.00,-0.23,0.32,9.39,0.00,0.01,-0.00,0.00
2026-06-27 09:39:32.254,995.35,995.21,-13.39,-4.82,0.00,-0.23,0.33,9.38,0.00,0.01,0.00,0.00
2026-06-27 09:39:32.256,995.35,995.21,-13.39,-4.82,0.00,-0.23,0.33,9.38,0.00,0.01,0.00,0.00
2026-06-27 09:39:32.258,995.35,995.21,-13.39,-4.82,0.00,-0.23,0.33,9.38,0.00,0.01,0.00,0.00
2026-06-27 09:39:32.259,995.35,995.21,-13.39,-4.82,0.00,-0.23,0.33,9.38,0.00,0.01,0.00,0.00
2026-06-27 09:39:32.260,995.35,995.21,-13.39,-4.82,0.00,-0.23,0.33,9.38,0.00,0.01,0.00,0.00
2026-06-27 09:39:32.263,995.35,995.21,-13.39,-4.82,0.00,-0.23,0.33,9.38,0.00,0.01,0.00,0.00
2026-06-27 09:39:32.264,995.35,995.21,-13.39,-4.82,0.00,-0.23,0.32,9.37,0.00,0.00,0.00,0.00
2026-06-27 09:39:32.265,995.35,995.21,-13.39,-4.82,0.00,-0.23,0.32,9.37,0.00,0.00,0.00,0.00
2026-06-27 09:39:32.266,995.35,995.21,-13.39,-4.82,0.00,-0.23,0.32,9.37,0.00,0.00,0.00,0.00
2026-06-27 09:39:32.267,995.35,995.21,-13.39,-4.82,0.00,-0.23,0.32,9.37,0.00,0.00,0.00,0.00
2026-06-27 09:39:32.273,995.35,995.21,-13.39,-4.82,0.00,-0.23,0.32,9.37,0.00,0.00,0.00,0.00
2026-06-27 09:39:32.274,995.35,995.21,-13.39,-4.82,0.00,-0.22,0.33,9.36,0.00,0.01,-0.00,0.00
2026-06-27 09:39:32.276,995.35,995.21,-13.39,-4.82,0.00,-0.22,0.33,9.36,0.00,0.01,-0.00,0.00
2026-06-27 09:39:32.277,995.35,995.21,-13.39,-4.82,0.00,-0.22,0.33,9.36,0.00,0.01,-0.00,0.00
2026-06-27 09:39:32.281,995.35,995.21,-13.39,-4.82,0.00,-0.22,0.33,9.36,0.00,0.01,-0.00,0.00
2026-06-27 09:39:32.283,995.35,995.21,-13.39,-4.82,0.00,-0.22,0.33,9.36,0.00,0.01,-0.00,0.00
2026-06-27 09:39:32.285,995.35,995.21,-13.39,-4.82,0.00,-0.21,0.34,9.34,0.00,0.01,-0.00,0.00
2026-06-27 09:39:32.433,995.34,995.20,-13.63,-4.86,0.00,-0.20,0.35,9.40,-0.00,0.01,0.00,0.00
2026-06-27 09:39:32.434,995.34,995.20,-13.63,-4.86,0.00,-0.23,0.36,9.38,0.00,0.01,0.00,0.00
2026-06-27 09:39:32.435,995.34,995.20,-13.63,-4.86,0.00,-0.23,0.36,9.38,0.00,0.01,0.00,0.00
2026-06-27 09:39:32.437,995.34,995.20,-13.63,-4.86,0.00,-0.23,0.36,9.38,0.00,0.01,0.00,0.00
2026-06-27 09:39:32.441,995.34,995.20,-13.63,-4.86,0.00,-0.23,0.36,9.38,0.00,0.01,0.00,0.00
2026-06-27 09:39:32.444,995.34,995.20,-13.63,-4.86,0.00,-0.23,0.36,9.38,-0.00,0.01,0.00,0.00
2026-06-27 09:39:32.446,995.34,995.20,-13.63,-4.86,0.00,-0.24,0.36,9.37,-0.00,0.01,0.00,0.00
2026-06-27 09:39:32.449,995.34,995.20,-13.63,-4.86,0.00,-0.24,0.36,9.37,-0.00,0.01,0.00,0.00
2026-06-27 09:39:32.454,995.34,995.20,-13.63,-4.86,0.00,-0.24,0.36,9.37,0.00,0.01,0.00,0.00
2026-06-27 09:39:32.455,995.34,995.20,-13.63,-4.86,0.00,-0.23,0.40,9.36,0.00,0.01,0.00,0.00
2026-06-27 09:39:32.458,995.34,995.20,-13.63,-4.86,0.00,-0.23,0.40,9.36,0.00,0.01,0.00,0.00
2026-06-27 09:39:32.460,995.34,995.20,-13.63,-4.86,0.00,-0.23,0.40,9.36,0.00,0.01,0.00,0.00
2026-06-27 09:39:32.461,995.34,995.20,-13.63,-4.86,0.00,-0.23,0.40,9.36,0.00,0.01,0.00,0.00
2026-06-27 09:39:32.464,995.34,995.20,-13.63,-4.86,0.00,-0.23,0.40,9.36,0.00,0.01,0.00,0.00
2026-06-27 09:39:32.605,995.33,995.20,-13.06,-4.76,0.00,-0.24,0.33,9.37,-0.00,0.01,-0.00,0.00
2026-06-27 09:39:32.606,995.33,995.20,-13.06,-4.76,0.00,-0.24,0.33,9.37,-0.00,0.01,-0.00,0.00
2026-06-27 09:39:32.608,995.33,995.20,-13.06,-4.76,0.00,-0.24,0.33,9.37,-0.00,0.01,-0.00,0.00
2026-06-27 09:39:32.609,995.33,995.20,-13.06,-4.76,0.00,-0.24,0.33,9.37,-0.00,0.01,-0.00,0.00
2026-06-27 09:39:32.611,995.33,995.20,-13.06,-4.76,0.00,-0.24,0.33,9.37,-0.00,0.01,-0.00,0.00
2026-06-27 09:39:32.613,995.33,995.20,-13.06,-4.76,0.00,-0.24,0.33,9.37,-0.00,0.01,-0.00,0.00
2026-06-27 09:39:32.615,995.33,995.20,-13.06,-4.76,0.00,-0.24,0.35,9.38,0.00,0.01,0.00,0.00
2026-06-27 09:39:32.616,995.33,995.20,-13.06,-4.76,0.00,-0.24,0.35,9.38,0.00,0.01,0.00,0.00
2026-06-27 09:39:32.617,995.33,995.20,-13.06,-4.76,0.00,-0.24,0.35,9.38,0.00,0.01,0.00,0.00
2026-06-27 09:39:32.618,995.33,995.20,-13.06,-4.76,0.00,-0.24,0.35,9.38,0.00,0.01,0.00,0.00
2026-06-27 09:39:32.624,995.33,995.20,-13.06,-4.76,0.00,-0.24,0.35,9.38,0.00,0.01,0.00,0.00
2026-06-27 09:39:32.625,995.33,995.20,-13.06,-4.76,0.00,-0.23,0.35,9.35,-0.00,0.01,-0.00,0.00
2026-06-27 09:39:32.626,995.33,995.20,-13.06,-4.76,0.00,-0.23,0.35,9.35,-0.00,0.01,-0.00,0.00
2026-06-27 09:39:32.628,995.33,995.20,-13.06,-4.76,0.00,-0.23,0.35,9.35,-0.00,0.01,-0.00,0.00
2026-06-27 09:39:32.634,995.33,995.20,-13.06,-4.76,0.00,-0.23,0.35,9.35,-0.00,0.01,-0.00,0.00
2026-06-27 09:39:32.635,995.33,995.20,-13.06,-4.76,0.00,-0.22,0.36,9.34,0.00,0.01,-0.00,0.00
2026-06-27 09:39:32.637,995.33,995.20,-13.06,-4.76,0.00,-0.22,0.36,9.34,0.00,0.01,-0.00,0.00
2026-06-27 09:39:32.638,995.33,995.20,-13.06,-4.76,0.00,-0.22,0.36,9.34,0.00,0.01,-0.00,0.00
2026-06-27 09:39:32.642,995.33,995.20,-13.06,-4.76,0.00,-0.22,0.36,9.34,0.00,0.01,-0.00,0.00
2026-06-27 09:39:32.785,995.33,995.20,-13.48,-4.84,0.00,-0.25,0.33,9.36,0.00,0.01,-0.00,0.00
2026-06-27 09:39:32.786,995.33,995.20,-13.48,-4.84,0.00,-0.23,0.35,9.35,0.00,0.01,-0.00,0.00
2026-06-27 09:39:32.789,995.33,995.20,-13.48,-4.84,0.00,-0.23,0.35,9.35,0.00,0.01,-0.00,0.00
2026-06-27 09:39:32.794,995.33,995.20,-13.48,-4.84,0.00,-0.23,0.35,9.35,0.00,0.01,-0.00,0.00
2026-06-27 09:39:32.796,995.33,995.20,-13.48,-4.84,0.00,-0.22,0.36,9.38,0.00,0.01,-0.00,0.00
2026-06-27 09:39:32.797,995.33,995.20,-13.48,-4.84,0.00,-0.22,0.36,9.38,0.00,0.01,-0.00,0.00
2026-06-27 09:39:32.798,995.33,995.20,-13.48,-4.84,0.00,-0.22,0.36,9.38,0.00,0.01,-0.00,0.00
2026-06-27 09:39:32.801,995.33,995.20,-13.48,-4.84,0.00,-0.22,0.36,9.38,0.00,0.01,-0.00,0.00
2026-06-27 09:39:32.805,995.33,995.20,-13.48,-4.84,0.00,-0.22,0.36,9.38,0.00,0.01,-0.00,0.00
2026-06-27 09:39:32.807,995.33,995.20,-13.48,-4.84,0.00,-0.24,0.36,9.39,0.00,0.01,-0.00,0.00
2026-06-27 09:39:32.808,995.33,995.20,-13.48,-4.84,0.00,-0.24,0.36,9.39,0.00,0.01,-0.00,0.00
2026-06-27 09:39:32.810,995.33,995.20,-13.48,-4.84,0.00,-0.24,0.36,9.39,0.00,0.01,-0.00,0.00
2026-06-27 09:39:32.811,995.33,995.20,-13.48,-4.84,0.00,-0.24,0.36,9.39,0.00,0.01,-0.00,0.00
2026-06-27 09:39:32.815,995.33,995.20,-13.48,-4.84,0.00,-0.24,0.36,9.39,0.00,0.01,-0.00,0.00
2026-06-27 09:39:32.816,995.33,995.20,-13.48,-4.84,0.00,-0.22,0.33,9.37,0.00,0.01,-0.00,0.00
2026-06-27 09:39:32.817,995.33,995.20,-13.48,-4.84,0.00,-0.22,0.33,9.37,0.00,0.01,-0.00,0.00
2026-06-27 09:39:32.818,995.33,995.20,-13.48,-4.84,0.00,-0.22,0.33,9.37,0.00,0.01,-0.00,0.00
2026-06-27 09:39:32.958,995.34,995.18,-16.11,-5.29,0.00,-0.24,0.31,9.40,0.00,0.01,-0.00,0.00
2026-06-27 09:39:32.959,995.34,995.18,-16.11,-5.29,0.00,-0.24,0.31,9.40,0.00,0.01,-0.00,0.00
2026-06-27 09:39:32.960,995.34,995.18,-16.11,-5.29,0.00,-0.24,0.31,9.40,0.00,0.01,-0.00,0.00
2026-06-27 09:39:32.962,995.34,995.18,-16.11,-5.29,0.00,-0.24,0.31,9.40,0.00,0.01,-0.00,0.00
2026-06-27 09:39:32.964,995.34,995.18,-16.11,-5.29,0.00,-0.24,0.31,9.40,0.00,0.01,-0.00,0.00
2026-06-27 09:39:32.966,995.34,995.18,-16.11,-5.29,0.00,-0.27,0.31,9.38,0.00,0.00,0.00,0.00
2026-06-27 09:39:32.967,995.34,995.18,-16.11,-5.29,0.00,-0.27,0.31,9.38,0.00,0.00,0.00,0.00
2026-06-27 09:39:32.968,995.34,995.18,-16.11,-5.29,0.00,-0.27,0.31,9.38,0.00,0.00,0.00,0.00
2026-06-27 09:39:32.970,995.34,995.18,-16.11,-5.29,0.00,-0.27,0.31,9.38,0.00,0.00,0.00,0.00
2026-06-27 09:39:32.975,995.34,995.18,-16.11,-5.29,0.00,-0.27,0.31,9.38,0.00,0.00,0.00,0.00
2026-06-27 09:39:32.976,995.34,995.18,-16.11,-5.29,0.00,-0.30,0.28,9.37,0.00,0.00,-0.00,0.00
2026-06-27 09:39:32.978,995.34,995.18,-16.11,-5.29,0.00,-0.30,0.28,9.37,0.00,0.00,-0.00,0.00
2026-06-27 09:39:32.982,995.34,995.18,-16.11,-5.29,0.00,-0.30,0.28,9.37,0.00,0.00,-0.00,0.00
2026-06-27 09:39:32.985,995.34,995.18,-16.11,-5.29,0.00,-0.30,0.28,9.37,0.00,0.00,0.00,0.00
2026-06-27 09:39:32.986,995.34,995.18,-16.11,-5.29,0.00,-0.25,0.33,9.35,0.00,0.00,0.00,0.00
2026-06-27 09:39:32.988,995.34,995.18,-16.11,-5.29,0.00,-0.25,0.33,9.35,0.00,0.00,0.00,0.00
2026-06-27 09:39:32.992,995.34,995.18,-16.11,-5.29,0.00,-0.25,0.33,9.35,0.00,0.00,0.00,0.00
2026-06-27 09:39:32.995,995.34,995.18,-16.11,-5.29,0.00,-0.25,0.33,9.35,0.00,0.00,0.00,0.00
2026-06-27 09:39:33.136,995.34,995.19,-14.81,-5.07,0.00,-0.25,0.30,9.37,-0.00,-0.01,0.00,0.00
2026-06-27 09:39:33.139,995.34,995.19,-14.81,-5.07,0.00,-0.25,0.30,9.37,-0.00,-0.01,0.00,0.00
2026-06-27 09:39:33.143,995.34,995.19,-14.81,-5.07,0.00,-0.25,0.30,9.37,-0.00,-0.01,0.00,0.00
2026-06-27 09:39:33.146,995.34,995.19,-14.81,-5.07,0.00,-0.25,0.30,9.37,-0.00,-0.01,0.00,0.00
2026-06-27 09:39:33.147,995.34,995.19,-14.81,-5.07,0.00,-0.25,0.30,9.37,-0.00,-0.01,0.00,0.00
2026-06-27 09:39:33.148,995.34,995.19,-14.81,-5.07,0.00,-0.25,0.30,9.37,-0.00,-0.01,0.00,0.00
2026-06-27 09:39:33.149,995.34,995.19,-14.81,-5.07,0.00,-0.25,0.30,9.37,-0.00,-0.01,0.00,0.00
2026-06-27 09:39:33.155,995.34,995.19,-14.81,-5.07,0.00,-0.25,0.30,9.37,-0.00,-0.01,0.00,0.00
2026-06-27 09:39:33.157,995.34,995.19,-14.81,-5.07,0.00,-0.26,0.31,9.38,-0.00,-0.01,0.00,0.00
2026-06-27 09:39:33.158,995.34,995.19,-14.81,-5.07,0.00,-0.26,0.31,9.38,-0.00,-0.01,0.00,0.00
2026-06-27 09:39:33.160,995.34,995.19,-14.81,-5.07,0.00,-0.26,0.31,9.38,-0.00,-0.01,0.00,0.00
2026-06-27 09:39:33.161,995.34,995.19,-14.81,-5.07,0.00,-0.26,0.31,9.38,-0.00,-0.01,0.00,0.00
2026-06-27 09:39:33.162,995.34,995.19,-14.81,-5.07,0.00,-0.26,0.31,9.38,-0.00,-0.01,0.00,0.00
2026-06-27 09:39:33.164,995.34,995.19,-14.81,-5.07,0.00,-0.26,0.31,9.38,-0.00,-0.01,0.00,0.00
2026-06-27 09:39:33.166,995.34,995.19,-14.81,-5.07,0.00,-0.22,0.32,9.38,-0.00,-0.01,0.00,0.00
2026-06-27 09:39:33.167,995.34,995.19,-14.81,-5.07,0.00,-0.22,0.32,9.38,-0.00,-0.01,0.00,0.00
2026-06-27 09:39:33.168,995.34,995.19,-14.81,-5.07,0.00,-0.22,0.32,9.38,-0.00,-0.01,0.00,0.00
2026-06-27 09:39:33.170,995.34,995.19,-14.81,-5.07,0.00,-0.22,0.32,9.38,-0.00,-0.01,0.00,0.00
2026-06-27 09:39:33.175,995.34,995.19,-14.81,-5.07,0.00,-0.22,0.32,9.38,-0.00,-0.01,0.00,0.00
2026-06-27 09:39:33.316,995.34,995.20,-14.07,-4.94,0.00,-0.21,0.33,9.36,0.00,0.00,0.00,0.00
2026-06-27 09:39:33.318,995.34,995.20,-14.07,-4.94,0.00,-0.21,0.33,9.36,0.00,0.00,0.00,0.00
2026-06-27 09:39:33.319,995.34,995.20,-14.07,-4.94,0.00,-0.21,0.33,9.36,0.00,0.00,0.00,0.00
2026-06-27 09:39:33.321,995.34,995.20,-14.07,-4.94,0.00,-0.21,0.33,9.36,0.00,0.00,0.00,0.00
2026-06-27 09:39:33.326,995.34,995.20,-14.07,-4.94,0.00,-0.21,0.33,9.36,0.00,0.01,0.00,0.00
2026-06-27 09:39:33.327,995.34,995.20,-14.07,-4.94,0.00,-0.17,0.33,9.38,0.00,0.01,0.00,0.00
2026-06-27 09:39:33.328,995.34,995.20,-14.07,-4.94,0.00,-0.17,0.33,9.38,0.00,0.01,0.00,0.00
2026-06-27 09:39:33.330,995.34,995.20,-14.07,-4.94,0.00,-0.17,0.33,9.38,0.00,0.01,0.00,0.00
2026-06-27 09:39:33.332,995.34,995.20,-14.07,-4.94,0.00,-0.17,0.33,9.38,0.00,0.01,0.00,0.00
2026-06-27 09:39:33.336,995.34,995.20,-14.07,-4.94,0.00,-0.17,0.33,9.38,0.00,0.01,-0.00,0.00
2026-06-27 09:39:33.338,995.34,995.20,-14.07,-4.94,0.00,-0.21,0.33,9.36,0.00,0.01,-0.00,0.00
2026-06-27 09:39:33.339,995.34,995.20,-14.07,-4.94,0.00,-0.21,0.33,9.36,0.00,0.01,-0.00,0.00
2026-06-27 09:39:33.341,995.34,995.20,-14.07,-4.94,0.00,-0.21,0.33,9.36,0.00,0.01,-0.00,0.00
2026-06-27 09:39:33.346,995.34,995.20,-14.07,-4.94,0.00,-0.21,0.33,9.36,0.00,0.01,-0.00,0.00
2026-06-27 09:39:33.348,995.34,995.20,-14.07,-4.94,0.00,-0.19,0.35,9.37,0.00,0.01,0.00,0.00
2026-06-27 09:39:33.352,995.34,995.20,-14.07,-4.94,0.00,-0.19,0.35,9.37,0.00,0.01,0.00,0.00
2026-06-27 09:39:33.497,995.33,995.20,-13.27,-4.80,0.00,-0.31,0.33,9.38,0.00,0.00,-0.00,0.00
2026-06-27 09:39:33.498,995.33,995.20,-13.27,-4.80,0.00,-0.29,0.33,9.39,0.00,0.00,-0.00,0.00
2026-06-27 09:39:33.499,995.33,995.20,-13.27,-4.80,0.00,-0.29,0.33,9.39,0.00,0.00,-0.00,0.00
2026-06-27 09:39:33.501,995.33,995.20,-13.27,-4.80,0.00,-0.29,0.33,9.39,0.00,0.00,-0.00,0.00
2026-06-27 09:39:33.506,995.33,995.20,-13.27,-4.80,0.00,-0.29,0.33,9.39,0.00,0.00,-0.00,0.00
2026-06-27 09:39:33.508,995.33,995.20,-13.27,-4.80,0.00,-0.28,0.30,9.36,0.00,0.00,0.00,0.00
2026-06-27 09:39:33.509,995.33,995.20,-13.27,-4.80,0.00,-0.28,0.30,9.36,0.00,0.00,0.00,0.00
2026-06-27 09:39:33.511,995.33,995.20,-13.27,-4.80,0.00,-0.28,0.30,9.36,0.00,0.00,0.00,0.00
2026-06-27 09:39:33.512,995.33,995.20,-13.27,-4.80,0.00,-0.28,0.30,9.36,0.00,0.00,0.00,0.00
2026-06-27 09:39:33.513,995.33,995.20,-13.27,-4.80,0.00,-0.28,0.30,9.36,0.00,0.00,0.00,0.00
2026-06-27 09:39:33.514,995.33,995.20,-13.27,-4.80,0.00,-0.28,0.30,9.36,0.00,0.00,0.00,0.00
2026-06-27 09:39:33.516,995.33,995.20,-13.27,-4.80,0.00,-0.28,0.30,9.36,0.00,0.00,0.00,0.00
2026-06-27 09:39:33.518,995.33,995.20,-13.27,-4.80,0.00,-0.28,0.32,9.39,0.00,0.00,0.00,0.00
2026-06-27 09:39:33.519,995.33,995.20,-13.27,-4.80,0.00,-0.28,0.32,9.39,0.00,0.00,0.00,0.00
2026-06-27 09:39:33.521,995.33,995.20,-13.27,-4.80,0.00,-0.28,0.32,9.39,0.00,0.00,0.00,0.00
2026-06-27 09:39:33.526,995.33,995.20,-13.27,-4.80,0.00,-0.28,0.32,9.39,0.00,-0.00,0.00,0.00
2026-06-27 09:39:33.528,995.33,995.20,-13.27,-4.80,0.00,-0.28,0.32,9.37,0.00,-0.00,0.00,0.00
2026-06-27 09:39:33.668,995.34,995.20,-13.80,-4.89,0.00,-0.22,0.31,9.35,0.00,-0.00,0.00,0.00
2026-06-27 09:39:33.669,995.34,995.20,-13.80,-4.89,0.00,-0.22,0.31,9.35,0.00,-0.00,0.00,0.00
2026-06-27 09:39:33.671,995.34,995.20,-13.80,-4.89,0.00,-0.22,0.31,9.35,0.00,-0.00,0.00,0.00
2026-06-27 09:39:33.675,995.34,995.20,-13.80,-4.89,0.00,-0.22,0.31,9.35,0.00,-0.00,0.00,0.00
2026-06-27 09:39:33.677,995.34,995.20,-13.80,-4.89,0.00,-0.21,0.34,9.30,0.00,-0.01,0.00,0.00
2026-06-27 09:39:33.679,995.34,995.20,-13.80,-4.89,0.00,-0.21,0.34,9.30,0.00,-0.01,0.00,0.00
2026-06-27 09:39:33.680,995.34,995.20,-13.80,-4.89,0.00,-0.21,0.34,9.30,0.00,-0.01,0.00,0.00
2026-06-27 09:39:33.681,995.34,995.20,-13.80,-4.89,0.00,-0.21,0.34,9.30,0.00,-0.01,0.00,0.00
2026-06-27 09:39:33.687,995.34,995.20,-13.80,-4.89,0.00,-0.21,0.34,9.30,0.00,-0.01,0.00,0.00
2026-06-27 09:39:33.688,995.34,995.20,-13.80,-4.89,0.00,-0.25,0.37,9.35,0.00,-0.00,0.00,0.00
2026-06-27 09:39:33.690,995.34,995.20,-13.80,-4.89,0.00,-0.25,0.37,9.35,0.00,-0.00,0.00,0.00
2026-06-27 09:39:33.691,995.34,995.20,-13.80,-4.89,0.00,-0.25,0.37,9.35,0.00,-0.00,0.00,0.00
2026-06-27 09:39:33.697,995.34,995.20,-13.80,-4.89,0.00,-0.25,0.37,9.35,0.00,-0.00,0.00,0.00
2026-06-27 09:39:33.698,995.34,995.20,-13.80,-4.89,0.00,-0.20,0.34,9.39,0.00,0.00,0.00,0.00
2026-06-27 09:39:33.699,995.34,995.20,-13.80,-4.89,0.00,-0.20,0.34,9.39,0.00,0.00,0.00,0.00
2026-06-27 09:39:33.700,995.34,995.20,-13.80,-4.89,0.00,-0.20,0.34,9.39,0.00,0.00,0.00,0.00
2026-06-27 09:39:33.702,995.34,995.20,-13.80,-4.89,0.00,-0.20,0.34,9.39,0.00,0.00,0.00,0.00
2026-06-27 09:39:33.707,995.34,995.20,-13.80,-4.89,0.00,-0.20,0.34,9.39,0.00,0.00,0.00,0.00
2026-06-27 09:39:33.849,995.35,995.20,-14.99,-5.10,0.00,-0.22,0.33,9.39,0.00,-0.00,0.00,0.00
2026-06-27 09:39:33.850,995.35,995.20,-14.99,-5.10,0.00,-0.22,0.33,9.39,0.00,-0.00,0.00,0.00
2026-06-27 09:39:33.852,995.35,995.20,-14.99,-5.10,0.00,-0.22,0.33,9.39,0.00,-0.00,0.00,0.00
2026-06-27 09:39:33.857,995.35,995.20,-14.99,-5.10,0.00,-0.22,0.33,9.39,0.00,-0.00,0.00,0.00
2026-06-27 09:39:33.859,995.35,995.20,-14.99,-5.10,0.00,-0.20,0.35,9.37,-0.00,-0.00,0.00,0.00
2026-06-27 09:39:33.860,995.35,995.20,-14.99,-5.10,0.00,-0.20,0.35,9.37,-0.00,-0.00,0.00,0.00
2026-06-27 09:39:33.861,995.35,995.20,-14.99,-5.10,0.00,-0.20,0.35,9.37,-0.00,-0.00,0.00,0.00
2026-06-27 09:39:33.864,995.35,995.20,-14.99,-5.10,0.00,-0.20,0.35,9.37,-0.00,-0.00,0.00,0.00
2026-06-27 09:39:33.865,995.35,995.20,-14.99,-5.10,0.00,-0.20,0.35,9.37,-0.00,-0.00,0.00,0.00
2026-06-27 09:39:33.868,995.35,995.20,-14.99,-5.10,0.00,-0.20,0.35,9.37,0.00,-0.00,0.00,0.00
2026-06-27 09:39:33.869,995.35,995.20,-14.99,-5.10,0.00,-0.24,0.32,9.36,0.00,-0.00,0.00,0.00
2026-06-27 09:39:33.871,995.35,995.20,-14.99,-5.10,0.00,-0.24,0.32,9.36,0.00,-0.00,0.00,0.00
2026-06-27 09:39:33.873,995.35,995.20,-14.99,-5.10,0.00,-0.24,0.32,9.36,0.00,-0.00,0.00,0.00
2026-06-27 09:39:33.877,995.35,995.20,-14.99,-5.10,0.00,-0.24,0.32,9.36,0.00,-0.01,0.00,0.00
2026-06-27 09:39:33.879,995.35,995.20,-14.99,-5.10,0.00,-0.21,0.33,9.37,0.00,-0.01,0.00,0.00
2026-06-27 09:39:33.880,995.35,995.20,-14.99,-5.10,0.00,-0.21,0.33,9.37,0.00,-0.01,0.00,0.00
2026-06-27 09:39:33.881,995.35,995.20,-14.99,-5.10,0.00,-0.21,0.33,9.37,0.00,-0.01,0.00,0.00
2026-06-27 09:39:33.883,995.35,995.20,-14.99,-5.10,0.00,-0.21,0.33,9.37,0.00,-0.01,0.00,0.00
2026-06-27 09:39:34.030,995.36,995.21,-14.43,-5.00,0.00,-0.22,0.33,9.39,0.00,-0.00,-0.00,0.00
2026-06-27 09:39:34.031,995.36,995.21,-14.43,-5.00,0.00,-0.22,0.33,9.39,0.00,-0.00,-0.00,0.00
2026-06-27 09:39:34.034,995.36,995.21,-14.43,-5.00,0.00,-0.22,0.33,9.39,0.00,-0.00,-0.00,0.00
2026-06-27 09:39:34.038,995.36,995.21,-14.43,-5.00,0.00,-0.22,0.33,9.39,0.00,-0.00,0.00,0.00
2026-06-27 09:39:34.040,995.36,995.21,-14.43,-5.00,0.00,-0.22,0.29,9.36,0.00,-0.00,0.00,0.00
2026-06-27 09:39:34.042,995.36,995.21,-14.43,-5.00,0.00,-0.22,0.29,9.36,0.00,-0.00,0.00,0.00
2026-06-27 09:39:34.045,995.36,995.21,-14.43,-5.00,0.00,-0.22,0.29,9.36,0.00,-0.00,0.00,0.00
2026-06-27 09:39:34.049,995.36,995.21,-14.43,-5.00,0.00,-0.20,0.34,9.37,0.00,-0.00,0.00,0.00
2026-06-27 09:39:34.050,995.36,995.21,-14.43,-5.00,0.00,-0.20,0.34,9.37,0.00,-0.00,0.00,0.00
2026-06-27 09:39:34.052,995.36,995.21,-14.43,-5.00,0.00,-0.20,0.34,9.37,0.00,-0.00,0.00,0.00
2026-06-27 09:39:34.055,995.36,995.21,-14.43,-5.00,0.00,-0.20,0.34,9.37,0.00,-0.00,0.00,0.00
2026-06-27 09:39:34.059,995.36,995.21,-14.43,-5.00,0.00,-0.20,0.34,9.37,0.00,-0.01,0.00,0.00
2026-06-27 09:39:34.202,995.35,995.20,-14.76,-5.06,0.00,0.18,0.24,9.17,0.00,-0.00,0.00,0.00
2026-06-27 09:39:34.208,995.35,995.20,-14.76,-5.06,0.00,0.18,0.24,9.17,0.00,-0.00,0.00,0.00
2026-06-27 09:39:34.210,995.35,995.20,-14.76,-5.06,0.00,0.45,0.34,9.24,-0.00,-0.00,-0.00,0.00
2026-06-27 09:39:34.212,995.35,995.20,-14.76,-5.06,0.00,0.45,0.34,9.24,-0.00,-0.00,-0.00,0.00
2026-06-27 09:39:34.218,995.35,995.20,-14.76,-5.06,0.00,0.45,0.34,9.24,-0.00,-0.00,-0.00,0.00
2026-06-27 09:39:34.220,995.35,995.20,-14.76,-5.06,0.00,0.32,0.38,9.44,0.00,-0.01,0.00,0.00
2026-06-27 09:39:34.222,995.35,995.20,-14.76,-5.06,0.00,0.32,0.38,9.44,0.00,-0.01,0.00,0.00
2026-06-27 09:39:34.228,995.35,995.20,-14.76,-5.06,0.00,0.32,0.38,9.44,0.00,-0.01,0.00,0.00
2026-06-27 09:39:34.231,995.35,995.20,-14.76,-5.06,0.00,-0.60,0.28,9.32,0.00,-0.01,-0.01,0.00
2026-06-27 09:39:34.238,995.35,995.20,-14.76,-5.06,0.00,-0.60,0.28,9.32,0.00,-0.01,-0.01,0.00
2026-06-27 09:39:34.380,995.34,995.20,-13.99,-4.93,0.00,0.04,0.35,9.32,-0.00,0.00,0.01,0.00
2026-06-27 09:39:34.381,995.34,995.20,-13.99,-4.93,0.00,0.04,0.35,9.32,-0.00,0.00,0.01,0.00
2026-06-27 09:39:34.383,995.34,995.20,-13.99,-4.93,0.00,0.04,0.35,9.32,-0.00,0.00,0.01,0.00
2026-06-27 09:39:34.387,995.34,995.20,-13.99,-4.93,0.00,0.04,0.35,9.32,-0.00,0.00,0.01,0.00
2026-06-27 09:39:34.390,995.34,995.20,-13.99,-4.93,0.00,0.04,0.35,9.32,0.00,-0.00,0.01,0.00
2026-06-27 09:39:34.393,995.34,995.20,-13.99,-4.93,0.00,-0.35,0.38,9.21,0.00,-0.00,0.01,0.00
2026-06-27 09:39:34.400,995.34,995.20,-13.99,-4.93,0.00,-0.35,0.38,9.21,0.00,0.00,0.01,0.00
2026-06-27 09:39:34.402,995.34,995.20,-13.99,-4.93,0.00,-0.37,0.29,9.34,0.00,0.00,0.01,0.00
2026-06-27 09:39:34.406,995.34,995.20,-13.99,-4.93,0.00,-0.37,0.29,9.34,0.00,0.00,0.01,0.00
2026-06-27 09:39:34.410,995.34,995.20,-13.99,-4.93,0.00,-0.37,0.29,9.34,0.00,0.01,0.00,0.00
2026-06-27 09:39:34.412,995.34,995.20,-13.99,-4.93,0.00,0.05,0.29,9.48,0.00,0.01,0.00,0.00
2026-06-27 09:39:34.413,995.34,995.20,-13.99,-4.93,0.00,0.05,0.29,9.48,0.00,0.01,0.00,0.00
2026-06-27 09:39:34.415,995.34,995.20,-13.99,-4.93,0.00,0.05,0.29,9.48,0.00,0.01,0.00,0.00
2026-06-27 09:39:34.419,995.34,995.20,-13.99,-4.93,0.00,0.05,0.29,9.48,0.00,0.01,-0.00,0.00
2026-06-27 09:39:34.560,995.33,995.20,-13.07,-4.76,0.00,-0.40,0.34,9.36,0.00,0.00,0.00,0.00
2026-06-27 09:39:34.562,995.33,995.20,-13.07,-4.76,0.00,-0.40,0.34,9.36,0.00,0.00,0.00,0.00
2026-06-27 09:39:34.563,995.33,995.20,-13.07,-4.76,0.00,-0.40,0.34,9.36,0.00,0.00,0.00,0.00
2026-06-27 09:39:34.564,995.33,995.20,-13.07,-4.76,0.00,-0.40,0.34,9.36,0.00,0.00,0.00,0.00
2026-06-27 09:39:34.565,995.33,995.20,-13.07,-4.76,0.00,-0.40,0.34,9.36,0.00,0.00,0.00,0.00
2026-06-27 09:39:34.567,995.33,995.20,-13.07,-4.76,0.00,-0.40,0.34,9.36,0.00,0.00,0.00,0.00
2026-06-27 09:39:34.568,995.33,995.20,-13.07,-4.76,0.00,-0.40,0.34,9.36,0.00,0.00,0.00,0.00
2026-06-27 09:39:34.570,995.33,995.20,-13.07,-4.76,0.00,-0.40,0.34,9.36,0.00,0.01,0.00,0.00
2026-06-27 09:39:34.571,995.33,995.20,-13.07,-4.76,0.00,-0.18,0.32,9.29,0.00,0.01,0.00,0.00
2026-06-27 09:39:34.573,995.33,995.20,-13.07,-4.76,0.00,-0.18,0.32,9.29,0.00,0.01,0.00,0.00
2026-06-27 09:39:34.577,995.33,995.20,-13.07,-4.76,0.00,-0.18,0.32,9.29,0.00,0.01,0.00,0.00
2026-06-27 09:39:34.580,995.33,995.20,-13.07,-4.76,0.00,-0.18,0.32,9.29,0.00,0.00,0.00,0.00
2026-06-27 09:39:34.583,995.33,995.20,-13.07,-4.76,0.00,-0.04,0.29,9.36,0.00,0.00,0.00,0.00
2026-06-27 09:39:34.584,995.33,995.20,-13.07,-4.76,0.00,-0.04,0.29,9.36,0.00,0.00,0.00,0.00
2026-06-27 09:39:34.589,995.33,995.20,-13.07,-4.76,0.00,-0.04,0.29,9.36,0.00,0.00,0.00,0.00
2026-06-27 09:39:34.591,995.33,995.20,-13.07,-4.76,0.00,-0.26,0.33,9.43,0.00,-0.00,0.00,0.00
2026-06-27 09:39:34.592,995.33,995.20,-13.07,-4.76,0.00,-0.26,0.33,9.43,0.00,-0.00,0.00,0.00
2026-06-27 09:39:34.594,995.33,995.20,-13.07,-4.76,0.00,-0.26,0.33,9.43,0.00,-0.00,0.00,0.00
2026-06-27 09:39:34.597,995.33,995.20,-13.07,-4.76,0.00,-0.26,0.33,9.43,0.00,-0.00,0.00,0.00
2026-06-27 09:39:34.740,995.34,995.20,-13.80,-4.89,0.00,-0.07,0.35,9.33,0.00,-0.01,0.00,0.00
2026-06-27 09:39:34.742,995.34,995.20,-13.80,-4.89,0.00,-0.11,0.33,9.34,0.00,-0.00,0.00,0.00
2026-06-27 09:39:34.743,995.34,995.20,-13.80,-4.89,0.00,-0.11,0.33,9.34,0.00,-0.00,0.00,0.00
2026-06-27 09:39:34.744,995.34,995.20,-13.80,-4.89,0.00,-0.11,0.33,9.34,0.00,-0.00,0.00,0.00
2026-06-27 09:39:34.745,995.34,995.20,-13.80,-4.89,0.00,-0.11,0.33,9.34,0.00,-0.00,0.00,0.00
2026-06-27 09:39:34.750,995.34,995.20,-13.80,-4.89,0.00,-0.11,0.33,9.34,0.00,-0.00,0.00,0.00
2026-06-27 09:39:34.752,995.34,995.20,-13.80,-4.89,0.00,-0.16,0.34,9.35,0.00,-0.00,0.00,0.00
2026-06-27 09:39:34.753,995.34,995.20,-13.80,-4.89,0.00,-0.16,0.34,9.35,0.00,-0.00,0.00,0.00
2026-06-27 09:39:34.754,995.34,995.20,-13.80,-4.89,0.00,-0.16,0.34,9.35,0.00,-0.00,0.00,0.00
2026-06-27 09:39:34.760,995.34,995.20,-13.80,-4.89,0.00,-0.16,0.34,9.35,0.00,-0.00,0.00,0.00
2026-06-27 09:39:34.762,995.34,995.20,-13.80,-4.89,0.00,-0.21,0.34,9.38,-0.00,-0.01,0.00,0.00
2026-06-27 09:39:34.763,995.34,995.20,-13.80,-4.89,0.00,-0.21,0.34,9.38,-0.00,-0.01,0.00,0.00
2026-06-27 09:39:34.764,995.34,995.20,-13.80,-4.89,0.00,-0.21,0.34,9.38,-0.00,-0.01,0.00,0.00
2026-06-27 09:39:34.765,995.34,995.20,-13.80,-4.89,0.00,-0.21,0.34,9.38,-0.00,-0.01,0.00,0.00
2026-06-27 09:39:34.766,995.34,995.20,-13.80,-4.89,0.00,-0.21,0.34,9.38,-0.00,-0.01,0.00,0.00
2026-06-27 09:39:34.768,995.34,995.20,-13.80,-4.89,0.00,-0.21,0.34,9.38,-0.00,-0.01,0.00,0.00
2026-06-27 09:39:34.769,995.34,995.20,-13.80,-4.89,0.00,-0.21,0.34,9.38,-0.00,-0.01,0.00,0.00
2026-06-27 09:39:34.771,995.34,995.20,-13.80,-4.89,0.00,-0.22,0.33,9.39,0.00,-0.00,0.00,0.00
2026-06-27 09:39:34.773,995.34,995.20,-13.80,-4.89,0.00,-0.22,0.33,9.39,0.00,-0.00,0.00,0.00
2026-06-27 09:39:34.914,995.33,995.20,-12.28,-4.62,0.00,-0.12,0.33,9.38,0.00,-0.00,-0.00,0.00
2026-06-27 09:39:34.915,995.33,995.20,-12.28,-4.62,0.00,-0.12,0.33,9.38,0.00,-0.00,-0.00,0.00
2026-06-27 09:39:34.917,995.33,995.20,-12.28,-4.62,0.00,-0.12,0.33,9.38,0.00,-0.00,-0.00,0.00
2026-06-27 09:39:34.918,995.33,995.20,-12.28,-4.62,0.00,-0.12,0.33,9.38,0.00,-0.00,-0.00,0.00
2026-06-27 09:39:34.921,995.33,995.20,-12.28,-4.62,0.00,-0.12,0.33,9.38,0.00,-0.00,-0.00,0.00
2026-06-27 09:39:34.922,995.33,995.20,-12.28,-4.62,0.00,-0.17,0.32,9.34,0.00,-0.00,0.00,0.00
2026-06-27 09:39:34.924,995.33,995.20,-12.28,-4.62,0.00,-0.17,0.32,9.34,0.00,-0.00,0.00,0.00
2026-06-27 09:39:34.925,995.33,995.20,-12.28,-4.62,0.00,-0.17,0.32,9.34,0.00,-0.00,0.00,0.00
2026-06-27 09:39:34.931,995.33,995.20,-12.28,-4.62,0.00,-0.17,0.32,9.34,0.00,-0.00,0.00,0.00
2026-06-27 09:39:34.933,995.33,995.20,-12.28,-4.62,0.00,-0.15,0.33,9.35,0.00,0.00,0.00,0.00
2026-06-27 09:39:34.934,995.33,995.20,-12.28,-4.62,0.00,-0.15,0.33,9.35,0.00,0.00,0.00,0.00
2026-06-27 09:39:34.935,995.33,995.20,-12.28,-4.62,0.00,-0.15,0.33,9.35,0.00,0.00,0.00,0.00
2026-06-27 09:39:34.940,995.33,995.20,-12.28,-4.62,0.00,-0.15,0.33,9.35,0.00,0.00,0.00,0.00
2026-06-27 09:39:34.942,995.33,995.20,-12.28,-4.62,0.00,-0.06,0.33,9.35,0.00,0.00,-0.00,0.00
2026-06-27 09:39:34.944,995.33,995.20,-12.28,-4.62,0.00,-0.06,0.33,9.35,0.00,0.00,-0.00,0.00
2026-06-27 09:39:34.945,995.33,995.20,-12.28,-4.62,0.00,-0.06,0.33,9.35,0.00,0.00,-0.00,0.00
2026-06-27 09:39:34.946,995.33,995.20,-12.28,-4.62,0.00,-0.06,0.33,9.35,0.00,0.00,-0.00,0.00
2026-06-27 09:39:34.951,995.33,995.20,-12.28,-4.62,0.00,-0.06,0.33,9.35,0.00,0.00,0.00,0.00
2026-06-27 09:39:35.092,995.35,995.18,-16.76,-5.39,0.00,-0.16,0.31,9.36,0.00,0.00,0.00,0.00
2026-06-27 09:39:35.093,995.35,995.18,-16.76,-5.39,0.00,-0.11,0.30,9.37,0.00,0.00,0.00,0.00
2026-06-27 09:39:35.095,995.35,995.18,-16.76,-5.39,0.00,-0.11,0.30,9.37,0.00,0.00,0.00,0.00
2026-06-27 09:39:35.101,995.35,995.18,-16.76,-5.39,0.00,-0.11,0.30,9.37,0.00,0.00,0.00,0.00
2026-06-27 09:39:35.102,995.35,995.18,-16.76,-5.39,0.00,-0.10,0.33,9.35,0.00,0.00,0.00,0.00
2026-06-27 09:39:35.104,995.35,995.18,-16.76,-5.39,0.00,-0.10,0.33,9.35,0.00,0.00,0.00,0.00
2026-06-27 09:39:35.105,995.35,995.18,-16.76,-5.39,0.00,-0.10,0.33,9.35,0.00,0.00,0.00,0.00
2026-06-27 09:39:35.111,995.35,995.18,-16.76,-5.39,0.00,-0.10,0.33,9.35,0.00,0.00,0.00,0.00
2026-06-27 09:39:35.113,995.35,995.18,-16.76,-5.39,0.00,-0.12,0.32,9.36,0.00,0.00,-0.00,0.00
2026-06-27 09:39:35.114,995.35,995.18,-16.76,-5.39,0.00,-0.12,0.32,9.36,0.00,0.00,-0.00,0.00
2026-06-27 09:39:35.115,995.35,995.18,-16.76,-5.39,0.00,-0.12,0.32,9.36,0.00,0.00,-0.00,0.00
2026-06-27 09:39:35.116,995.35,995.18,-16.76,-5.39,0.00,-0.12,0.32,9.36,0.00,0.00,-0.00,0.00
2026-06-27 09:39:35.117,995.35,995.18,-16.76,-5.39,0.00,-0.12,0.32,9.36,0.00,0.00,-0.00,0.00
2026-06-27 09:39:35.119,995.35,995.18,-16.76,-5.39,0.00,-0.12,0.32,9.36,0.00,0.00,-0.00,0.00
2026-06-27 09:39:35.121,995.35,995.18,-16.76,-5.39,0.00,-0.12,0.32,9.36,0.00,0.00,-0.00,0.00
2026-06-27 09:39:35.123,995.35,995.18,-16.76,-5.39,0.00,-0.17,0.33,9.39,0.00,0.00,-0.00,0.00
2026-06-27 09:39:35.124,995.35,995.18,-16.76,-5.39,0.00,-0.17,0.33,9.39,0.00,0.00,-0.00,0.00
2026-06-27 09:39:35.126,995.35,995.18,-16.76,-5.39,0.00,-0.17,0.33,9.39,0.00,0.00,-0.00,0.00
2026-06-27 09:39:35.263,995.34,995.20,-13.58,-4.85,0.00,-0.11,0.33,9.39,0.00,0.01,0.00,0.00
2026-06-27 09:39:35.264,995.34,995.20,-13.58,-4.85,0.00,-0.11,0.33,9.39,0.00,0.01,0.00,0.00
2026-06-27 09:39:35.265,995.34,995.20,-13.58,-4.85,0.00,-0.11,0.33,9.39,0.00,0.01,0.00,0.00
2026-06-27 09:39:35.267,995.34,995.20,-13.58,-4.85,0.00,-0.11,0.33,9.39,0.00,0.01,0.00,0.00
2026-06-27 09:39:35.269,995.34,995.20,-13.58,-4.85,0.00,-0.11,0.33,9.39,0.00,0.01,0.00,0.00
2026-06-27 09:39:35.271,995.34,995.20,-13.58,-4.85,0.00,-0.11,0.33,9.39,0.00,0.01,0.00,0.00
2026-06-27 09:39:35.273,995.34,995.20,-13.58,-4.85,0.00,-0.13,0.33,9.37,0.00,0.01,0.00,0.00
2026-06-27 09:39:35.274,995.34,995.20,-13.58,-4.85,0.00,-0.13,0.33,9.37,0.00,0.01,0.00,0.00
2026-06-27 09:39:35.276,995.34,995.20,-13.58,-4.85,0.00,-0.13,0.33,9.37,0.00,0.01,0.00,0.00
2026-06-27 09:39:35.278,995.34,995.20,-13.58,-4.85,0.00,-0.13,0.33,9.37,0.00,0.01,0.00,0.00
2026-06-27 09:39:35.282,995.34,995.20,-13.58,-4.85,0.00,-0.13,0.33,9.37,0.00,0.01,-0.00,0.00
2026-06-27 09:39:35.283,995.34,995.20,-13.58,-4.85,0.00,-0.16,0.33,9.38,0.00,0.01,-0.00,0.00
2026-06-27 09:39:35.284,995.34,995.20,-13.58,-4.85,0.00,-0.16,0.33,9.38,0.00,0.01,-0.00,0.00
2026-06-27 09:39:35.286,995.34,995.20,-13.58,-4.85,0.00,-0.16,0.33,9.38,0.00,0.01,-0.00,0.00
2026-06-27 09:39:35.287,995.34,995.20,-13.58,-4.85,0.00,-0.16,0.33,9.38,0.00,0.01,-0.00,0.00
2026-06-27 09:39:35.292,995.34,995.20,-13.58,-4.85,0.00,-0.16,0.33,9.38,0.00,0.01,0.00,0.00
2026-06-27 09:39:35.293,995.34,995.20,-13.58,-4.85,0.00,-0.14,0.30,9.35,0.00,0.01,0.00,0.00
2026-06-27 09:39:35.294,995.34,995.20,-13.58,-4.85,0.00,-0.14,0.30,9.35,0.00,0.01,0.00,0.00
2026-06-27 09:39:35.296,995.34,995.20,-13.58,-4.85,0.00,-0.14,0.30,9.35,0.00,0.01,0.00,0.00
2026-06-27 09:39:35.297,995.34,995.20,-13.58,-4.85,0.00,-0.14,0.30,9.35,0.00,0.01,0.00,0.00
2026-06-27 09:39:35.302,995.34,995.20,-13.58,-4.85,0.00,-0.14,0.30,9.35,0.00,0.01,0.00,0.00
2026-06-27 09:39:35.443,995.34,995.22,-12.93,-4.74,0.00,-0.13,0.32,9.36,0.00,0.00,-0.00,0.00
2026-06-27 09:39:35.444,995.34,995.22,-12.93,-4.74,0.00,-0.13,0.32,9.36,0.00,0.00,-0.00,0.00
2026-06-27 09:39:35.446,995.34,995.22,-12.93,-4.74,0.00,-0.13,0.32,9.36,0.00,0.00,-0.00,0.00
2026-06-27 09:39:35.447,995.34,995.22,-12.93,-4.74,0.00,-0.13,0.32,9.36,0.00,0.00,-0.00,0.00
2026-06-27 09:39:35.448,995.34,995.22,-12.93,-4.74,0.00,-0.13,0.32,9.36,0.00,0.00,-0.00,0.00
2026-06-27 09:39:35.452,995.34,995.22,-12.93,-4.74,0.00,-0.13,0.32,9.36,0.00,-0.00,-0.00,0.00
2026-06-27 09:39:35.454,995.34,995.22,-12.93,-4.74,0.00,-0.14,0.31,9.37,0.00,-0.00,-0.00,0.00
2026-06-27 09:39:35.456,995.34,995.22,-12.93,-4.74,0.00,-0.14,0.31,9.37,0.00,-0.00,-0.00,0.00
2026-06-27 09:39:35.458,995.34,995.22,-12.93,-4.74,0.00,-0.14,0.31,9.37,0.00,-0.00,-0.00,0.00
2026-06-27 09:39:35.463,995.34,995.22,-12.93,-4.74,0.00,-0.14,0.31,9.37,0.00,-0.00,0.00,0.00
2026-06-27 09:39:35.464,995.34,995.22,-12.93,-4.74,0.00,-0.14,0.33,9.38,0.00,-0.00,0.00,0.00
2026-06-27 09:39:35.467,995.34,995.22,-12.93,-4.74,0.00,-0.14,0.33,9.38,0.00,-0.00,0.00,0.00
2026-06-27 09:39:35.468,995.34,995.22,-12.93,-4.74,0.00,-0.14,0.33,9.38,0.00,-0.00,0.00,0.00
2026-06-27 09:39:35.470,995.34,995.22,-12.93,-4.74,0.00,-0.14,0.33,9.38,0.00,-0.00,0.00,0.00
2026-06-27 09:39:35.472,995.34,995.22,-12.93,-4.74,0.00,-0.14,0.33,9.38,0.00,-0.00,0.00,0.00
2026-06-27 09:39:35.474,995.34,995.22,-12.93,-4.74,0.00,-0.15,0.33,9.37,0.00,0.00,-0.00,0.00
2026-06-27 09:39:35.475,995.34,995.22,-12.93,-4.74,0.00,-0.15,0.33,9.37,0.00,0.00,-0.00,0.00
2026-06-27 09:39:35.477,995.34,995.22,-12.93,-4.74,0.00,-0.15,0.33,9.37,0.00,0.00,-0.00,0.00
2026-06-27 09:39:35.615,995.33,995.19,-13.68,-4.87,0.00,-0.15,0.31,9.39,0.00,0.01,0.00,0.00
2026-06-27 09:39:35.617,995.33,995.19,-13.68,-4.87,0.00,-0.15,0.31,9.39,0.00,0.01,0.00,0.00
2026-06-27 09:39:35.619,995.33,995.19,-13.68,-4.87,0.00,-0.15,0.31,9.39,0.00,0.01,0.00,0.00
2026-06-27 09:39:35.621,995.33,995.19,-13.68,-4.87,0.00,-0.15,0.31,9.39,0.00,0.01,0.00,0.00
2026-06-27 09:39:35.624,995.33,995.19,-13.68,-4.87,0.00,-0.15,0.31,9.39,0.00,0.00,0.00,0.00
2026-06-27 09:39:35.626,995.33,995.19,-13.68,-4.87,0.00,-0.15,0.32,9.37,0.00,0.00,0.00,0.00
2026-06-27 09:39:35.627,995.33,995.19,-13.68,-4.87,0.00,-0.15,0.32,9.37,0.00,0.00,0.00,0.00
2026-06-27 09:39:35.633,995.33,995.19,-13.68,-4.87,0.00,-0.15,0.32,9.37,0.00,0.00,0.00,0.00
2026-06-27 09:39:35.634,995.33,995.19,-13.68,-4.87,0.00,-0.17,0.32,9.37,0.00,0.00,0.00,0.00
2026-06-27 09:39:35.636,995.33,995.19,-13.68,-4.87,0.00,-0.17,0.32,9.37,0.00,0.00,0.00,0.00
2026-06-27 09:39:35.639,995.33,995.19,-13.68,-4.87,0.00,-0.17,0.32,9.37,0.00,0.00,0.00,0.00
2026-06-27 09:39:35.643,995.33,995.19,-13.68,-4.87,0.00,-0.17,0.32,9.37,0.00,0.01,-0.00,0.00
2026-06-27 09:39:35.645,995.33,995.19,-13.68,-4.87,0.00,-0.22,0.31,9.37,0.00,0.01,-0.00,0.00
2026-06-27 09:39:35.647,995.33,995.19,-13.68,-4.87,0.00,-0.22,0.31,9.37,0.00,0.01,-0.00,0.00
2026-06-27 09:39:35.648,995.33,995.19,-13.68,-4.87,0.00,-0.22,0.31,9.37,0.00,0.01,-0.00,0.00
2026-06-27 09:39:35.654,995.33,995.19,-13.68,-4.87,0.00,-0.22,0.31,9.37,0.00,0.00,0.00,0.00
2026-06-27 09:39:35.796,995.34,995.20,-14.74,-5.06,0.00,-0.17,0.31,9.35,-0.00,-0.01,-0.00,0.00
2026-06-27 09:39:35.798,995.34,995.20,-14.74,-5.06,0.00,-0.17,0.31,9.35,-0.00,-0.01,-0.00,0.00
2026-06-27 09:39:35.803,995.34,995.20,-14.74,-5.06,0.00,-0.17,0.31,9.35,-0.00,-0.01,-0.00,0.00
2026-06-27 09:39:35.805,995.34,995.20,-14.74,-5.06,0.00,-0.22,0.33,9.37,-0.00,-0.01,-0.00,0.00
2026-06-27 09:39:35.807,995.34,995.20,-14.74,-5.06,0.00,-0.22,0.33,9.37,-0.00,-0.01,-0.00,0.00
2026-06-27 09:39:35.811,995.34,995.20,-14.74,-5.06,0.00,-0.22,0.33,9.37,-0.00,-0.01,-0.00,0.00
2026-06-27 09:39:35.814,995.34,995.20,-14.74,-5.06,0.00,-0.22,0.33,9.37,-0.00,-0.01,0.00,0.00
2026-06-27 09:39:35.815,995.34,995.20,-14.74,-5.06,0.00,-0.22,0.33,9.38,-0.00,-0.01,0.00,0.00
2026-06-27 09:39:35.816,995.34,995.20,-14.74,-5.06,0.00,-0.22,0.33,9.38,-0.00,-0.01,0.00,0.00
2026-06-27 09:39:35.818,995.34,995.20,-14.74,-5.06,0.00,-0.22,0.33,9.38,-0.00,-0.01,0.00,0.00
2026-06-27 09:39:35.819,995.34,995.20,-14.74,-5.06,0.00,-0.22,0.33,9.38,-0.00,-0.01,0.00,0.00
2026-06-27 09:39:35.820,995.34,995.20,-14.74,-5.06,0.00,-0.22,0.33,9.38,-0.00,-0.01,0.00,0.00
2026-06-27 09:39:35.822,995.34,995.20,-14.74,-5.06,0.00,-0.22,0.33,9.38,-0.00,-0.01,0.00,0.00
2026-06-27 09:39:35.824,995.34,995.20,-14.74,-5.06,0.00,-0.19,0.33,9.41,-0.00,-0.01,0.00,0.00
2026-06-27 09:39:35.826,995.34,995.20,-14.74,-5.06,0.00,-0.19,0.33,9.41,-0.00,-0.01,0.00,0.00
2026-06-27 09:39:35.827,995.34,995.20,-14.74,-5.06,0.00,-0.19,0.33,9.41,-0.00,-0.01,0.00,0.00
2026-06-27 09:39:35.832,995.34,995.20,-14.74,-5.06,0.00,-0.19,0.33,9.41,-0.00,-0.01,0.00,0.00
2026-06-27 09:39:35.974,995.34,995.20,-13.21,-4.79,0.00,-0.20,0.32,9.39,-0.00,-0.03,0.01,0.00
2026-06-27 09:39:35.975,995.34,995.20,-13.21,-4.79,0.00,-0.14,0.34,9.41,-0.00,-0.03,0.00,0.00
2026-06-27 09:39:35.977,995.34,995.20,-13.21,-4.79,0.00,-0.14,0.34,9.41,-0.00,-0.03,0.00,0.00
2026-06-27 09:39:35.978,995.34,995.20,-13.21,-4.79,0.00,-0.14,0.34,9.41,-0.00,-0.03,0.00,0.00
2026-06-27 09:39:35.979,995.34,995.20,-13.21,-4.79,0.00,-0.14,0.34,9.41,-0.00,-0.03,0.00,0.00
2026-06-27 09:39:35.980,995.34,995.20,-13.21,-4.79,0.00,-0.14,0.34,9.41,-0.00,-0.03,0.00,0.00
2026-06-27 09:39:35.982,995.34,995.20,-13.21,-4.79,0.00,-0.14,0.34,9.41,-0.00,-0.03,0.00,0.00
2026-06-27 09:39:35.983,995.34,995.20,-13.21,-4.79,0.00,-0.14,0.34,9.41,-0.00,-0.03,0.00,0.00
2026-06-27 09:39:35.984,995.34,995.20,-13.21,-4.79,0.00,-0.14,0.34,9.41,-0.00,-0.04,0.00,0.00
2026-06-27 09:39:35.985,995.34,995.20,-13.21,-4.79,0.00,-0.14,0.31,9.38,-0.00,-0.04,0.00,0.00
2026-06-27 09:39:35.987,995.34,995.20,-13.21,-4.79,0.00,-0.14,0.31,9.38,-0.00,-0.04,0.00,0.00
2026-06-27 09:39:35.989,995.34,995.20,-13.21,-4.79,0.00,-0.14,0.31,9.38,-0.00,-0.04,0.00,0.00
2026-06-27 09:39:35.994,995.34,995.20,-13.21,-4.79,0.00,-0.14,0.31,9.38,-0.00,-0.04,0.00,0.00
2026-06-27 09:39:35.995,995.34,995.20,-13.21,-4.79,0.00,-0.15,0.31,9.33,-0.01,-0.04,0.00,0.00
2026-06-27 09:39:35.996,995.34,995.20,-13.21,-4.79,0.00,-0.15,0.31,9.33,-0.01,-0.04,0.00,0.00
2026-06-27 09:39:35.997,995.34,995.20,-13.21,-4.79,0.00,-0.15,0.31,9.33,-0.01,-0.04,0.00,0.00
2026-06-27 09:39:35.000,995.34,995.20,-13.21,-4.79,0.00,-0.15,0.31,9.33,-0.01,-0.04,0.00,0.00
2026-06-27 09:39:36.004,995.34,995.20,-13.21,-4.79,0.00,-0.15,0.31,9.33,-0.00,-0.04,0.00,0.00
2026-06-27 09:39:36.006,995.34,995.20,-13.21,-4.79,0.00,-0.18,0.32,9.37,-0.00,-0.04,0.00,0.00
2026-06-27 09:39:36.007,995.34,995.20,-13.21,-4.79,0.00,-0.18,0.32,9.37,-0.00,-0.04,0.00,0.00
2026-06-27 09:39:36.010,995.34,995.20,-13.21,-4.79,0.00,-0.18,0.32,9.37,-0.00,-0.04,0.00,0.00
2026-06-27 09:39:36.155,995.33,995.22,-11.47,-4.46,0.00,0.34,0.27,9.05,-0.00,-0.02,0.00,0.00
2026-06-27 09:39:36.157,995.33,995.22,-11.47,-4.46,0.00,0.41,0.43,9.17,-0.00,-0.02,0.00,0.00
2026-06-27 09:39:36.162,995.33,995.22,-11.47,-4.46,0.00,0.41,0.43,9.17,-0.00,-0.02,0.00,0.00
2026-06-27 09:39:36.165,995.33,995.22,-11.47,-4.46,0.00,0.41,0.43,9.17,-0.00,-0.01,0.01,0.00
2026-06-27 09:39:36.166,995.33,995.22,-11.47,-4.46,0.00,0.27,0.42,9.58,-0.00,-0.01,0.01,0.00
2026-06-27 09:39:36.168,995.33,995.22,-11.47,-4.46,0.00,0.27,0.42,9.58,-0.00,-0.01,0.01,0.00
2026-06-27 09:39:36.169,995.33,995.22,-11.47,-4.46,0.00,0.27,0.42,9.58,-0.00,-0.01,0.01,0.00
2026-06-27 09:39:36.170,995.33,995.22,-11.47,-4.46,0.00,0.27,0.42,9.58,-0.00,-0.01,0.01,0.00
2026-06-27 09:39:36.172,995.33,995.22,-11.47,-4.46,0.00,0.27,0.42,9.58,-0.00,-0.01,0.01,0.00
2026-06-27 09:39:36.175,995.33,995.22,-11.47,-4.46,0.00,0.27,0.42,9.58,-0.00,-0.01,0.00,0.00
2026-06-27 09:39:36.176,995.33,995.22,-11.47,-4.46,0.00,0.23,0.27,9.40,-0.00,-0.01,0.00,0.00
2026-06-27 09:39:36.177,995.33,995.22,-11.47,-4.46,0.00,0.23,0.27,9.40,-0.00,-0.01,0.00,0.00
2026-06-27 09:39:36.179,995.33,995.22,-11.47,-4.46,0.00,0.23,0.27,9.40,-0.00,-0.01,0.00,0.00
2026-06-27 09:39:36.182,995.33,995.22,-11.47,-4.46,0.00,0.23,0.27,9.40,-0.00,-0.01,0.00,0.00
2026-06-27 09:39:36.185,995.33,995.22,-11.47,-4.46,0.00,0.23,0.27,9.40,0.00,-0.00,0.00,0.00
2026-06-27 09:39:36.186,995.33,995.22,-11.47,-4.46,0.00,0.16,0.23,9.43,0.00,-0.00,0.00,0.00
2026-06-27 09:39:36.326,995.35,995.20,-14.90,-5.09,0.00,-0.15,0.29,9.36,0.00,0.04,-0.00,0.00
2026-06-27 09:39:36.330,995.35,995.20,-14.90,-5.09,0.00,-0.15,0.29,9.36,0.00,0.04,-0.00,0.00
2026-06-27 09:39:36.331,995.35,995.20,-14.90,-5.09,0.00,-0.15,0.29,9.36,0.00,0.04,-0.00,0.00
2026-06-27 09:39:36.333,995.35,995.20,-14.90,-5.09,0.00,-0.15,0.29,9.36,0.00,0.04,-0.00,0.00
2026-06-27 09:39:36.335,995.35,995.20,-14.90,-5.09,0.00,-0.15,0.29,9.36,0.00,0.04,-0.00,0.00
2026-06-27 09:39:36.336,995.35,995.20,-14.90,-5.09,0.00,-0.26,0.33,9.32,0.00,0.04,0.00,0.00
2026-06-27 09:39:36.338,995.35,995.20,-14.90,-5.09,0.00,-0.26,0.33,9.32,0.00,0.04,0.00,0.00
2026-06-27 09:39:36.339,995.35,995.20,-14.90,-5.09,0.00,-0.26,0.33,9.32,0.00,0.04,0.00,0.00
2026-06-27 09:39:36.341,995.35,995.20,-14.90,-5.09,0.00,-0.26,0.33,9.32,0.00,0.04,0.00,0.00
2026-06-27 09:39:36.345,995.35,995.20,-14.90,-5.09,0.00,-0.26,0.33,9.32,0.00,0.04,0.00,0.00
2026-06-27 09:39:36.346,995.35,995.20,-14.90,-5.09,0.00,-0.19,0.29,9.38,0.01,0.03,0.00,0.00
2026-06-27 09:39:36.347,995.35,995.20,-14.90,-5.09,0.00,-0.19,0.29,9.38,0.01,0.03,0.00,0.00
2026-06-27 09:39:36.348,995.35,995.20,-14.90,-5.09,0.00,-0.19,0.29,9.38,0.01,0.03,0.00,0.00
2026-06-27 09:39:36.350,995.35,995.20,-14.90,-5.09,0.00,-0.19,0.29,9.38,0.01,0.03,0.00,0.00
2026-06-27 09:39:36.352,995.35,995.20,-14.90,-5.09,0.00,-0.19,0.29,9.38,0.01,0.03,0.00,0.00
2026-06-27 09:39:36.356,995.35,995.20,-14.90,-5.09,0.00,-0.19,0.29,9.38,0.00,0.04,0.00,0.00
2026-06-27 09:39:36.357,995.35,995.20,-14.90,-5.09,0.00,-0.12,0.22,9.39,0.00,0.04,0.00,0.00
2026-06-27 09:39:36.359,995.35,995.20,-14.90,-5.09,0.00,-0.12,0.22,9.39,0.00,0.04,0.00,0.00
2026-06-27 09:39:36.360,995.35,995.20,-14.90,-5.09,0.00,-0.12,0.22,9.39,0.00,0.04,0.00,0.00
2026-06-27 09:39:36.365,995.35,995.20,-14.90,-5.09,0.00,-0.12,0.22,9.39,0.00,0.04,0.00,0.00
2026-06-27 09:39:36.507,995.34,995.22,-12.56,-4.67,0.00,-0.14,0.33,9.35,0.00,0.02,0.00,0.00
2026-06-27 09:39:36.509,995.34,995.22,-12.56,-4.67,0.00,-0.14,0.33,9.35,0.00,0.02,0.00,0.00
2026-06-27 09:39:36.510,995.34,995.22,-12.56,-4.67,0.00,-0.14,0.33,9.35,0.00,0.02,0.00,0.00
2026-06-27 09:39:36.513,995.34,995.22,-12.56,-4.67,0.00,-0.14,0.33,9.35,0.00,0.02,0.00,0.00
2026-06-27 09:39:36.516,995.34,995.22,-12.56,-4.67,0.00,-0.14,0.33,9.35,0.00,0.02,0.00,0.00
2026-06-27 09:39:36.518,995.34,995.22,-12.56,-4.67,0.00,-0.11,0.35,9.33,0.00,0.02,0.00,0.00
2026-06-27 09:39:36.520,995.34,995.22,-12.56,-4.67,0.00,-0.11,0.35,9.33,0.00,0.02,0.00,0.00
2026-06-27 09:39:36.522,995.34,995.22,-12.56,-4.67,0.00,-0.11,0.35,9.33,0.00,0.02,0.00,0.00
2026-06-27 09:39:36.523,995.34,995.22,-12.56,-4.67,0.00,-0.11,0.35,9.33,0.00,0.02,0.00,0.00
2026-06-27 09:39:36.527,995.34,995.22,-12.56,-4.67,0.00,-0.11,0.35,9.33,0.00,0.02,0.00,0.00
2026-06-27 09:39:36.528,995.34,995.22,-12.56,-4.67,0.00,-0.20,0.38,9.38,0.00,0.02,0.00,0.00
2026-06-27 09:39:36.529,995.34,995.22,-12.56,-4.67,0.00,-0.20,0.38,9.38,0.00,0.02,0.00,0.00
2026-06-27 09:39:36.532,995.34,995.22,-12.56,-4.67,0.00,-0.20,0.38,9.38,0.00,0.02,0.00,0.00
2026-06-27 09:39:36.536,995.34,995.22,-12.56,-4.67,0.00,-0.20,0.38,9.38,0.00,0.02,0.00,0.00
2026-06-27 09:39:36.539,995.34,995.22,-12.56,-4.67,0.00,-0.19,0.34,9.39,0.00,0.02,0.00,0.00
2026-06-27 09:39:36.540,995.34,995.22,-12.56,-4.67,0.00,-0.19,0.34,9.39,0.00,0.02,0.00,0.00
2026-06-27 09:39:36.545,995.34,995.22,-12.56,-4.67,0.00,-0.19,0.34,9.39,0.00,0.02,0.00,0.00
2026-06-27 09:39:36.687,995.35,995.22,-13.14,-4.77,0.00,-0.17,0.32,9.39,0.00,0.01,0.00,0.00
2026-06-27 09:39:36.689,995.35,995.22,-13.14,-4.77,0.00,-0.17,0.32,9.39,0.00,0.01,0.00,0.00
2026-06-27 09:39:36.694,995.35,995.22,-13.14,-4.77,0.00,-0.17,0.32,9.39,0.00,0.01,0.00,0.00
2026-06-27 09:39:36.696,995.35,995.22,-13.14,-4.77,0.00,-0.17,0.32,9.39,-0.00,0.00,0.00,0.00
2026-06-27 09:39:36.698,995.35,995.22,-13.14,-4.77,0.00,-0.18,0.33,9.35,-0.00,0.00,0.00,0.00
2026-06-27 09:39:36.699,995.35,995.22,-13.14,-4.77,0.00,-0.18,0.33,9.35,-0.00,0.00,0.00,0.00
2026-06-27 09:39:36.700,995.35,995.22,-13.14,-4.77,0.00,-0.18,0.33,9.35,-0.00,0.00,0.00,0.00
2026-06-27 09:39:36.703,995.35,995.22,-13.14,-4.77,0.00,-0.18,0.33,9.35,-0.00,0.00,0.00,0.00
2026-06-27 09:39:36.707,995.35,995.22,-13.14,-4.77,0.00,-0.18,0.33,9.35,0.00,0.00,0.00,0.00
2026-06-27 09:39:36.708,995.35,995.22,-13.14,-4.77,0.00,-0.20,0.34,9.35,0.00,0.00,0.00,0.00
2026-06-27 09:39:36.709,995.35,995.22,-13.14,-4.77,0.00,-0.20,0.34,9.35,0.00,0.00,0.00,0.00
2026-06-27 09:39:36.711,995.35,995.22,-13.14,-4.77,0.00,-0.20,0.34,9.35,0.00,0.00,0.00,0.00
2026-06-27 09:39:36.716,995.35,995.22,-13.14,-4.77,0.00,-0.20,0.34,9.35,0.00,0.00,0.00,0.00
2026-06-27 09:39:36.717,995.35,995.22,-13.14,-4.77,0.00,-0.14,0.32,9.37,0.00,0.00,0.00,0.00
2026-06-27 09:39:36.718,995.35,995.22,-13.14,-4.77,0.00,-0.14,0.32,9.37,0.00,0.00,0.00,0.00
2026-06-27 09:39:36.720,995.35,995.22,-13.14,-4.77,0.00,-0.14,0.32,9.37,0.00,0.00,0.00,0.00
2026-06-27 09:39:36.860,995.36,995.21,-15.26,-5.15,0.00,-0.19,0.34,9.37,-0.00,-0.00,-0.00,0.00
2026-06-27 09:39:36.863,995.36,995.21,-15.26,-5.15,0.00,-0.19,0.34,9.37,-0.00,-0.00,-0.00,0.00
2026-06-27 09:39:36.867,995.36,995.21,-15.26,-5.15,0.00,-0.19,0.34,9.37,0.00,-0.01,0.00,0.00
2026-06-27 09:39:36.868,995.36,995.21,-15.26,-5.15,0.00,-0.14,0.34,9.36,0.00,-0.01,0.00,0.00
2026-06-27 09:39:36.869,995.36,995.21,-15.26,-5.15,0.00,-0.14,0.34,9.36,0.00,-0.01,0.00,0.00
2026-06-27 09:39:36.871,995.36,995.21,-15.26,-5.15,0.00,-0.14,0.34,9.36,0.00,-0.01,0.00,0.00
2026-06-27 09:39:36.873,995.36,995.21,-15.26,-5.15,0.00,-0.14,0.34,9.36,0.00,-0.01,0.00,0.00
2026-06-27 09:39:36.877,995.36,995.21,-15.26,-5.15,0.00,-0.14,0.34,9.36,0.00,-0.01,0.00,0.00
2026-06-27 09:39:36.878,995.36,995.21,-15.26,-5.15,0.00,-0.14,0.35,9.39,0.00,-0.00,0.00,0.00
2026-06-27 09:39:36.879,995.36,995.21,-15.26,-5.15,0.00,-0.14,0.35,9.39,0.00,-0.00,0.00,0.00
2026-06-27 09:39:36.880,995.36,995.21,-15.26,-5.15,0.00,-0.14,0.35,9.39,0.00,-0.00,0.00,0.00
2026-06-27 09:39:36.882,995.36,995.21,-15.26,-5.15,0.00,-0.14,0.35,9.39,0.00,-0.00,0.00,0.00
2026-06-27 09:39:36.887,995.36,995.21,-15.26,-5.15,0.00,-0.14,0.35,9.39,0.00,-0.00,0.00,0.00
2026-06-27 09:39:36.888,995.36,995.21,-15.26,-5.15,0.00,-0.15,0.34,9.38,-0.00,-0.01,0.00,0.00
2026-06-27 09:39:36.890,995.36,995.21,-15.26,-5.15,0.00,-0.15,0.34,9.38,-0.00,-0.01,0.00,0.00
2026-06-27 09:39:36.896,995.36,995.21,-15.26,-5.15,0.00,-0.15,0.34,9.38,-0.00,-0.01,0.00,0.00
2026-06-27 09:39:37.038,995.34,995.20,-13.60,-4.86,0.00,-0.11,0.34,9.37,0.00,0.01,0.00,0.00
2026-06-27 09:39:37.039,995.34,995.20,-13.60,-4.86,0.00,-0.11,0.34,9.37,0.00,0.01,0.00,0.00
2026-06-27 09:39:37.041,995.34,995.20,-13.60,-4.86,0.00,-0.11,0.34,9.37,0.00,0.01,0.00,0.00
2026-06-27 09:39:37.043,995.34,995.20,-13.60,-4.86,0.00,-0.11,0.34,9.37,0.00,0.01,0.00,0.00
2026-06-27 09:39:37.047,995.34,995.20,-13.60,-4.86,0.00,-0.11,0.34,9.37,0.00,0.01,0.00,0.00
2026-06-27 09:39:37.050,995.34,995.20,-13.60,-4.86,0.00,-0.11,0.34,9.37,0.00,0.01,0.00,0.00
2026-06-27 09:39:37.052,995.34,995.20,-13.60,-4.86,0.00,-0.11,0.34,9.37,0.00,0.01,0.00,0.00
2026-06-27 09:39:37.055,995.34,995.20,-13.60,-4.86,0.00,-0.11,0.34,9.37,0.00,0.01,0.00,0.00
2026-06-27 09:39:37.058,995.34,995.20,-13.60,-4.86,0.00,-0.10,0.33,9.38,0.00,0.01,0.00,0.00
2026-06-27 09:39:37.059,995.34,995.20,-13.60,-4.86,0.00,-0.10,0.33,9.38,0.00,0.01,0.00,0.00
2026-06-27 09:39:37.060,995.34,995.20,-13.60,-4.86,0.00,-0.10,0.33,9.38,0.00,0.01,0.00,0.00
2026-06-27 09:39:37.062,995.34,995.20,-13.60,-4.86,0.00,-0.10,0.33,9.38,0.00,0.01,0.00,0.00
2026-06-27 09:39:37.064,995.34,995.20,-13.60,-4.86,0.00,-0.10,0.33,9.38,0.00,0.01,0.00,0.00
2026-06-27 09:39:37.068,995.34,995.20,-13.60,-4.86,0.00,-0.10,0.33,9.38,0.00,0.01,0.00,0.00
2026-06-27 09:39:37.070,995.34,995.20,-13.60,-4.86,0.00,-0.11,0.34,9.37,0.00,0.01,0.00,0.00
2026-06-27 09:39:37.208,995.34,995.21,-13.26,-4.80,0.00,-0.21,0.31,9.33,0.00,0.02,-0.00,0.00
2026-06-27 09:39:37.209,995.34,995.21,-13.26,-4.80,0.00,-0.22,0.31,9.37,0.00,0.02,-0.00,0.00
2026-06-27 09:39:37.211,995.34,995.21,-13.26,-4.80,0.00,-0.22,0.31,9.37,0.00,0.02,-0.00,0.00
2026-06-27 09:39:37.212,995.34,995.21,-13.26,-4.80,0.00,-0.22,0.31,9.37,0.00,0.02,-0.00,0.00
2026-06-27 09:39:37.215,995.34,995.21,-13.26,-4.80,0.00,-0.22,0.31,9.37,0.00,0.02,-0.00,0.00
2026-06-27 09:39:37.218,995.34,995.21,-13.26,-4.80,0.00,-0.22,0.31,9.37,0.00,0.01,-0.00,0.00
2026-06-27 09:39:37.219,995.34,995.21,-13.26,-4.80,0.00,-0.20,0.32,9.35,0.00,0.01,-0.00,0.00
2026-06-27 09:39:37.221,995.34,995.21,-13.26,-4.80,0.00,-0.20,0.32,9.35,0.00,0.01,-0.00,0.00
2026-06-27 09:39:37.222,995.34,995.21,-13.26,-4.80,0.00,-0.20,0.32,9.35,0.00,0.01,-0.00,0.00
2026-06-27 09:39:37.224,995.34,995.21,-13.26,-4.80,0.00,-0.20,0.32,9.35,0.00,0.01,-0.00,0.00
2026-06-27 09:39:37.225,995.34,995.21,-13.26,-4.80,0.00,-0.20,0.32,9.35,0.00,0.01,-0.00,0.00
2026-06-27 09:39:37.228,995.34,995.21,-13.26,-4.80,0.00,-0.20,0.32,9.35,0.00,0.02,-0.00,0.00
2026-06-27 09:39:37.229,995.34,995.21,-13.26,-4.80,0.00,-0.20,0.33,9.39,0.00,0.02,-0.00,0.00
2026-06-27 09:39:37.230,995.34,995.21,-13.26,-4.80,0.00,-0.20,0.33,9.39,0.00,0.02,-0.00,0.00
2026-06-27 09:39:37.232,995.34,995.21,-13.26,-4.80,0.00,-0.20,0.33,9.39,0.00,0.02,-0.00,0.00
2026-06-27 09:39:37.238,995.34,995.21,-13.26,-4.80,0.00,-0.20,0.33,9.39,0.00,0.02,-0.00,0.00
2026-06-27 09:39:37.240,995.34,995.21,-13.26,-4.80,0.00,-0.19,0.29,9.36,0.00,0.02,-0.00,0.00
2026-06-27 09:39:37.241,995.34,995.21,-13.26,-4.80,0.00,-0.19,0.29,9.36,0.00,0.02,-0.00,0.00
2026-06-27 09:39:37.242,995.34,995.21,-13.26,-4.80,0.00,-0.19,0.29,9.36,0.00,0.02,-0.00,0.00
2026-06-27 09:39:37.247,995.34,995.21,-13.26,-4.80,0.00,-0.19,0.29,9.36,0.00,0.02,-0.00,0.00
2026-06-27 09:39:37.389,995.34,995.20,-14.04,-4.94,0.00,-0.23,0.31,9.39,0.00,0.00,-0.00,0.00
2026-06-27 09:39:37.391,995.34,995.20,-14.04,-4.94,0.00,-0.23,0.31,9.39,0.00,0.00,-0.00,0.00
2026-06-27 09:39:37.392,995.34,995.20,-14.04,-4.94,0.00,-0.23,0.31,9.39,0.00,0.00,-0.00,0.00
2026-06-27 09:39:37.397,995.34,995.20,-14.04,-4.94,0.00,-0.23,0.31,9.39,0.00,0.00,-0.00,0.00
2026-06-27 09:39:37.399,995.34,995.20,-14.04,-4.94,0.00,-0.20,0.30,9.35,0.00,0.00,-0.00,0.00
2026-06-27 09:39:37.400,995.34,995.20,-14.04,-4.94,0.00,-0.20,0.30,9.35,0.00,0.00,-0.00,0.00
2026-06-27 09:39:37.401,995.34,995.20,-14.04,-4.94,0.00,-0.20,0.30,9.35,0.00,0.00,-0.00,0.00
2026-06-27 09:39:37.403,995.34,995.20,-14.04,-4.94,0.00,-0.20,0.30,9.35,0.00,0.00,-0.00,0.00
2026-06-27 09:39:37.408,995.34,995.20,-14.04,-4.94,0.00,-0.20,0.30,9.35,0.00,0.01,0.00,0.00
2026-06-27 09:39:37.410,995.34,995.20,-14.04,-4.94,0.00,-0.19,0.29,9.38,0.00,0.01,0.00,0.00
2026-06-27 09:39:37.411,995.34,995.20,-14.04,-4.94,0.00,-0.19,0.29,9.38,0.00,0.01,0.00,0.00
2026-06-27 09:39:37.418,995.34,995.20,-14.04,-4.94,0.00,-0.19,0.29,9.38,0.00,0.01,0.00,0.00
2026-06-27 09:39:37.420,995.34,995.20,-14.04,-4.94,0.00,-0.22,0.30,9.38,0.00,0.00,0.00,0.00
2026-06-27 09:39:37.422,995.34,995.20,-14.04,-4.94,0.00,-0.22,0.30,9.38,0.00,0.00,0.00,0.00
2026-06-27 09:39:37.423,995.34,995.20,-14.04,-4.94,0.00,-0.22,0.30,9.38,0.00,0.00,0.00,0.00
2026-06-27 09:39:37.560,995.34,995.22,-12.13,-4.59,0.00,-0.23,0.38,9.36,0.00,0.00,0.00,0.00
2026-06-27 09:39:37.562,995.34,995.22,-12.13,-4.59,0.00,-0.23,0.38,9.36,0.00,0.00,0.00,0.00
2026-06-27 09:39:37.564,995.34,995.22,-12.13,-4.59,0.00,-0.23,0.38,9.36,0.00,0.00,0.00,0.00
2026-06-27 09:39:37.569,995.34,995.22,-12.13,-4.59,0.00,-0.23,0.38,9.36,0.00,0.00,0.00,0.00
2026-06-27 09:39:37.570,995.34,995.22,-12.13,-4.59,0.00,-0.21,0.34,9.38,0.00,0.00,0.00,0.00
2026-06-27 09:39:37.572,995.34,995.22,-12.13,-4.59,0.00,-0.21,0.34,9.38,0.00,0.00,0.00,0.00
2026-06-27 09:39:37.575,995.34,995.22,-12.13,-4.59,0.00,-0.21,0.34,9.38,0.00,0.00,0.00,0.00
2026-06-27 09:39:37.578,995.34,995.22,-12.13,-4.59,0.00,-0.21,0.34,9.38,0.00,0.00,0.00,0.00
2026-06-27 09:39:37.580,995.34,995.22,-12.13,-4.59,0.00,-0.19,0.34,9.34,0.00,0.00,0.00,0.00
2026-06-27 09:39:37.581,995.34,995.22,-12.13,-4.59,0.00,-0.19,0.34,9.34,0.00,0.00,0.00,0.00
2026-06-27 09:39:37.582,995.34,995.22,-12.13,-4.59,0.00,-0.19,0.34,9.34,0.00,0.00,0.00,0.00
2026-06-27 09:39:37.583,995.34,995.22,-12.13,-4.59,0.00,-0.19,0.34,9.34,0.00,0.00,0.00,0.00
2026-06-27 09:39:37.589,995.34,995.22,-12.13,-4.59,0.00,-0.19,0.34,9.34,0.00,0.00,0.00,0.00
2026-06-27 09:39:37.590,995.34,995.22,-12.13,-4.59,0.00,-0.22,0.34,9.37,0.00,0.00,0.00,0.00
2026-06-27 09:39:37.592,995.34,995.22,-12.13,-4.59,0.00,-0.22,0.34,9.37,0.00,0.00,0.00,0.00
2026-06-27 09:39:37.593,995.34,995.22,-12.13,-4.59,0.00,-0.22,0.34,9.37,0.00,0.00,0.00,0.00
2026-06-27 09:39:37.598,995.34,995.22,-12.13,-4.59,0.00,-0.22,0.34,9.37,0.00,0.00,0.00,0.00
2026-06-27 09:39:37.740,995.34,995.21,-13.25,-4.80,0.00,-0.21,0.34,9.40,0.00,-0.01,0.00,0.00
2026-06-27 09:39:37.741,995.34,995.21,-13.25,-4.80,0.00,-0.21,0.34,9.40,0.00,-0.01,0.00,0.00
2026-06-27 09:39:37.743,995.34,995.21,-13.25,-4.80,0.00,-0.21,0.34,9.40,0.00,-0.01,0.00,0.00
2026-06-27 09:39:37.746,995.34,995.21,-13.25,-4.80,0.00,-0.21,0.34,9.40,0.00,-0.01,0.00,0.00
2026-06-27 09:39:37.749,995.34,995.21,-13.25,-4.80,0.00,-0.21,0.34,9.40,-0.00,-0.01,0.00,0.00
2026-06-27 09:39:37.751,995.34,995.21,-13.25,-4.80,0.00,-0.22,0.32,9.38,-0.00,-0.01,0.00,0.00
2026-06-27 09:39:37.752,995.34,995.21,-13.25,-4.80,0.00,-0.22,0.32,9.38,-0.00,-0.01,0.00,0.00
2026-06-27 09:39:37.753,995.34,995.21,-13.25,-4.80,0.00,-0.22,0.32,9.38,-0.00,-0.01,0.00,0.00
2026-06-27 09:39:37.756,995.34,995.21,-13.25,-4.80,0.00,-0.22,0.32,9.38,-0.00,-0.01,0.00,0.00
2026-06-27 09:39:37.760,995.34,995.21,-13.25,-4.80,0.00,-0.22,0.32,9.38,-0.00,-0.01,0.00,0.00
2026-06-27 09:39:37.761,995.34,995.21,-13.25,-4.80,0.00,-0.18,0.33,9.34,-0.00,-0.01,0.00,0.00
2026-06-27 09:39:37.762,995.34,995.21,-13.25,-4.80,0.00,-0.18,0.33,9.34,-0.00,-0.01,0.00,0.00
2026-06-27 09:39:37.763,995.34,995.21,-13.25,-4.80,0.00,-0.18,0.33,9.34,-0.00,-0.01,0.00,0.00
2026-06-27 09:39:37.768,995.34,995.21,-13.25,-4.80,0.00,-0.18,0.33,9.34,-0.00,-0.01,0.00,0.00
2026-06-27 09:39:37.770,995.34,995.21,-13.25,-4.80,0.00,-0.17,0.32,9.37,-0.00,-0.01,0.00,0.00
2026-06-27 09:39:37.772,995.34,995.21,-13.25,-4.80,0.00,-0.17,0.32,9.37,-0.00,-0.01,0.00,0.00
2026-06-27 09:39:37.774,995.34,995.21,-13.25,-4.80,0.00,-0.17,0.32,9.37,-0.00,-0.01,0.00,0.00
2026-06-27 09:39:37.919,995.35,995.20,-15.00,-5.10,0.00,-0.12,0.32,9.37,0.00,0.01,-0.00,0.00
2026-06-27 09:39:37.921,995.35,995.20,-15.00,-5.10,0.00,-0.10,0.32,9.38,0.00,0.01,0.00,0.00
