timestamp,pressure_bag,pressure_bme,diff_pressure,v_wind_est,speed,accel_x,accel_y,accel_z,gyro_x,gyro_y,gyro_z,power
2026-06-27 09:46:40.417,995.28,995.17,-11.32,-4.43,0.00,1.05,0.18,9.31,-0.00,-0.01,0.00,0.00
2026-06-27 09:46:40.419,995.28,995.17,-11.32,-4.43,0.00,1.05,0.18,9.31,-0.00,-0.01,0.00,0.00
2026-06-27 09:46:40.425,995.28,995.17,-11.32,-4.43,0.00,1.05,0.18,9.31,-0.00,-0.01,0.00,0.00
2026-06-27 09:46:40.427,995.28,995.17,-11.32,-4.43,0.00,1.02,0.19,9.29,0.00,-0.00,0.00,0.00
2026-06-27 09:46:40.429,995.28,995.17,-11.32,-4.43,0.00,1.02,0.19,9.29,0.00,-0.00,0.00,0.00
2026-06-27 09:46:40.433,995.28,995.17,-11.32,-4.43,0.00,1.02,0.19,9.29,0.00,-0.00,0.00,0.00
2026-06-27 09:46:40.435,995.28,995.17,-11.32,-4.43,0.00,1.01,0.17,9.29,-0.00,0.00,-0.00,0.00
2026-06-27 09:46:40.437,995.28,995.17,-11.32,-4.43,0.00,1.01,0.17,9.29,-0.00,0.00,-0.00,0.00
2026-06-27 09:46:40.438,995.28,995.17,-11.32,-4.43,0.00,1.01,0.17,9.29,-0.00,0.00,-0.00,0.00
2026-06-27 09:46:40.440,995.28,995.17,-11.32,-4.43,0.00,1.01,0.17,9.29,-0.00,0.00,-0.00,0.00
2026-06-27 09:46:40.445,995.28,995.17,-11.32,-4.43,0.00,1.01,0.17,9.29,-0.00,0.00,0.00,0.00
2026-06-27 09:46:40.446,995.28,995.17,-11.32,-4.43,0.00,1.04,0.17,9.31,-0.00,0.00,0.00,0.00
2026-06-27 09:46:40.449,995.28,995.17,-11.32,-4.43,0.00,1.04,0.17,9.31,-0.00,0.00,0.00,0.00
2026-06-27 09:46:40.451,995.28,995.17,-11.32,-4.43,0.00,1.04,0.17,9.31,-0.00,0.00,0.00,0.00
2026-06-27 09:46:40.455,995.28,995.17,-11.32,-4.43,0.00,1.04,0.17,9.31,0.00,0.00,-0.00,0.00
2026-06-27 09:46:40.595,995.29,995.17,-11.38,-4.44,0.00,1.02,0.19,9.26,-0.00,0.00,-0.00,0.00
2026-06-27 09:46:40.598,995.29,995.17,-11.38,-4.44,0.00,1.02,0.19,9.30,0.00,0.00,0.00,0.00
2026-06-27 09:46:40.600,995.29,995.17,-11.38,-4.44,0.00,1.02,0.19,9.30,0.00,0.00,0.00,0.00
2026-06-27 09:46:40.604,995.29,995.17,-11.38,-4.44,0.00,1.02,0.19,9.30,0.00,0.00,0.00,0.00
2026-06-27 09:46:40.607,995.29,995.17,-11.38,-4.44,0.00,1.02,0.19,9.30,-0.00,0.00,0.00,0.00
2026-06-27 09:46:40.609,995.29,995.17,-11.38,-4.44,0.00,1.02,0.19,9.30,-0.00,0.00,0.00,0.00
2026-06-27 09:46:40.615,995.29,995.17,-11.38,-4.44,0.00,1.02,0.19,9.30,-0.00,0.00,0.00,0.00
2026-06-27 09:46:40.616,995.29,995.17,-11.38,-4.44,0.00,1.01,0.17,9.28,-0.00,0.00,0.00,0.00
2026-06-27 09:46:40.618,995.29,995.17,-11.38,-4.44,0.00,1.01,0.17,9.28,-0.00,0.00,0.00,0.00
2026-06-27 09:46:40.619,995.29,995.17,-11.38,-4.44,0.00,1.01,0.17,9.28,-0.00,0.00,0.00,0.00
2026-06-27 09:46:40.621,995.29,995.17,-11.38,-4.44,0.00,1.01,0.17,9.28,-0.00,0.00,0.00,0.00
2026-06-27 09:46:40.626,995.29,995.17,-11.38,-4.44,0.00,1.01,0.17,9.28,-0.00,0.00,0.00,0.00
2026-06-27 09:46:40.767,995.30,995.19,-11.11,-4.39,0.00,1.01,0.17,9.29,-0.00,0.00,0.00,0.00
2026-06-27 09:46:40.769,995.30,995.19,-11.11,-4.39,0.00,1.01,0.17,9.29,-0.00,0.00,0.00,0.00
2026-06-27 09:46:40.773,995.30,995.19,-11.11,-4.39,0.00,1.01,0.17,9.29,-0.00,0.00,0.00,0.00
2026-06-27 09:46:40.776,995.30,995.19,-11.11,-4.39,0.00,1.01,0.17,9.29,0.00,0.00,0.00,0.00
2026-06-27 09:46:40.778,995.30,995.19,-11.11,-4.39,0.00,1.02,0.16,9.27,0.00,0.00,0.00,0.00
2026-06-27 09:46:40.779,995.30,995.19,-11.11,-4.39,0.00,1.02,0.16,9.27,0.00,0.00,0.00,0.00
2026-06-27 09:46:40.783,995.30,995.19,-11.11,-4.39,0.00,1.02,0.16,9.27,0.00,0.00,0.00,0.00
2026-06-27 09:46:40.786,995.30,995.19,-11.11,-4.39,0.00,1.02,0.16,9.27,-0.00,0.00,-0.00,0.00
2026-06-27 09:46:40.788,995.30,995.19,-11.11,-4.39,0.00,1.03,0.16,9.27,-0.00,0.00,-0.00,0.00
2026-06-27 09:46:40.789,995.30,995.19,-11.11,-4.39,0.00,1.03,0.16,9.27,-0.00,0.00,-0.00,0.00
2026-06-27 09:46:40.792,995.30,995.19,-11.11,-4.39,0.00,1.03,0.16,9.27,-0.00,0.00,-0.00,0.00
2026-06-27 09:46:40.796,995.30,995.19,-11.11,-4.39,0.00,1.03,0.16,9.27,0.00,0.01,0.00,0.00
2026-06-27 09:46:40.798,995.30,995.19,-11.11,-4.39,0.00,1.04,0.19,9.28,0.00,0.01,0.00,0.00
2026-06-27 09:46:40.799,995.30,995.19,-11.11,-4.39,0.00,1.04,0.19,9.28,0.00,0.01,0.00,0.00
2026-06-27 09:46:40.800,995.30,995.19,-11.11,-4.39,0.00,1.04,0.19,9.28,0.00,0.01,0.00,0.00
2026-06-27 09:46:40.802,995.30,995.19,-11.11,-4.39,0.00,1.04,0.19,9.28,0.00,0.01,0.00,0.00
2026-06-27 09:46:40.806,995.30,995.19,-11.11,-4.39,0.00,1.04,0.19,9.28,0.00,0.01,0.00,0.00
2026-06-27 09:46:40.948,995.29,995.19,-10.09,-4.19,0.00,1.03,0.19,9.30,0.00,0.00,-0.00,0.00
2026-06-27 09:46:40.950,995.29,995.19,-10.09,-4.19,0.00,1.03,0.19,9.30,0.00,0.00,-0.00,0.00
2026-06-27 09:46:40.951,995.29,995.19,-10.09,-4.19,0.00,1.03,0.19,9.30,0.00,0.00,-0.00,0.00
2026-06-27 09:46:40.953,995.29,995.19,-10.09,-4.19,0.00,1.03,0.19,9.30,0.00,0.00,-0.00,0.00
2026-06-27 09:46:40.954,995.29,995.19,-10.09,-4.19,0.00,1.03,0.19,9.30,0.00,0.00,-0.00,0.00
2026-06-27 09:46:40.957,995.29,995.19,-10.09,-4.19,0.00,1.03,0.19,9.30,0.00,0.00,-0.00,0.00
2026-06-27 09:46:40.959,995.29,995.19,-10.09,-4.19,0.00,1.02,0.18,9.32,0.00,0.00,-0.00,0.00
2026-06-27 09:46:40.960,995.29,995.19,-10.09,-4.19,0.00,1.02,0.18,9.32,0.00,0.00,-0.00,0.00
2026-06-27 09:46:40.962,995.29,995.19,-10.09,-4.19,0.00,1.02,0.18,9.32,0.00,0.00,-0.00,0.00
2026-06-27 09:46:40.967,995.29,995.19,-10.09,-4.19,0.00,1.02,0.18,9.32,0.00,0.00,-0.00,0.00
2026-06-27 09:46:40.968,995.29,995.19,-10.09,-4.19,0.00,1.02,0.20,9.30,0.00,0.00,-0.00,0.00
2026-06-27 09:46:40.969,995.29,995.19,-10.09,-4.19,0.00,1.02,0.20,9.30,0.00,0.00,-0.00,0.00
2026-06-27 09:46:40.970,995.29,995.19,-10.09,-4.19,0.00,1.02,0.20,9.30,0.00,0.00,-0.00,0.00
2026-06-27 09:46:40.974,995.29,995.19,-10.09,-4.19,0.00,1.02,0.20,9.30,0.00,0.00,-0.00,0.00
2026-06-27 09:46:40.978,995.29,995.19,-10.09,-4.19,0.00,1.02,0.19,9.28,-0.00,-0.00,0.00,0.00
2026-06-27 09:46:40.979,995.29,995.19,-10.09,-4.19,0.00,1.02,0.19,9.28,-0.00,-0.00,0.00,0.00
2026-06-27 09:46:40.980,995.29,995.19,-10.09,-4.19,0.00,1.02,0.19,9.28,-0.00,-0.00,0.00,0.00
2026-06-27 09:46:40.984,995.29,995.19,-10.09,-4.19,0.00,1.02,0.19,9.28,-0.00,-0.00,0.00,0.00
2026-06-27 09:46:41.127,995.29,995.19,-10.55,-4.28,0.00,1.03,0.18,9.28,0.00,-0.00,0.00,0.00
2026-06-27 09:46:41.128,995.29,995.19,-10.55,-4.28,0.00,1.03,0.17,9.26,0.00,-0.00,0.00,0.00
2026-06-27 09:46:41.130,995.29,995.19,-10.55,-4.28,0.00,1.03,0.17,9.26,0.00,-0.00,0.00,0.00
2026-06-27 09:46:41.131,995.29,995.19,-10.55,-4.28,0.00,1.03,0.17,9.26,0.00,-0.00,0.00,0.00
2026-06-27 09:46:41.132,995.29,995.19,-10.55,-4.28,0.00,1.03,0.17,9.26,0.00,-0.00,0.00,0.00
2026-06-27 09:46:41.137,995.29,995.19,-10.55,-4.28,0.00,1.03,0.17,9.26,0.00,-0.00,0.00,0.00
2026-06-27 09:46:41.138,995.29,995.19,-10.55,-4.28,0.00,1.03,0.17,9.31,0.00,-0.00,0.00,0.00
2026-06-27 09:46:41.140,995.29,995.19,-10.55,-4.28,0.00,1.03,0.17,9.31,0.00,-0.00,0.00,0.00
2026-06-27 09:46:41.142,995.29,995.19,-10.55,-4.28,0.00,1.03,0.17,9.31,0.00,-0.00,0.00,0.00
2026-06-27 09:46:41.148,995.29,995.19,-10.55,-4.28,0.00,1.03,0.17,9.31,0.00,-0.00,0.00,0.00
2026-06-27 09:46:41.149,995.29,995.19,-10.55,-4.28,0.00,1.04,0.20,9.31,0.00,-0.00,0.00,0.00
2026-06-27 09:46:41.150,995.29,995.19,-10.55,-4.28,0.00,1.04,0.20,9.31,0.00,-0.00,0.00,0.00
2026-06-27 09:46:41.152,995.29,995.19,-10.55,-4.28,0.00,1.04,0.20,9.31,0.00,-0.00,0.00,0.00
2026-06-27 09:46:41.153,995.29,995.19,-10.55,-4.28,0.00,1.04,0.20,9.31,0.00,-0.00,0.00,0.00
2026-06-27 09:46:41.155,995.29,995.19,-10.55,-4.28,0.00,1.04,0.20,9.31,0.00,-0.00,0.00,0.00
2026-06-27 09:46:41.157,995.29,995.19,-10.55,-4.28,0.00,1.04,0.20,9.31,0.00,-0.00,0.00,0.00
2026-06-27 09:46:41.159,995.29,995.19,-10.55,-4.28,0.00,1.01,0.17,9.28,0.00,-0.00,0.00,0.00
2026-06-27 09:46:41.301,995.30,995.18,-11.63,-4.49,0.00,1.04,0.17,9.27,0.00,-0.00,0.00,0.00
2026-06-27 09:46:41.302,995.30,995.18,-11.63,-4.50,0.00,1.04,0.17,9.27,0.00,-0.00,0.00,0.00
2026-06-27 09:46:41.303,995.30,995.18,-11.63,-4.50,0.00,1.04,0.17,9.27,0.00,-0.00,0.00,0.00
2026-06-27 09:46:41.305,995.30,995.18,-11.63,-4.50,0.00,1.04,0.17,9.27,0.00,-0.00,0.00,0.00
2026-06-27 09:46:41.308,995.30,995.18,-11.63,-4.50,0.00,1.04,0.17,9.27,0.00,0.00,-0.00,0.00
2026-06-27 09:46:41.310,995.30,995.18,-11.63,-4.50,0.00,1.01,0.18,9.31,0.00,0.00,-0.00,0.00
2026-06-27 09:46:41.311,995.30,995.18,-11.63,-4.50,0.00,1.01,0.18,9.31,0.00,0.00,-0.00,0.00
2026-06-27 09:46:41.313,995.30,995.18,-11.63,-4.50,0.00,1.01,0.18,9.31,0.00,0.00,-0.00,0.00
2026-06-27 09:46:41.318,995.30,995.18,-11.63,-4.50,0.00,1.01,0.18,9.31,0.00,0.00,0.00,0.00
2026-06-27 09:46:41.319,995.30,995.18,-11.63,-4.50,0.00,1.03,0.18,9.27,0.00,0.00,0.00,0.00
2026-06-27 09:46:41.321,995.30,995.18,-11.63,-4.50,0.00,1.03,0.18,9.27,0.00,0.00,0.00,0.00
2026-06-27 09:46:41.322,995.30,995.18,-11.63,-4.50,0.00,1.03,0.18,9.27,0.00,0.00,0.00,0.00
2026-06-27 09:46:41.327,995.30,995.18,-11.63,-4.50,0.00,1.03,0.18,9.27,0.00,0.00,0.00,0.00
2026-06-27 09:46:41.328,995.30,995.18,-11.63,-4.50,0.00,1.03,0.17,9.29,0.00,0.00,-0.00,0.00
2026-06-27 09:46:41.330,995.30,995.18,-11.63,-4.50,0.00,1.03,0.17,9.29,0.00,0.00,-0.00,0.00
2026-06-27 09:46:41.332,995.30,995.18,-11.63,-4.50,0.00,1.03,0.17,9.29,0.00,0.00,-0.00,0.00
2026-06-27 09:46:41.336,995.30,995.18,-11.63,-4.50,0.00,1.03,0.17,9.29,0.00,0.00,-0.00,0.00
2026-06-27 09:46:41.478,995.31,995.20,-10.75,-4.32,0.00,1.02,0.18,9.30,-0.00,0.00,0.00,0.00
2026-06-27 09:46:41.480,995.31,995.20,-10.75,-4.32,0.00,1.04,0.18,9.25,-0.00,0.00,0.00,0.00
2026-06-27 09:46:41.481,995.31,995.20,-10.75,-4.32,0.00,1.04,0.18,9.25,-0.00,0.00,0.00,0.00
2026-06-27 09:46:41.482,995.31,995.20,-10.75,-4.32,0.00,1.04,0.18,9.25,-0.00,0.00,0.00,0.00
2026-06-27 09:46:41.487,995.31,995.20,-10.75,-4.32,0.00,1.04,0.18,9.25,-0.00,0.00,0.00,0.00
2026-06-27 09:46:41.489,995.31,995.20,-10.75,-4.32,0.00,1.01,0.18,9.29,-0.00,0.00,-0.00,0.00
2026-06-27 09:46:41.490,995.31,995.20,-10.75,-4.32,0.00,1.01,0.18,9.29,-0.00,0.00,-0.00,0.00
2026-06-27 09:46:41.492,995.31,995.20,-10.75,-4.32,0.00,1.01,0.18,9.29,-0.00,0.00,-0.00,0.00
2026-06-27 09:46:41.498,995.31,995.20,-10.75,-4.32,0.00,1.01,0.18,9.29,-0.00,0.00,-0.00,0.00
2026-06-27 09:46:41.499,995.31,995.20,-10.75,-4.32,0.00,1.02,0.19,9.28,-0.00,-0.00,0.00,0.00
2026-06-27 09:46:41.500,995.31,995.20,-10.75,-4.32,0.00,1.02,0.19,9.28,-0.00,-0.00,0.00,0.00
2026-06-27 09:46:41.502,995.31,995.20,-10.75,-4.32,0.00,1.02,0.19,9.28,-0.00,-0.00,0.00,0.00
2026-06-27 09:46:41.503,995.31,995.20,-10.75,-4.32,0.00,1.02,0.19,9.28,-0.00,-0.00,0.00,0.00
2026-06-27 09:46:41.504,995.31,995.20,-10.75,-4.32,0.00,1.02,0.19,9.28,-0.00,-0.00,0.00,0.00
2026-06-27 09:46:41.506,995.31,995.20,-10.75,-4.32,0.00,1.02,0.19,9.28,-0.00,-0.00,0.00,0.00
2026-06-27 09:46:41.509,995.31,995.20,-10.75,-4.32,0.00,1.02,0.19,9.28,0.00,0.00,0.00,0.00
2026-06-27 09:46:41.510,995.31,995.20,-10.75,-4.32,0.00,1.02,0.17,9.28,0.00,0.00,0.00,0.00
2026-06-27 09:46:41.511,995.31,995.20,-10.75,-4.32,0.00,1.02,0.17,9.28,0.00,0.00,0.00,0.00
2026-06-27 09:46:41.653,995.29,995.21,-7.76,-3.67,0.00,1.03,0.17,9.30,-0.00,-0.00,0.00,0.00
2026-06-27 09:46:41.655,995.29,995.21,-7.76,-3.67,0.00,1.03,0.17,9.30,-0.00,-0.00,0.00,0.00
2026-06-27 09:46:41.659,995.29,995.21,-7.76,-3.67,0.00,1.03,0.17,9.30,0.00,0.00,0.00,0.00
2026-06-27 09:46:41.660,995.29,995.21,-7.76,-3.67,0.00,1.01,0.19,9.29,0.00,0.00,0.00,0.00
2026-06-27 09:46:41.661,995.29,995.21,-7.76,-3.67,0.00,1.01,0.19,9.29,0.00,0.00,0.00,0.00
2026-06-27 09:46:41.663,995.29,995.21,-7.76,-3.67,0.00,1.01,0.19,9.29,0.00,0.00,0.00,0.00
2026-06-27 09:46:41.668,995.29,995.21,-7.76,-3.67,0.00,1.01,0.19,9.29,0.00,0.00,0.00,0.00
2026-06-27 09:46:41.670,995.29,995.21,-7.76,-3.67,0.00,1.03,0.17,9.28,0.00,-0.00,0.00,0.00
2026-06-27 09:46:41.671,995.29,995.21,-7.76,-3.67,0.00,1.03,0.17,9.28,0.00,-0.00,0.00,0.00
2026-06-27 09:46:41.672,995.29,995.21,-7.76,-3.67,0.00,1.03,0.17,9.28,0.00,-0.00,0.00,0.00
2026-06-27 09:46:41.678,995.29,995.21,-7.76,-3.67,0.00,1.03,0.17,9.28,0.00,-0.00,0.00,0.00
2026-06-27 09:46:41.679,995.29,995.21,-7.76,-3.67,0.00,1.01,0.16,9.27,-0.00,0.00,0.00,0.00
2026-06-27 09:46:41.683,995.29,995.21,-7.76,-3.67,0.00,1.01,0.16,9.27,-0.00,0.00,0.00,0.00
2026-06-27 09:46:41.688,995.29,995.21,-7.76,-3.67,0.00,1.01,0.16,9.27,-0.00,0.00,0.00,0.00
2026-06-27 09:46:41.831,995.29,995.18,-10.50,-4.27,0.00,1.02,0.19,9.28,0.00,-0.00,-0.00,0.00
2026-06-27 09:46:41.833,995.29,995.18,-10.50,-4.27,0.00,1.02,0.19,9.28,0.00,-0.00,-0.00,0.00
2026-06-27 09:46:41.839,995.29,995.18,-10.50,-4.27,0.00,1.02,0.19,9.28,0.00,0.00,0.00,0.00
2026-06-27 09:46:41.841,995.29,995.18,-10.50,-4.27,0.00,1.01,0.16,9.30,0.00,0.00,0.00,0.00
2026-06-27 09:46:41.845,995.29,995.18,-10.50,-4.27,0.00,1.01,0.16,9.30,0.00,0.00,0.00,0.00
2026-06-27 09:46:41.851,995.29,995.18,-10.50,-4.27,0.00,1.01,0.16,9.30,0.00,0.00,0.00,0.00
2026-06-27 09:46:41.859,995.29,995.18,-10.50,-4.27,0.00,1.02,0.19,9.26,0.00,0.00,0.00,0.00
2026-06-27 09:46:41.861,995.29,995.18,-10.50,-4.27,0.00,1.04,0.18,9.32,0.00,0.00,0.00,0.00
2026-06-27 09:46:41.865,995.29,995.18,-10.50,-4.27,0.00,1.04,0.18,9.32,0.00,0.00,0.00,0.00
2026-06-27 09:46:42.027,995.30,995.21,-9.65,-4.09,0.00,1.01,0.19,9.29,0.00,-0.00,-0.00,0.00
2026-06-27 09:46:42.031,995.30,995.21,-9.65,-4.09,0.00,1.03,0.18,9.30,-0.00,-0.00,0.00,0.00
2026-06-27 09:46:42.037,995.30,995.21,-9.65,-4.09,0.00,1.03,0.18,9.30,-0.00,-0.00,0.00,0.00
2026-06-27 09:46:42.041,995.30,995.21,-9.65,-4.09,0.00,1.01,0.18,9.30,-0.00,0.00,0.00,0.00
2026-06-27 09:46:42.046,995.30,995.21,-9.65,-4.09,0.00,1.01,0.18,9.30,-0.00,0.00,0.00,0.00
2026-06-27 09:46:42.188,995.29,995.19,-9.44,-4.05,0.00,1.02,0.18,9.26,-0.00,0.00,0.00,0.00
2026-06-27 09:46:42.190,995.29,995.19,-9.44,-4.05,0.00,1.02,0.18,9.28,0.00,-0.00,0.00,0.00
2026-06-27 09:46:42.191,995.29,995.19,-9.44,-4.05,0.00,1.02,0.18,9.28,0.00,-0.00,0.00,0.00
2026-06-27 09:46:42.193,995.29,995.19,-9.44,-4.05,0.00,1.02,0.18,9.28,0.00,-0.00,0.00,0.00
2026-06-27 09:46:42.194,995.29,995.19,-9.44,-4.05,0.00,1.02,0.18,9.28,0.00,-0.00,0.00,0.00
2026-06-27 09:46:42.198,995.29,995.19,-9.44,-4.05,0.00,1.02,0.18,9.28,0.00,-0.00,0.00,0.00
2026-06-27 09:46:42.200,995.29,995.19,-9.44,-4.05,0.00,1.02,0.18,9.28,0.00,0.00,0.00,0.00
2026-06-27 09:46:42.202,995.29,995.19,-9.44,-4.05,0.00,1.01,0.16,9.27,0.00,0.00,0.00,0.00
2026-06-27 09:46:42.204,995.29,995.19,-9.44,-4.05,0.00,1.01,0.16,9.27,0.00,0.00,0.00,0.00
2026-06-27 09:46:42.205,995.29,995.19,-9.44,-4.05,0.00,1.01,0.16,9.27,0.00,0.00,0.00,0.00
2026-06-27 09:46:42.206,995.29,995.19,-9.44,-4.05,0.00,1.01,0.16,9.27,0.00,0.00,0.00,0.00
2026-06-27 09:46:42.207,995.29,995.19,-9.44,-4.05,0.00,1.01,0.16,9.27,0.00,0.00,0.00,0.00
2026-06-27 09:46:42.211,995.29,995.19,-9.44,-4.05,0.00,1.01,0.16,9.27,0.00,0.00,-0.00,0.00
2026-06-27 09:46:42.212,995.29,995.19,-9.44,-4.05,0.00,1.01,0.17,9.29,0.00,0.00,-0.00,0.00
2026-06-27 09:46:42.214,995.29,995.19,-9.44,-4.05,0.00,1.01,0.17,9.29,0.00,0.00,-0.00,0.00
2026-06-27 09:46:42.219,995.29,995.19,-9.44,-4.05,0.00,1.01,0.17,9.29,0.00,0.00,-0.00,0.00
2026-06-27 09:46:42.221,995.29,995.19,-9.44,-4.05,0.00,1.04,0.18,9.29,-0.00,-0.00,0.00,0.00
2026-06-27 09:46:42.361,995.29,995.19,-10.00,-4.17,0.00,1.02,0.18,9.30,0.00,0.00,0.00,0.00
2026-06-27 09:46:42.362,995.29,995.19,-10.00,-4.17,0.00,1.02,0.18,9.30,0.00,0.00,0.00,0.00
2026-06-27 09:46:42.363,995.29,995.19,-10.00,-4.17,0.00,1.02,0.18,9.30,0.00,0.00,0.00,0.00
2026-06-27 09:46:42.367,995.29,995.19,-10.00,-4.17,0.00,1.02,0.18,9.30,0.00,0.00,0.00,0.00
2026-06-27 09:46:42.371,995.29,995.19,-10.00,-4.17,0.00,1.02,0.18,9.30,0.00,0.00,-0.00,0.00
2026-06-27 09:46:42.374,995.29,995.19,-10.00,-4.17,0.00,1.01,0.18,9.29,0.00,0.00,-0.00,0.00
2026-06-27 09:46:42.378,995.29,995.19,-10.00,-4.17,0.00,1.01,0.18,9.29,0.00,0.00,-0.00,0.00
2026-06-27 09:46:42.380,995.29,995.19,-10.00,-4.17,0.00,1.01,0.18,9.29,-0.00,0.00,0.00,0.00
2026-06-27 09:46:42.382,995.29,995.19,-10.00,-4.17,0.00,1.03,0.19,9.25,-0.00,0.00,0.00,0.00
2026-06-27 09:46:42.383,995.29,995.19,-10.00,-4.17,0.00,1.03,0.19,9.25,-0.00,0.00,0.00,0.00
2026-06-27 09:46:42.387,995.29,995.19,-10.00,-4.17,0.00,1.03,0.19,9.25,-0.00,0.00,0.00,0.00
2026-06-27 09:46:42.391,995.29,995.19,-10.00,-4.17,0.00,1.03,0.19,9.25,0.00,-0.00,0.00,0.00
2026-06-27 09:46:42.392,995.29,995.19,-10.00,-4.17,0.00,1.01,0.16,9.27,0.00,-0.00,0.00,0.00
2026-06-27 09:46:42.393,995.29,995.19,-10.00,-4.17,0.00,1.01,0.16,9.27,0.00,-0.00,0.00,0.00
2026-06-27 09:46:42.394,995.29,995.19,-10.00,-4.17,0.00,1.01,0.16,9.27,0.00,-0.00,0.00,0.00
2026-06-27 09:46:42.399,995.29,995.19,-10.00,-4.17,0.00,1.01,0.16,9.27,0.00,-0.00,0.00,0.00
2026-06-27 09:46:42.541,995.30,995.19,-10.97,-4.37,0.00,1.03,0.19,9.28,0.00,-0.00,0.00,0.00
2026-06-27 09:46:42.542,995.30,995.19,-10.97,-4.37,0.00,1.02,0.18,9.30,0.00,-0.00,0.00,0.00
2026-06-27 09:46:42.544,995.30,995.19,-10.97,-4.37,0.00,1.02,0.18,9.30,0.00,-0.00,0.00,0.00
2026-06-27 09:46:42.545,995.30,995.19,-10.97,-4.37,0.00,1.02,0.18,9.30,0.00,-0.00,0.00,0.00
2026-06-27 09:46:42.550,995.30,995.19,-10.97,-4.37,0.00,1.02,0.18,9.30,0.00,-0.00,0.00,0.00
2026-06-27 09:46:42.552,995.30,995.19,-10.97,-4.37,0.00,1.04,0.16,9.29,0.00,0.00,0.00,0.00
2026-06-27 09:46:42.553,995.30,995.19,-10.97,-4.37,0.00,1.04,0.16,9.29,0.00,0.00,0.00,0.00
2026-06-27 09:46:42.555,995.30,995.19,-10.97,-4.37,0.00,1.04,0.16,9.29,0.00,0.00,0.00,0.00
2026-06-27 09:46:42.556,995.30,995.19,-10.97,-4.37,0.00,1.04,0.16,9.29,0.00,0.00,0.00,0.00
2026-06-27 09:46:42.557,995.30,995.19,-10.97,-4.37,0.00,1.04,0.16,9.29,0.00,0.00,0.00,0.00
2026-06-27 09:46:42.558,995.30,995.19,-10.97,-4.37,0.00,1.04,0.16,9.29,0.00,0.00,0.00,0.00
2026-06-27 09:46:42.560,995.30,995.19,-10.97,-4.37,0.00,1.04,0.16,9.29,0.00,0.00,0.00,0.00
2026-06-27 09:46:42.561,995.30,995.19,-10.97,-4.37,0.00,1.04,0.18,9.28,-0.00,-0.00,0.00,0.00
2026-06-27 09:46:42.562,995.30,995.19,-10.97,-4.37,0.00,1.04,0.18,9.28,-0.00,-0.00,0.00,0.00
2026-06-27 09:46:42.564,995.30,995.19,-10.97,-4.37,0.00,1.04,0.18,9.28,-0.00,-0.00,0.00,0.00
2026-06-27 09:46:42.565,995.30,995.19,-10.97,-4.37,0.00,1.04,0.18,9.28,-0.00,-0.00,0.00,0.00
2026-06-27 09:46:42.570,995.30,995.19,-10.97,-4.37,0.00,1.04,0.18,9.28,-0.00,-0.00,0.00,0.00
2026-06-27 09:46:42.572,995.30,995.19,-10.97,-4.37,0.00,1.02,0.18,9.26,-0.00,0.00,0.00,0.00
2026-06-27 09:46:42.573,995.30,995.19,-10.97,-4.37,0.00,1.02,0.18,9.26,-0.00,0.00,0.00,0.00
2026-06-27 09:46:42.574,995.30,995.19,-10.97,-4.37,0.00,1.02,0.18,9.26,-0.00,0.00,0.00,0.00
2026-06-27 09:46:42.719,995.29,995.20,-8.68,-3.88,0.00,1.01,0.20,9.28,-0.00,0.00,0.00,0.00
2026-06-27 09:46:42.722,995.29,995.20,-8.68,-3.88,0.00,1.01,0.20,9.27,0.00,-0.00,0.00,0.00
2026-06-27 09:46:42.723,995.29,995.20,-8.68,-3.88,0.00,1.01,0.20,9.27,0.00,-0.00,0.00,0.00
2026-06-27 09:46:42.724,995.29,995.20,-8.68,-3.88,0.00,1.01,0.20,9.27,0.00,-0.00,0.00,0.00
2026-06-27 09:46:42.725,995.29,995.20,-8.68,-3.88,0.00,1.01,0.20,9.27,0.00,-0.00,0.00,0.00
2026-06-27 09:46:42.730,995.29,995.20,-8.68,-3.88,0.00,1.01,0.20,9.27,0.00,-0.00,0.00,0.00
2026-06-27 09:46:42.732,995.29,995.20,-8.68,-3.88,0.00,1.03,0.18,9.27,-0.00,-0.00,-0.00,0.00
2026-06-27 09:46:42.733,995.29,995.20,-8.68,-3.88,0.00,1.03,0.18,9.27,-0.00,-0.00,-0.00,0.00
2026-06-27 09:46:42.735,995.29,995.20,-8.68,-3.88,0.00,1.03,0.18,9.27,-0.00,-0.00,-0.00,0.00
2026-06-27 09:46:42.739,995.29,995.20,-8.68,-3.88,0.00,1.03,0.18,9.27,-0.00,-0.00,-0.00,0.00
2026-06-27 09:46:42.741,995.29,995.20,-8.68,-3.88,0.00,1.03,0.18,9.27,-0.00,-0.00,0.00,0.00
2026-06-27 09:46:42.743,995.29,995.20,-8.68,-3.88,0.00,1.02,0.18,9.28,-0.00,-0.00,0.00,0.00
2026-06-27 09:46:42.744,995.29,995.20,-8.68,-3.88,0.00,1.02,0.18,9.28,-0.00,-0.00,0.00,0.00
2026-06-27 09:46:42.745,995.29,995.20,-8.68,-3.88,0.00,1.02,0.18,9.28,-0.00,-0.00,0.00,0.00
2026-06-27 09:46:42.749,995.29,995.20,-8.68,-3.88,0.00,1.02,0.18,9.28,-0.00,-0.00,0.00,0.00
2026-06-27 09:46:42.752,995.29,995.20,-8.68,-3.88,0.00,1.02,0.18,9.28,0.00,0.00,-0.00,0.00
2026-06-27 09:46:42.893,995.29,995.18,-11.08,-4.39,0.00,1.02,0.16,9.30,-0.00,0.00,-0.00,0.00
2026-06-27 09:46:42.894,995.29,995.18,-11.08,-4.39,0.00,1.02,0.16,9.30,-0.00,0.00,-0.00,0.00
2026-06-27 09:46:42.895,995.29,995.18,-11.08,-4.39,0.00,1.02,0.16,9.30,-0.00,0.00,-0.00,0.00
2026-06-27 09:46:42.898,995.29,995.18,-11.08,-4.39,0.00,1.02,0.16,9.30,-0.00,0.00,-0.00,0.00
2026-06-27 09:46:42.902,995.29,995.18,-11.08,-4.39,0.00,1.02,0.16,9.30,0.00,-0.00,0.00,0.00
2026-06-27 09:46:42.906,995.29,995.18,-11.08,-4.39,0.00,1.04,0.19,9.28,0.00,-0.00,0.00,0.00
2026-06-27 09:46:42.909,995.29,995.18,-11.08,-4.39,0.00,1.04,0.19,9.28,0.00,-0.00,0.00,0.00
2026-06-27 09:46:42.912,995.29,995.18,-11.08,-4.39,0.00,1.04,0.19,9.28,0.00,-0.00,0.00,0.00
2026-06-27 09:46:42.913,995.29,995.18,-11.08,-4.39,0.00,1.03,0.18,9.28,0.00,-0.00,0.00,0.00
2026-06-27 09:46:42.914,995.29,995.18,-11.08,-4.39,0.00,1.03,0.18,9.28,0.00,-0.00,0.00,0.00
2026-06-27 09:46:42.916,995.29,995.18,-11.08,-4.39,0.00,1.03,0.18,9.28,0.00,-0.00,0.00,0.00
2026-06-27 09:46:42.921,995.29,995.18,-11.08,-4.39,0.00,1.03,0.18,9.28,0.00,-0.00,0.00,0.00
2026-06-27 09:46:42.923,995.29,995.18,-11.08,-4.39,0.00,1.03,0.17,9.27,0.00,-0.00,0.00,0.00
2026-06-27 09:46:42.924,995.29,995.18,-11.08,-4.39,0.00,1.03,0.17,9.27,0.00,-0.00,0.00,0.00
2026-06-27 09:46:42.925,995.29,995.18,-11.08,-4.39,0.00,1.03,0.17,9.27,0.00,-0.00,0.00,0.00
2026-06-27 09:46:42.927,995.29,995.18,-11.08,-4.39,0.00,1.03,0.17,9.27,0.00,-0.00,0.00,0.00
2026-06-27 09:46:43.072,995.30,995.20,-9.08,-3.97,0.00,1.03,0.17,9.29,0.00,0.00,0.00,0.00
2026-06-27 09:46:43.073,995.30,995.20,-9.08,-3.97,0.00,1.04,0.20,9.29,0.00,0.00,0.00,0.00
2026-06-27 09:46:43.075,995.30,995.20,-9.08,-3.97,0.00,1.04,0.20,9.29,0.00,0.00,0.00,0.00
2026-06-27 09:46:43.076,995.30,995.20,-9.08,-3.97,0.00,1.04,0.20,9.29,0.00,0.00,0.00,0.00
2026-06-27 09:46:43.080,995.30,995.20,-9.08,-3.97,0.00,1.04,0.20,9.29,0.00,0.00,0.00,0.00
2026-06-27 09:46:43.083,995.30,995.20,-9.08,-3.97,0.00,1.04,0.20,9.29,0.00,0.00,0.00,0.00
2026-06-27 09:46:43.085,995.30,995.20,-9.08,-3.97,0.00,1.01,0.20,9.26,0.00,0.00,0.00,0.00
2026-06-27 09:46:43.093,995.30,995.20,-9.08,-3.97,0.00,1.01,0.20,9.26,0.00,0.00,0.00,0.00
2026-06-27 09:46:43.095,995.30,995.20,-9.08,-3.97,0.00,1.04,0.18,9.29,0.00,0.00,0.00,0.00
2026-06-27 09:46:43.096,995.30,995.20,-9.08,-3.97,0.00,1.04,0.18,9.29,0.00,0.00,0.00,0.00
2026-06-27 09:46:43.101,995.30,995.20,-9.08,-3.97,0.00,1.04,0.18,9.29,0.00,0.00,0.00,0.00
2026-06-27 09:46:43.103,995.30,995.20,-9.08,-3.97,0.00,1.00,0.18,9.30,0.00,0.00,-0.00,0.00
2026-06-27 09:46:43.244,995.29,995.19,-10.32,-4.23,0.00,1.01,0.20,9.30,0.00,0.00,-0.00,0.00
2026-06-27 09:46:43.248,995.29,995.19,-10.32,-4.23,0.00,1.01,0.20,9.30,0.00,0.00,-0.00,0.00
2026-06-27 09:46:43.253,995.29,995.19,-10.32,-4.23,0.00,1.01,0.20,9.30,0.00,-0.00,0.00,0.00
2026-06-27 09:46:43.255,995.29,995.19,-10.32,-4.23,0.00,1.03,0.15,9.27,0.00,-0.00,0.00,0.00
2026-06-27 09:46:43.256,995.29,995.19,-10.32,-4.23,0.00,1.03,0.15,9.27,0.00,-0.00,0.00,0.00
2026-06-27 09:46:43.257,995.29,995.19,-10.32,-4.23,0.00,1.03,0.15,9.27,0.00,-0.00,0.00,0.00
2026-06-27 09:46:43.258,995.29,995.19,-10.32,-4.23,0.00,1.03,0.15,9.27,0.00,-0.00,0.00,0.00
2026-06-27 09:46:43.260,995.29,995.19,-10.32,-4.23,0.00,1.03,0.15,9.27,0.00,-0.00,0.00,0.00
2026-06-27 09:46:43.261,995.29,995.19,-10.32,-4.23,0.00,1.03,0.15,9.27,0.00,-0.00,0.00,0.00
2026-06-27 09:46:43.263,995.29,995.19,-10.32,-4.23,0.00,1.02,0.19,9.30,0.00,-0.00,0.00,0.00
2026-06-27 09:46:43.265,995.29,995.19,-10.32,-4.23,0.00,1.02,0.19,9.30,0.00,-0.00,0.00,0.00
2026-06-27 09:46:43.267,995.29,995.19,-10.32,-4.23,0.00,1.02,0.19,9.30,0.00,-0.00,0.00,0.00
2026-06-27 09:46:43.273,995.29,995.19,-10.32,-4.23,0.00,1.02,0.19,9.30,0.00,-0.00,0.00,0.00
2026-06-27 09:46:43.275,995.29,995.19,-10.32,-4.23,0.00,1.02,0.18,9.30,0.00,-0.00,0.00,0.00
2026-06-27 09:46:43.277,995.29,995.19,-10.32,-4.23,0.00,1.02,0.18,9.30,0.00,-0.00,0.00,0.00
2026-06-27 09:46:43.281,995.29,995.19,-10.32,-4.23,0.00,1.02,0.18,9.30,0.00,-0.00,0.00,0.00
2026-06-27 09:46:43.424,995.31,995.19,-11.86,-4.54,0.00,1.02,0.18,9.28,0.00,-0.00,0.00,0.00
2026-06-27 09:46:43.427,995.31,995.19,-11.86,-4.54,0.00,1.02,0.18,9.28,0.00,-0.00,0.00,0.00
2026-06-27 09:46:43.433,995.31,995.19,-11.86,-4.54,0.00,1.02,0.18,9.28,0.00,-0.00,0.00,0.00
2026-06-27 09:46:43.440,995.31,995.19,-11.86,-4.54,0.00,1.01,0.20,9.26,0.00,-0.00,-0.00,0.00
2026-06-27 09:46:43.443,995.31,995.19,-11.86,-4.54,0.00,1.01,0.20,9.26,0.00,-0.00,0.00,0.00
2026-06-27 09:46:43.445,995.31,995.19,-11.86,-4.54,0.00,1.02,0.19,9.27,0.00,-0.00,0.00,0.00
2026-06-27 09:46:43.446,995.31,995.19,-11.86,-4.54,0.00,1.02,0.19,9.27,0.00,-0.00,0.00,0.00
2026-06-27 09:46:43.447,995.31,995.19,-11.86,-4.54,0.00,1.02,0.19,9.27,0.00,-0.00,0.00,0.00
2026-06-27 09:46:43.453,995.31,995.19,-11.86,-4.54,0.00,1.02,0.19,9.27,0.00,-0.00,0.00,0.00
2026-06-27 09:46:43.455,995.31,995.19,-11.86,-4.54,0.00,1.01,0.15,9.27,0.00,0.00,0.00,0.00
2026-06-27 09:46:43.456,995.31,995.19,-11.86,-4.54,0.00,1.01,0.15,9.27,0.00,0.00,0.00,0.00
2026-06-27 09:46:43.458,995.31,995.19,-11.86,-4.54,0.00,1.01,0.15,9.27,0.00,0.00,0.00,0.00
2026-06-27 09:46:43.459,995.31,995.19,-11.86,-4.54,0.00,1.01,0.15,9.27,0.00,0.00,0.00,0.00
2026-06-27 09:46:43.594,995.29,995.18,-10.50,-4.27,0.00,1.05,0.17,9.29,0.00,0.00,-0.00,0.00
2026-06-27 09:46:43.595,995.29,995.18,-10.50,-4.27,0.00,1.05,0.17,9.29,0.00,0.00,-0.00,0.00
2026-06-27 09:46:43.597,995.29,995.18,-10.50,-4.27,0.00,1.05,0.17,9.29,0.00,0.00,-0.00,0.00
2026-06-27 09:46:43.598,995.29,995.18,-10.50,-4.27,0.00,1.05,0.17,9.29,0.00,0.00,-0.00,0.00
2026-06-27 09:46:43.604,995.29,995.18,-10.50,-4.27,0.00,1.05,0.17,9.29,-0.00,-0.00,0.00,0.00
2026-06-27 09:46:43.607,995.29,995.18,-10.50,-4.27,0.00,1.03,0.19,9.28,-0.00,-0.00,0.00,0.00
2026-06-27 09:46:43.609,995.29,995.18,-10.50,-4.27,0.00,1.03,0.19,9.28,-0.00,-0.00,0.00,0.00
2026-06-27 09:46:43.610,995.29,995.18,-10.50,-4.27,0.00,1.03,0.19,9.28,-0.00,-0.00,0.00,0.00
2026-06-27 09:46:43.613,995.29,995.18,-10.50,-4.27,0.00,1.03,0.19,9.28,-0.00,-0.00,0.00,0.00
2026-06-27 09:46:43.615,995.29,995.18,-10.50,-4.27,0.00,1.02,0.18,9.28,-0.00,-0.00,0.00,0.00
2026-06-27 09:46:43.616,995.29,995.18,-10.50,-4.27,0.00,1.02,0.18,9.28,-0.00,-0.00,0.00,0.00
2026-06-27 09:46:43.623,995.29,995.18,-10.50,-4.27,0.00,1.02,0.18,9.28,-0.00,-0.00,0.00,0.00
2026-06-27 09:46:43.624,995.29,995.18,-10.50,-4.27,0.00,1.03,0.18,9.30,0.00,0.00,0.00,0.00
2026-06-27 09:46:43.626,995.29,995.18,-10.50,-4.27,0.00,1.03,0.18,9.30,0.00,0.00,0.00,0.00
2026-06-27 09:46:43.627,995.29,995.18,-10.50,-4.27,0.00,1.03,0.18,9.30,0.00,0.00,0.00,0.00
2026-06-27 09:46:43.628,995.29,995.18,-10.50,-4.27,0.00,1.03,0.18,9.30,0.00,0.00,0.00,0.00
2026-06-27 09:46:43.634,995.29,995.18,-10.50,-4.27,0.00,1.03,0.18,9.30,0.00,0.00,0.00,0.00
2026-06-27 09:46:43.778,995.30,995.21,-9.40,-4.04,0.00,1.04,0.17,9.31,-0.00,0.00,0.00,0.00
2026-06-27 09:46:43.784,995.30,995.21,-9.40,-4.04,0.00,1.04,0.17,9.31,-0.00,0.00,0.00,0.00
2026-06-27 09:46:43.786,995.30,995.21,-9.40,-4.04,0.00,1.02,0.19,9.30,0.00,-0.00,-0.00,0.00
2026-06-27 09:46:43.787,995.30,995.21,-9.40,-4.04,0.00,1.02,0.19,9.30,0.00,-0.00,-0.00,0.00
2026-06-27 09:46:43.792,995.30,995.21,-9.40,-4.04,0.00,1.02,0.19,9.30,0.00,-0.00,-0.00,0.00
2026-06-27 09:46:43.794,995.30,995.21,-9.40,-4.04,0.00,1.02,0.19,9.30,0.00,0.00,0.00,0.00
2026-06-27 09:46:43.796,995.30,995.21,-9.40,-4.04,0.00,1.03,0.16,9.29,0.00,0.00,0.00,0.00
2026-06-27 09:46:43.797,995.30,995.21,-9.40,-4.04,0.00,1.03,0.16,9.29,0.00,0.00,0.00,0.00
2026-06-27 09:46:43.798,995.30,995.21,-9.40,-4.04,0.00,1.03,0.16,9.29,0.00,0.00,0.00,0.00
2026-06-27 09:46:43.805,995.30,995.21,-9.40,-4.04,0.00,1.03,0.16,9.29,-0.00,-0.00,0.00,0.00
2026-06-27 09:46:43.807,995.30,995.21,-9.40,-4.04,0.00,1.05,0.19,9.28,-0.00,-0.00,0.00,0.00
2026-06-27 09:46:43.809,995.30,995.21,-9.40,-4.04,0.00,1.05,0.19,9.28,-0.00,-0.00,0.00,0.00
2026-06-27 09:46:43.810,995.30,995.21,-9.40,-4.04,0.00,1.05,0.19,9.28,-0.00,-0.00,0.00,0.00
2026-06-27 09:46:43.812,995.30,995.21,-9.40,-4.04,0.00,1.05,0.19,9.28,-0.00,-0.00,0.00,0.00
2026-06-27 09:46:43.814,995.30,995.21,-9.40,-4.04,0.00,1.05,0.19,9.28,0.00,0.00,-0.00,0.00
2026-06-27 09:46:43.955,995.30,995.19,-11.38,-4.45,0.00,1.02,0.18,9.28,-0.00,0.00,-0.00,0.00
2026-06-27 09:46:43.957,995.30,995.19,-11.38,-4.45,0.00,1.01,0.18,9.30,-0.00,0.00,-0.00,0.00
2026-06-27 09:46:43.959,995.30,995.19,-11.38,-4.45,0.00,1.01,0.18,9.30,-0.00,0.00,-0.00,0.00
2026-06-27 09:46:43.960,995.30,995.19,-11.38,-4.45,0.00,1.01,0.18,9.30,-0.00,0.00,-0.00,0.00
2026-06-27 09:46:43.962,995.30,995.19,-11.38,-4.45,0.00,1.01,0.18,9.30,-0.00,0.00,-0.00,0.00
2026-06-27 09:46:43.965,995.30,995.19,-11.38,-4.45,0.00,1.01,0.18,9.30,-0.00,0.00,0.00,0.00
2026-06-27 09:46:43.968,995.30,995.19,-11.38,-4.45,0.00,1.03,0.19,9.30,-0.00,0.00,0.00,0.00
2026-06-27 09:46:43.974,995.30,995.19,-11.38,-4.45,0.00,1.03,0.19,9.30,-0.00,0.00,0.00,0.00
2026-06-27 09:46:43.976,995.30,995.19,-11.38,-4.45,0.00,1.03,0.18,9.29,-0.00,-0.00,0.00,0.00
2026-06-27 09:46:43.978,995.30,995.19,-11.38,-4.45,0.00,1.03,0.18,9.29,-0.00,-0.00,0.00,0.00
2026-06-27 09:46:43.981,995.30,995.19,-11.38,-4.45,0.00,1.03,0.18,9.29,-0.00,-0.00,0.00,0.00
2026-06-27 09:46:43.985,995.30,995.19,-11.38,-4.45,0.00,1.03,0.18,9.29,0.00,0.00,-0.00,0.00
2026-06-27 09:46:43.987,995.30,995.19,-11.38,-4.45,0.00,1.02,0.19,9.27,0.00,0.00,-0.00,0.00
2026-06-27 09:46:43.993,995.30,995.19,-11.38,-4.45,0.00,1.02,0.19,9.27,0.00,0.00,-0.00,0.00
2026-06-27 09:46:44.135,995.30,995.19,-11.00,-4.37,0.00,1.01,0.18,9.27,-0.00,-0.00,0.00,0.00
2026-06-27 09:46:44.137,995.30,995.19,-11.00,-4.37,0.00,1.03,0.15,9.27,-0.00,-0.00,0.00,0.00
2026-06-27 09:46:44.139,995.30,995.19,-11.00,-4.37,0.00,1.03,0.15,9.27,-0.00,-0.00,0.00,0.00
2026-06-27 09:46:44.142,995.30,995.19,-11.00,-4.37,0.00,1.03,0.15,9.27,-0.00,-0.00,0.00,0.00
2026-06-27 09:46:44.145,995.30,995.19,-11.00,-4.37,0.00,1.03,0.15,9.27,-0.00,-0.00,0.00,0.00
2026-06-27 09:46:44.147,995.30,995.19,-11.00,-4.37,0.00,1.03,0.19,9.30,-0.00,-0.00,0.00,0.00
2026-06-27 09:46:44.148,995.30,995.19,-11.00,-4.37,0.00,1.03,0.19,9.30,-0.00,-0.00,0.00,0.00
2026-06-27 09:46:44.154,995.30,995.19,-11.00,-4.37,0.00,1.03,0.19,9.30,-0.00,-0.00,0.00,0.00
2026-06-27 09:46:44.156,995.30,995.19,-11.00,-4.37,0.00,1.03,0.19,9.31,0.00,0.00,0.00,0.00
2026-06-27 09:46:44.158,995.30,995.19,-11.00,-4.37,0.00,1.03,0.19,9.31,0.00,0.00,0.00,0.00
2026-06-27 09:46:44.159,995.30,995.19,-11.00,-4.37,0.00,1.03,0.19,9.31,0.00,0.00,0.00,0.00
2026-06-27 09:46:44.161,995.30,995.19,-11.00,-4.37,0.00,1.03,0.19,9.31,0.00,0.00,0.00,0.00
2026-06-27 09:46:44.162,995.30,995.19,-11.00,-4.37,0.00,1.03,0.19,9.31,0.00,0.00,0.00,0.00
2026-06-27 09:46:44.165,995.30,995.19,-11.00,-4.37,0.00,1.03,0.19,9.31,0.00,0.00,-0.00,0.00
2026-06-27 09:46:44.305,995.30,995.19,-10.55,-4.28,0.00,1.02,0.21,9.28,-0.00,-0.00,-0.00,0.00
2026-06-27 09:46:44.307,995.30,995.19,-10.55,-4.28,0.00,1.02,0.17,9.31,0.00,-0.00,-0.00,0.00
2026-06-27 09:46:44.309,995.30,995.19,-10.55,-4.28,0.00,1.02,0.17,9.31,0.00,-0.00,-0.00,0.00
2026-06-27 09:46:44.310,995.30,995.19,-10.55,-4.28,0.00,1.02,0.17,9.31,0.00,-0.00,-0.00,0.00
2026-06-27 09:46:44.312,995.30,995.19,-10.55,-4.28,0.00,1.02,0.17,9.31,0.00,-0.00,-0.00,0.00
2026-06-27 09:46:44.313,995.30,995.19,-10.55,-4.28,0.00,1.02,0.17,9.31,0.00,-0.00,-0.00,0.00
2026-06-27 09:46:44.316,995.30,995.19,-10.55,-4.28,0.00,1.02,0.17,9.31,-0.00,0.00,0.00,0.00
2026-06-27 09:46:44.319,995.30,995.19,-10.55,-4.28,0.00,1.03,0.19,9.30,-0.00,0.00,0.00,0.00
2026-06-27 09:46:44.325,995.30,995.19,-10.55,-4.28,0.00,1.03,0.19,9.30,-0.00,0.00,0.00,0.00
2026-06-27 09:46:44.327,995.30,995.19,-10.55,-4.28,0.00,1.02,0.18,9.27,0.00,-0.00,0.00,0.00
2026-06-27 09:46:44.328,995.30,995.19,-10.55,-4.28,0.00,1.02,0.18,9.27,0.00,-0.00,0.00,0.00
2026-06-27 09:46:44.329,995.30,995.19,-10.55,-4.28,0.00,1.02,0.18,9.27,0.00,-0.00,0.00,0.00
2026-06-27 09:46:44.332,995.30,995.19,-10.55,-4.28,0.00,1.02,0.18,9.27,0.00,-0.00,0.00,0.00
2026-06-27 09:46:44.336,995.30,995.19,-10.55,-4.28,0.00,1.02,0.18,9.27,-0.00,0.00,-0.00,0.00
2026-06-27 09:46:44.337,995.30,995.19,-10.55,-4.28,0.00,1.02,0.18,9.28,-0.00,0.00,-0.00,0.00
2026-06-27 09:46:44.338,995.30,995.19,-10.55,-4.28,0.00,1.02,0.18,9.28,-0.00,0.00,-0.00,0.00
2026-06-27 09:46:44.478,995.30,995.19,-11.77,-4.52,0.00,1.02,0.20,9.29,-0.00,-0.00,0.00,0.00
2026-06-27 09:46:44.480,995.30,995.19,-11.77,-4.52,0.00,1.02,0.20,9.29,-0.00,-0.00,0.00,0.00
2026-06-27 09:46:44.486,995.30,995.19,-11.77,-4.52,0.00,1.02,0.20,9.29,-0.00,-0.00,0.00,0.00
2026-06-27 09:46:44.487,995.30,995.19,-11.77,-4.52,0.00,1.02,0.18,9.27,0.00,-0.00,-0.00,0.00
2026-06-27 09:46:44.488,995.30,995.19,-11.77,-4.52,0.00,1.02,0.18,9.27,0.00,-0.00,-0.00,0.00
2026-06-27 09:46:44.492,995.30,995.19,-11.77,-4.52,0.00,1.02,0.18,9.27,0.00,-0.00,-0.00,0.00
2026-06-27 09:46:44.496,995.30,995.19,-11.77,-4.52,0.00,1.02,0.18,9.27,-0.00,0.00,0.00,0.00
2026-06-27 09:46:44.498,995.30,995.19,-11.77,-4.52,0.00,1.02,0.17,9.27,-0.00,0.00,0.00,0.00
2026-06-27 09:46:44.500,995.30,995.19,-11.77,-4.52,0.00,1.02,0.17,9.27,-0.00,0.00,0.00,0.00
2026-06-27 09:46:44.505,995.30,995.19,-11.77,-4.52,0.00,1.02,0.17,9.27,-0.00,0.00,0.00,0.00
2026-06-27 09:46:44.516,995.30,995.19,-11.77,-4.52,0.00,1.00,0.22,9.28,0.00,0.00,0.00,0.00
2026-06-27 09:46:44.657,995.31,995.19,-12.30,-4.62,0.00,1.03,0.18,9.30,0.00,-0.00,0.00,0.00
2026-06-27 09:46:44.659,995.31,995.19,-12.30,-4.62,0.00,1.03,0.18,9.30,0.00,-0.00,0.00,0.00
2026-06-27 09:46:44.660,995.31,995.19,-12.30,-4.62,0.00,1.03,0.18,9.30,0.00,-0.00,0.00,0.00
2026-06-27 09:46:44.661,995.31,995.19,-12.30,-4.62,0.00,1.03,0.18,9.30,0.00,-0.00,0.00,0.00
2026-06-27 09:46:44.662,995.31,995.19,-12.30,-4.62,0.00,1.03,0.18,9.30,0.00,-0.00,0.00,0.00
2026-06-27 09:46:44.663,995.31,995.19,-12.30,-4.62,0.00,1.03,0.18,9.30,0.00,-0.00,0.00,0.00
2026-06-27 09:46:44.665,995.31,995.19,-12.30,-4.62,0.00,1.03,0.18,9.30,0.00,-0.00,0.00,0.00
2026-06-27 09:46:44.667,995.31,995.19,-12.30,-4.62,0.00,1.01,0.21,9.32,0.00,-0.00,0.00,0.00
2026-06-27 09:46:44.669,995.31,995.19,-12.30,-4.62,0.00,1.01,0.21,9.32,0.00,-0.00,0.00,0.00
2026-06-27 09:46:44.670,995.31,995.19,-12.30,-4.62,0.00,1.01,0.21,9.32,0.00,-0.00,0.00,0.00
2026-06-27 09:46:44.675,995.31,995.19,-12.30,-4.62,0.00,1.01,0.21,9.32,0.00,-0.00,0.00,0.00
2026-06-27 09:46:44.677,995.31,995.19,-12.30,-4.62,0.00,1.00,0.20,9.28,0.00,0.00,0.00,0.00
2026-06-27 09:46:44.678,995.31,995.19,-12.30,-4.62,0.00,1.00,0.20,9.28,0.00,0.00,0.00,0.00
2026-06-27 09:46:44.679,995.31,995.19,-12.30,-4.62,0.00,1.00,0.20,9.28,0.00,0.00,0.00,0.00
2026-06-27 09:46:44.681,995.31,995.19,-12.30,-4.62,0.00,1.00,0.20,9.28,0.00,0.00,0.00,0.00
2026-06-27 09:46:44.686,995.31,995.19,-12.30,-4.62,0.00,1.00,0.20,9.28,0.00,0.00,0.00,0.00
2026-06-27 09:46:44.688,995.31,995.19,-12.30,-4.62,0.00,1.02,0.20,9.27,-0.00,-0.00,-0.00,0.00
2026-06-27 09:46:44.689,995.31,995.19,-12.30,-4.62,0.00,1.02,0.20,9.27,-0.00,-0.00,-0.00,0.00
2026-06-27 09:46:44.690,995.31,995.19,-12.30,-4.62,0.00,1.02,0.20,9.27,-0.00,-0.00,-0.00,0.00
2026-06-27 09:46:44.693,995.31,995.19,-12.30,-4.62,0.00,1.02,0.20,9.27,-0.00,-0.00,-0.00,0.00
2026-06-27 09:46:44.836,995.30,995.19,-10.89,-4.35,0.00,1.01,0.18,9.30,-0.00,0.00,0.00,0.00
2026-06-27 09:46:44.838,995.30,995.19,-10.89,-4.35,0.00,1.02,0.19,9.26,-0.00,0.00,0.00,0.00
2026-06-27 09:46:44.839,995.30,995.19,-10.89,-4.35,0.00,1.02,0.19,9.26,-0.00,0.00,0.00,0.00
2026-06-27 09:46:44.840,995.30,995.19,-10.89,-4.35,0.00,1.02,0.19,9.26,-0.00,0.00,0.00,0.00
2026-06-27 09:46:44.846,995.30,995.19,-10.89,-4.35,0.00,1.02,0.19,9.26,-0.00,0.00,0.00,0.00
2026-06-27 09:46:44.848,995.30,995.19,-10.89,-4.35,0.00,1.01,0.19,9.28,-0.00,0.00,0.00,0.00
2026-06-27 09:46:44.849,995.30,995.19,-10.89,-4.35,0.00,1.01,0.19,9.28,-0.00,0.00,0.00,0.00
2026-06-27 09:46:44.851,995.30,995.19,-10.89,-4.35,0.00,1.01,0.19,9.28,-0.00,0.00,0.00,0.00
2026-06-27 09:46:44.857,995.30,995.19,-10.89,-4.35,0.00,1.01,0.19,9.28,-0.00,0.00,0.00,0.00
2026-06-27 09:46:44.858,995.30,995.19,-10.89,-4.35,0.00,1.02,0.18,9.28,-0.00,0.00,-0.00,0.00
2026-06-27 09:46:44.859,995.30,995.19,-10.89,-4.35,0.00,1.02,0.18,9.28,-0.00,0.00,-0.00,0.00
2026-06-27 09:46:44.861,995.30,995.19,-10.89,-4.35,0.00,1.02,0.18,9.28,-0.00,0.00,-0.00,0.00
2026-06-27 09:46:44.862,995.30,995.19,-10.89,-4.35,0.00,1.02,0.18,9.28,-0.00,0.00,-0.00,0.00
2026-06-27 09:46:44.863,995.30,995.19,-10.89,-4.35,0.00,1.02,0.18,9.28,-0.00,0.00,-0.00,0.00
2026-06-27 09:46:44.864,995.30,995.19,-10.89,-4.35,0.00,1.02,0.18,9.28,-0.00,0.00,-0.00,0.00
2026-06-27 09:46:44.867,995.30,995.19,-10.89,-4.35,0.00,1.02,0.18,9.28,-0.00,0.00,-0.00,0.00
2026-06-27 09:46:45.008,995.31,995.20,-11.52,-4.47,0.00,1.03,0.20,9.30,-0.00,-0.00,0.00,0.00
2026-06-27 09:46:45.009,995.31,995.20,-11.52,-4.47,0.00,1.03,0.20,9.30,-0.00,-0.00,0.00,0.00
2026-06-27 09:46:45.011,995.31,995.20,-11.52,-4.47,0.00,1.03,0.20,9.30,-0.00,-0.00,0.00,0.00
2026-06-27 09:46:45.013,995.31,995.20,-11.52,-4.47,0.00,1.03,0.20,9.30,-0.00,-0.00,0.00,0.00
2026-06-27 09:46:45.015,995.31,995.20,-11.52,-4.47,0.00,1.03,0.20,9.30,-0.00,-0.00,0.00,0.00
2026-06-27 09:46:45.018,995.31,995.20,-11.52,-4.47,0.00,1.03,0.20,9.30,0.00,-0.00,0.00,0.00
2026-06-27 09:46:45.019,995.31,995.20,-11.52,-4.47,0.00,1.01,0.20,9.27,0.00,-0.00,0.00,0.00
2026-06-27 09:46:45.021,995.31,995.20,-11.52,-4.47,0.00,1.01,0.20,9.27,0.00,-0.00,0.00,0.00
2026-06-27 09:46:45.023,995.31,995.20,-11.52,-4.47,0.00,1.01,0.20,9.27,0.00,-0.00,0.00,0.00
2026-06-27 09:46:45.027,995.31,995.20,-11.52,-4.47,0.00,1.01,0.20,9.27,-0.00,0.00,-0.00,0.00
2026-06-27 09:46:45.029,995.31,995.20,-11.52,-4.47,0.00,1.05,0.20,9.28,-0.00,0.00,-0.00,0.00
2026-06-27 09:46:45.030,995.31,995.20,-11.52,-4.47,0.00,1.05,0.20,9.28,-0.00,0.00,-0.00,0.00
2026-06-27 09:46:45.031,995.31,995.20,-11.52,-4.47,0.00,1.05,0.20,9.28,-0.00,0.00,-0.00,0.00
2026-06-27 09:46:45.034,995.31,995.20,-11.52,-4.47,0.00,1.05,0.20,9.28,-0.00,0.00,-0.00,0.00
2026-06-27 09:46:45.038,995.31,995.20,-11.52,-4.47,0.00,1.05,0.20,9.28,-0.00,0.00,-0.00,0.00
2026-06-27 09:46:45.039,995.31,995.20,-11.52,-4.47,0.00,1.02,0.18,9.26,-0.00,0.00,-0.00,0.00
2026-06-27 09:46:45.041,995.31,995.20,-11.52,-4.47,0.00,1.02,0.18,9.26,-0.00,0.00,-0.00,0.00
2026-06-27 09:46:45.042,995.31,995.20,-11.52,-4.47,0.00,1.02,0.18,9.26,-0.00,0.00,-0.00,0.00
2026-06-27 09:46:45.045,995.31,995.20,-11.52,-4.47,0.00,1.02,0.18,9.26,-0.00,0.00,-0.00,0.00
2026-06-27 09:46:45.188,995.29,995.20,-8.86,-3.92,0.00,1.00,0.17,9.29,-0.00,0.00,0.00,0.00
2026-06-27 09:46:45.189,995.29,995.20,-8.86,-3.92,0.00,1.03,0.19,9.27,0.00,0.00,-0.00,0.00
2026-06-27 09:46:45.190,995.29,995.20,-8.86,-3.92,0.00,1.03,0.19,9.27,0.00,0.00,-0.00,0.00
2026-06-27 09:46:45.191,995.29,995.20,-8.86,-3.92,0.00,1.03,0.19,9.27,0.00,0.00,-0.00,0.00
2026-06-27 09:46:45.193,995.29,995.20,-8.86,-3.92,0.00,1.03,0.19,9.27,0.00,0.00,-0.00,0.00
2026-06-27 09:46:45.197,995.29,995.20,-8.86,-3.92,0.00,1.03,0.19,9.27,0.00,-0.00,0.00,0.00
2026-06-27 09:46:45.199,995.29,995.20,-8.86,-3.92,0.00,1.02,0.18,9.28,0.00,-0.00,0.00,0.00
2026-06-27 09:46:45.201,995.29,995.20,-8.86,-3.92,0.00,1.02,0.18,9.28,0.00,-0.00,0.00,0.00
2026-06-27 09:46:45.202,995.29,995.20,-8.86,-3.92,0.00,1.02,0.18,9.28,0.00,-0.00,0.00,0.00
2026-06-27 09:46:45.208,995.29,995.20,-8.86,-3.92,0.00,1.02,0.18,9.28,0.00,-0.00,0.00,0.00
2026-06-27 09:46:45.210,995.29,995.20,-8.86,-3.92,0.00,1.03,0.18,9.30,0.00,-0.00,0.00,0.00
2026-06-27 09:46:45.211,995.29,995.20,-8.86,-3.92,0.00,1.03,0.18,9.30,0.00,-0.00,0.00,0.00
2026-06-27 09:46:45.213,995.29,995.20,-8.86,-3.92,0.00,1.03,0.18,9.30,0.00,-0.00,0.00,0.00
2026-06-27 09:46:45.214,995.29,995.20,-8.86,-3.92,0.00,1.03,0.18,9.30,0.00,-0.00,0.00,0.00
2026-06-27 09:46:45.215,995.29,995.20,-8.86,-3.92,0.00,1.03,0.18,9.30,0.00,-0.00,0.00,0.00
2026-06-27 09:46:45.218,995.29,995.20,-8.86,-3.92,0.00,1.03,0.18,9.30,-0.00,0.00,0.00,0.00
2026-06-27 09:46:45.225,995.29,995.20,-8.86,-3.92,0.00,1.02,0.17,9.28,-0.00,0.00,0.00,0.00
2026-06-27 09:46:45.370,995.31,995.19,-11.38,-4.45,0.00,1.01,0.16,9.29,0.00,-0.00,0.00,0.00
2026-06-27 09:46:45.372,995.31,995.19,-11.38,-4.45,0.00,1.02,0.17,9.29,0.00,-0.00,0.00,0.00
2026-06-27 09:46:45.377,995.31,995.19,-11.38,-4.45,0.00,1.02,0.17,9.29,0.00,-0.00,0.00,0.00
2026-06-27 09:46:45.379,995.31,995.19,-11.38,-4.45,0.00,1.03,0.18,9.31,0.00,0.00,0.00,0.00
2026-06-27 09:46:45.380,995.31,995.19,-11.38,-4.45,0.00,1.03,0.18,9.31,0.00,0.00,0.00,0.00
2026-06-27 09:46:45.381,995.31,995.19,-11.38,-4.45,0.00,1.03,0.18,9.31,0.00,0.00,0.00,0.00
2026-06-27 09:46:45.383,995.31,995.19,-11.38,-4.45,0.00,1.03,0.18,9.31,0.00,0.00,0.00,0.00
2026-06-27 09:46:45.388,995.31,995.19,-11.38,-4.45,0.00,1.03,0.18,9.31,0.00,0.00,0.00,0.00
2026-06-27 09:46:45.389,995.31,995.19,-11.38,-4.45,0.00,1.04,0.19,9.30,0.00,0.00,-0.00,0.00
2026-06-27 09:46:45.391,995.31,995.19,-11.38,-4.45,0.00,1.04,0.19,9.30,0.00,0.00,-0.00,0.00
2026-06-27 09:46:45.392,995.31,995.19,-11.38,-4.45,0.00,1.04,0.19,9.30,0.00,0.00,-0.00,0.00
2026-06-27 09:46:45.393,995.31,995.19,-11.38,-4.45,0.00,1.04,0.19,9.30,0.00,0.00,-0.00,0.00
2026-06-27 09:46:45.398,995.31,995.19,-11.38,-4.45,0.00,1.04,0.19,9.30,0.00,0.00,-0.00,0.00
2026-06-27 09:46:45.400,995.31,995.19,-11.38,-4.45,0.00,1.03,0.19,9.30,-0.00,0.00,0.00,0.00
2026-06-27 09:46:45.401,995.31,995.19,-11.38,-4.45,0.00,1.03,0.19,9.30,-0.00,0.00,0.00,0.00
2026-06-27 09:46:45.541,995.32,995.20,-12.55,-4.67,0.00,1.03,0.18,9.29,-0.00,0.00,-0.00,0.00
2026-06-27 09:46:45.542,995.32,995.20,-12.55,-4.67,0.00,1.03,0.18,9.29,-0.00,0.00,-0.00,0.00
2026-06-27 09:46:45.544,995.32,995.20,-12.55,-4.67,0.00,1.03,0.18,9.29,-0.00,0.00,-0.00,0.00
2026-06-27 09:46:45.550,995.32,995.20,-12.55,-4.67,0.00,1.03,0.18,9.29,-0.00,0.00,-0.00,0.00
2026-06-27 09:46:45.552,995.32,995.20,-12.55,-4.67,0.00,1.03,0.17,9.27,0.00,-0.00,0.00,0.00
2026-06-27 09:46:45.558,995.32,995.20,-12.55,-4.67,0.00,1.03,0.17,9.27,0.00,-0.00,0.00,0.00
2026-06-27 09:46:45.560,995.32,995.20,-12.55,-4.67,0.00,1.03,0.17,9.28,0.00,0.00,0.00,0.00
2026-06-27 09:46:45.561,995.32,995.20,-12.55,-4.67,0.00,1.03,0.17,9.28,0.00,0.00,0.00,0.00
2026-06-27 09:46:45.562,995.32,995.20,-12.55,-4.67,0.00,1.03,0.17,9.28,0.00,0.00,0.00,0.00
2026-06-27 09:46:45.565,995.32,995.20,-12.55,-4.67,0.00,1.03,0.17,9.28,0.00,0.00,0.00,0.00
2026-06-27 09:46:45.566,995.32,995.20,-12.55,-4.67,0.00,1.03,0.17,9.28,0.00,0.00,0.00,0.00
2026-06-27 09:46:45.570,995.32,995.20,-12.55,-4.67,0.00,1.03,0.17,9.28,-0.00,0.00,0.00,0.00
2026-06-27 09:46:45.577,995.32,995.20,-12.55,-4.67,0.00,1.00,0.16,9.32,-0.00,0.00,0.00,0.00
2026-06-27 09:46:45.720,995.28,995.20,-8.44,-3.83,0.00,1.89,0.36,9.24,0.00,0.00,-0.01,0.00
2026-06-27 09:46:45.721,995.28,995.20,-8.44,-3.83,0.00,1.89,0.36,9.24,0.00,0.00,-0.01,0.00
2026-06-27 09:46:45.722,995.28,995.20,-8.44,-3.83,0.00,1.89,0.36,9.24,0.00,0.00,-0.01,0.00
2026-06-27 09:46:45.726,995.28,995.20,-8.44,-3.83,0.00,1.89,0.36,9.24,0.00,0.00,-0.01,0.00
2026-06-27 09:46:45.729,995.28,995.20,-8.44,-3.83,0.00,1.89,0.36,9.24,0.00,0.01,-0.01,0.00
2026-06-27 09:46:45.732,995.28,995.20,-8.44,-3.83,0.00,1.05,-0.05,9.29,0.00,0.01,-0.01,0.00
2026-06-27 09:46:45.739,995.28,995.20,-8.44,-3.83,0.00,1.05,-0.05,9.29,0.00,0.01,-0.01,0.00
2026-06-27 09:46:45.740,995.28,995.20,-8.44,-3.83,0.00,0.29,-0.01,9.26,0.00,-0.00,-0.01,0.00
2026-06-27 09:46:45.741,995.28,995.20,-8.44,-3.83,0.00,0.29,-0.01,9.26,0.00,-0.00,-0.01,0.00
2026-06-27 09:46:45.742,995.28,995.20,-8.44,-3.83,0.00,0.29,-0.01,9.26,0.00,-0.00,-0.01,0.00
2026-06-27 09:46:45.744,995.28,995.20,-8.44,-3.83,0.00,0.29,-0.01,9.26,0.00,-0.00,-0.01,0.00
2026-06-27 09:46:45.748,995.28,995.20,-8.44,-3.83,0.00,0.29,-0.01,9.26,0.00,-0.00,-0.01,0.00
2026-06-27 09:46:45.750,995.28,995.20,-8.44,-3.83,0.00,1.36,-0.04,9.33,0.00,0.01,-0.01,0.00
2026-06-27 09:46:45.751,995.28,995.20,-8.44,-3.83,0.00,1.36,-0.04,9.33,0.00,0.01,-0.01,0.00
2026-06-27 09:46:45.759,995.28,995.20,-8.44,-3.83,0.00,1.36,-0.04,9.33,0.00,0.01,-0.01,0.00
2026-06-27 09:46:45.900,995.30,995.20,-10.72,-4.31,0.00,0.68,0.13,9.26,0.00,0.00,0.00,0.00
2026-06-27 09:46:45.902,995.30,995.20,-10.72,-4.31,0.00,0.68,0.13,9.26,0.00,0.00,0.00,0.00
2026-06-27 09:46:45.905,995.30,995.20,-10.72,-4.31,0.00,0.68,0.13,9.26,0.00,0.00,0.00,0.00
2026-06-27 09:46:45.910,995.30,995.20,-10.72,-4.31,0.00,0.68,0.13,9.26,0.00,0.00,-0.00,0.00
2026-06-27 09:46:45.912,995.30,995.20,-10.72,-4.31,0.00,0.80,0.16,9.22,0.00,0.00,-0.00,0.00
2026-06-27 09:46:45.914,995.30,995.20,-10.72,-4.31,0.00,0.80,0.16,9.22,0.00,0.00,-0.00,0.00
2026-06-27 09:46:45.915,995.30,995.20,-10.72,-4.31,0.00,0.80,0.16,9.22,0.00,0.00,-0.00,0.00
2026-06-27 09:46:45.917,995.30,995.20,-10.72,-4.31,0.00,0.80,0.16,9.22,0.00,0.00,-0.00,0.00
2026-06-27 09:46:45.920,995.30,995.20,-10.72,-4.31,0.00,0.80,0.16,9.22,-0.00,0.00,0.00,0.00
2026-06-27 09:46:45.926,995.30,995.20,-10.72,-4.31,0.00,1.22,0.28,9.30,-0.00,0.00,0.00,0.00
2026-06-27 09:46:45.930,995.30,995.20,-10.72,-4.31,0.00,1.22,0.28,9.30,-0.00,-0.00,0.00,0.00
2026-06-27 09:46:45.931,995.30,995.20,-10.72,-4.31,0.00,1.02,0.25,9.39,-0.00,-0.00,0.00,0.00
2026-06-27 09:46:45.932,995.30,995.20,-10.72,-4.31,0.00,1.02,0.25,9.39,-0.00,-0.00,0.00,0.00
2026-06-27 09:46:45.934,995.30,995.20,-10.72,-4.31,0.00,1.02,0.25,9.39,-0.00,-0.00,0.00,0.00
2026-06-27 09:46:46.080,995.31,995.20,-10.98,-4.37,0.00,0.89,0.19,9.28,0.00,0.01,-0.01,0.00
2026-06-27 09:46:46.081,995.31,995.20,-10.98,-4.37,0.00,0.70,0.13,9.22,0.00,0.01,-0.01,0.00
2026-06-27 09:46:46.086,995.31,995.20,-10.98,-4.37,0.00,0.70,0.13,9.22,0.00,0.01,-0.01,0.00
2026-06-27 09:46:46.090,995.31,995.20,-10.98,-4.37,0.00,0.70,0.13,9.22,0.00,0.02,-0.00,0.00
2026-06-27 09:46:46.092,995.31,995.20,-10.98,-4.37,0.00,0.90,0.06,9.27,0.00,0.02,-0.00,0.00
2026-06-27 09:46:46.093,995.31,995.20,-10.98,-4.37,0.00,0.90,0.06,9.27,0.00,0.02,-0.00,0.00
2026-06-27 09:46:46.095,995.31,995.20,-10.98,-4.37,0.00,0.90,0.06,9.27,0.00,0.02,-0.00,0.00
2026-06-27 09:46:46.100,995.31,995.20,-10.98,-4.37,0.00,0.90,0.06,9.27,0.00,0.02,-0.00,0.00
2026-06-27 09:46:46.105,995.31,995.20,-10.98,-4.37,0.00,1.38,0.00,9.40,0.00,0.02,-0.01,0.00
2026-06-27 09:46:46.110,995.31,995.20,-10.98,-4.37,0.00,1.38,0.00,9.40,0.00,0.03,-0.02,0.00
2026-06-27 09:46:46.251,995.30,995.19,-11.00,-4.37,0.00,1.17,0.24,9.31,0.02,0.17,-0.02,0.00
2026-06-27 09:46:46.253,995.30,995.19,-11.00,-4.37,0.00,1.17,0.24,9.31,0.02,0.17,-0.02,0.00
2026-06-27 09:46:46.254,995.30,995.19,-11.00,-4.37,0.00,1.17,0.24,9.31,0.02,0.17,-0.02,0.00
2026-06-27 09:46:46.256,995.30,995.19,-11.00,-4.37,0.00,1.17,0.24,9.31,0.02,0.17,-0.02,0.00
2026-06-27 09:46:46.260,995.30,995.19,-11.00,-4.37,0.00,1.17,0.24,9.31,0.02,0.17,-0.02,0.00
2026-06-27 09:46:46.262,995.30,995.19,-11.00,-4.37,0.00,1.18,0.19,9.40,0.02,0.18,-0.03,0.00
2026-06-27 09:46:46.263,995.30,995.19,-11.00,-4.37,0.00,1.18,0.19,9.40,0.02,0.18,-0.03,0.00
2026-06-27 09:46:46.264,995.30,995.19,-11.00,-4.37,0.00,1.18,0.19,9.40,0.02,0.18,-0.03,0.00
2026-06-27 09:46:46.266,995.30,995.19,-11.00,-4.37,0.00,1.18,0.19,9.40,0.02,0.18,-0.03,0.00
2026-06-27 09:46:46.267,995.30,995.19,-11.00,-4.37,0.00,1.18,0.19,9.40,0.02,0.18,-0.03,0.00
2026-06-27 09:46:46.269,995.30,995.19,-11.00,-4.37,0.00,1.18,0.19,9.40,0.02,0.18,-0.03,0.00
2026-06-27 09:46:46.271,995.30,995.19,-11.00,-4.37,0.00,1.18,0.19,9.40,0.02,0.18,-0.03,0.00
2026-06-27 09:46:46.273,995.30,995.19,-11.00,-4.37,0.00,1.03,0.23,9.36,0.02,0.17,-0.03,0.00
2026-06-27 09:46:46.274,995.30,995.19,-11.00,-4.37,0.00,1.03,0.23,9.36,0.02,0.17,-0.03,0.00
2026-06-27 09:46:46.275,995.30,995.19,-11.00,-4.37,0.00,1.03,0.23,9.36,0.02,0.17,-0.03,0.00
2026-06-27 09:46:46.277,995.30,995.19,-11.00,-4.37,0.00,1.03,0.23,9.36,0.02,0.17,-0.03,0.00
2026-06-27 09:46:46.278,995.30,995.19,-11.00,-4.37,0.00,1.03,0.23,9.36,0.02,0.17,-0.03,0.00
2026-06-27 09:46:46.279,995.30,995.19,-11.00,-4.37,0.00,1.03,0.23,9.36,0.02,0.17,-0.03,0.00
2026-06-27 09:46:46.281,995.30,995.19,-11.00,-4.37,0.00,1.03,0.23,9.36,0.02,0.17,-0.03,0.00
2026-06-27 09:46:46.282,995.30,995.19,-11.00,-4.37,0.00,0.69,0.34,9.19,0.02,0.18,-0.04,0.00
2026-06-27 09:46:46.284,995.30,995.19,-11.00,-4.37,0.00,0.69,0.34,9.19,0.02,0.18,-0.04,0.00
2026-06-27 09:46:46.285,995.30,995.19,-11.00,-4.37,0.00,0.69,0.34,9.19,0.02,0.18,-0.04,0.00
2026-06-27 09:46:46.288,995.30,995.19,-11.00,-4.37,0.00,0.69,0.34,9.19,0.02,0.18,-0.04,0.00
2026-06-27 09:46:46.424,995.31,995.20,-10.41,-4.25,0.00,0.68,0.26,9.28,0.02,0.16,-0.02,0.00
2026-06-27 09:46:46.425,995.31,995.20,-10.41,-4.25,0.00,0.68,0.26,9.28,0.02,0.16,-0.02,0.00
2026-06-27 09:46:46.427,995.31,995.20,-10.41,-4.25,0.00,0.68,0.26,9.28,0.02,0.16,-0.02,0.00
2026-06-27 09:46:46.428,995.31,995.20,-10.41,-4.25,0.00,0.68,0.26,9.28,0.02,0.16,-0.02,0.00
2026-06-27 09:46:46.429,995.31,995.20,-10.41,-4.25,0.00,0.68,0.26,9.28,0.02,0.16,-0.02,0.00
2026-06-27 09:46:46.431,995.31,995.20,-10.41,-4.25,0.00,0.68,0.26,9.28,0.02,0.16,-0.02,0.00
2026-06-27 09:46:46.432,995.31,995.20,-10.41,-4.25,0.00,0.67,0.27,9.32,0.02,0.16,-0.02,0.00
2026-06-27 09:46:46.434,995.31,995.20,-10.41,-4.25,0.00,0.67,0.27,9.32,0.02,0.16,-0.02,0.00
2026-06-27 09:46:46.436,995.31,995.20,-10.41,-4.25,0.00,0.67,0.27,9.32,0.02,0.16,-0.02,0.00
2026-06-27 09:46:46.437,995.31,995.20,-10.41,-4.25,0.00,0.67,0.27,9.32,0.02,0.16,-0.02,0.00
2026-06-27 09:46:46.439,995.31,995.20,-10.41,-4.25,0.00,0.67,0.27,9.32,0.02,0.16,-0.02,0.00
2026-06-27 09:46:46.442,995.31,995.20,-10.41,-4.25,0.00,0.67,0.27,9.32,0.02,0.16,-0.03,0.00
2026-06-27 09:46:46.444,995.31,995.20,-10.41,-4.25,0.00,0.67,0.26,9.32,0.02,0.16,-0.03,0.00
2026-06-27 09:46:46.445,995.31,995.20,-10.41,-4.25,0.00,0.67,0.26,9.32,0.02,0.16,-0.03,0.00
2026-06-27 09:46:46.446,995.31,995.20,-10.41,-4.25,0.00,0.67,0.26,9.32,0.02,0.16,-0.03,0.00
2026-06-27 09:46:46.450,995.31,995.20,-10.41,-4.25,0.00,0.67,0.26,9.32,0.02,0.16,-0.03,0.00
2026-06-27 09:46:46.453,995.31,995.20,-10.41,-4.25,0.00,0.69,0.27,9.37,0.02,0.16,-0.02,0.00
2026-06-27 09:46:46.455,995.31,995.20,-10.41,-4.25,0.00,0.69,0.27,9.37,0.02,0.16,-0.02,0.00
2026-06-27 09:46:46.457,995.31,995.20,-10.41,-4.25,0.00,0.69,0.27,9.37,0.02,0.16,-0.02,0.00
2026-06-27 09:46:46.461,995.31,995.20,-10.41,-4.25,0.00,0.69,0.27,9.37,0.02,0.17,-0.02,0.00
2026-06-27 09:46:46.462,995.31,995.20,-10.41,-4.25,0.00,0.64,0.29,9.31,0.02,0.17,-0.02,0.00
2026-06-27 09:46:46.464,995.31,995.20,-10.41,-4.25,0.00,0.64,0.29,9.31,0.02,0.17,-0.02,0.00
2026-06-27 09:46:46.605,995.30,995.19,-10.72,-4.32,0.00,0.25,0.26,9.29,0.02,0.19,-0.01,0.00
2026-06-27 09:46:46.610,995.30,995.19,-10.72,-4.32,0.00,0.25,0.26,9.29,0.02,0.19,-0.01,0.00
2026-06-27 09:46:46.612,995.30,995.19,-10.72,-4.32,0.00,0.13,0.31,9.35,0.02,0.19,-0.01,0.00
2026-06-27 09:46:46.613,995.30,995.19,-10.72,-4.32,0.00,0.13,0.31,9.35,0.02,0.19,-0.01,0.00
2026-06-27 09:46:46.615,995.30,995.19,-10.72,-4.32,0.00,0.13,0.31,9.35,0.02,0.19,-0.01,0.00
2026-06-27 09:46:46.616,995.30,995.19,-10.72,-4.32,0.00,0.13,0.31,9.35,0.02,0.19,-0.01,0.00
2026-06-27 09:46:46.618,995.30,995.19,-10.72,-4.32,0.00,0.13,0.31,9.35,0.02,0.19,-0.01,0.00
2026-06-27 09:46:46.619,995.30,995.19,-10.72,-4.32,0.00,0.13,0.31,9.35,0.02,0.19,-0.01,0.00
2026-06-27 09:46:46.621,995.30,995.19,-10.72,-4.32,0.00,0.13,0.31,9.35,0.02,0.19,-0.01,0.00
2026-06-27 09:46:46.622,995.30,995.19,-10.72,-4.32,0.00,0.14,0.30,9.39,0.02,0.19,-0.01,0.00
2026-06-27 09:46:46.623,995.30,995.19,-10.72,-4.32,0.00,0.14,0.30,9.39,0.02,0.19,-0.01,0.00
2026-06-27 09:46:46.625,995.30,995.19,-10.72,-4.32,0.00,0.14,0.30,9.39,0.02,0.19,-0.01,0.00
2026-06-27 09:46:46.626,995.30,995.19,-10.72,-4.32,0.00,0.14,0.30,9.39,0.02,0.19,-0.01,0.00
2026-06-27 09:46:46.627,995.30,995.19,-10.72,-4.32,0.00,0.14,0.30,9.39,0.02,0.19,-0.01,0.00
2026-06-27 09:46:46.628,995.30,995.19,-10.72,-4.32,0.00,0.14,0.30,9.39,0.02,0.19,-0.01,0.00
2026-06-27 09:46:46.629,995.30,995.19,-10.72,-4.32,0.00,0.14,0.30,9.39,0.02,0.19,-0.01,0.00
2026-06-27 09:46:46.631,995.30,995.19,-10.72,-4.32,0.00,0.14,0.30,9.39,0.02,0.19,-0.01,0.00
2026-06-27 09:46:46.632,995.30,995.19,-10.72,-4.32,0.00,0.18,0.30,9.39,0.02,0.19,-0.01,0.00
2026-06-27 09:46:46.634,995.30,995.19,-10.72,-4.32,0.00,0.18,0.30,9.39,0.02,0.19,-0.01,0.00
2026-06-27 09:46:46.635,995.30,995.19,-10.72,-4.32,0.00,0.18,0.30,9.39,0.02,0.19,-0.01,0.00
2026-06-27 09:46:46.637,995.30,995.19,-10.72,-4.32,0.00,0.18,0.30,9.39,0.02,0.19,-0.01,0.00
2026-06-27 09:46:46.638,995.30,995.19,-10.72,-4.32,0.00,0.18,0.30,9.39,0.02,0.19,-0.01,0.00
2026-06-27 09:46:46.639,995.30,995.19,-10.72,-4.32,0.00,0.18,0.30,9.39,0.02,0.19,-0.01,0.00
2026-06-27 09:46:46.779,995.31,995.18,-13.34,-4.81,0.00,0.02,0.26,9.41,0.02,0.14,-0.01,0.00
2026-06-27 09:46:46.781,995.31,995.18,-13.34,-4.81,0.00,0.02,0.26,9.41,0.02,0.14,-0.01,0.00
2026-06-27 09:46:46.782,995.31,995.18,-13.34,-4.81,0.00,0.05,0.25,9.38,0.02,0.14,-0.01,0.00
2026-06-27 09:46:46.784,995.31,995.18,-13.34,-4.81,0.00,0.05,0.25,9.38,0.02,0.14,-0.01,0.00
2026-06-27 09:46:46.786,995.31,995.18,-13.34,-4.81,0.00,0.05,0.25,9.38,0.02,0.14,-0.01,0.00
2026-06-27 09:46:46.787,995.31,995.18,-13.34,-4.81,0.00,0.05,0.25,9.38,0.02,0.14,-0.01,0.00
2026-06-27 09:46:46.788,995.31,995.18,-13.34,-4.81,0.00,0.05,0.25,9.38,0.02,0.14,-0.01,0.00
2026-06-27 09:46:46.792,995.31,995.18,-13.34,-4.81,0.00,0.05,0.25,9.38,0.02,0.13,-0.00,0.00
2026-06-27 09:46:46.793,995.31,995.18,-13.34,-4.81,0.00,-0.03,0.29,9.30,0.02,0.13,-0.00,0.00
2026-06-27 09:46:46.794,995.31,995.18,-13.34,-4.81,0.00,-0.03,0.29,9.30,0.02,0.13,-0.00,0.00
2026-06-27 09:46:46.796,995.31,995.18,-13.34,-4.81,0.00,-0.03,0.29,9.30,0.02,0.13,-0.00,0.00
2026-06-27 09:46:46.797,995.31,995.18,-13.34,-4.81,0.00,-0.03,0.29,9.30,0.02,0.13,-0.00,0.00
2026-06-27 09:46:46.801,995.31,995.18,-13.34,-4.81,0.00,-0.03,0.29,9.30,0.02,0.13,-0.00,0.00
2026-06-27 09:46:46.803,995.31,995.18,-13.34,-4.81,0.00,-0.10,0.28,9.34,0.02,0.13,-0.00,0.00
2026-06-27 09:46:46.804,995.31,995.18,-13.34,-4.81,0.00,-0.10,0.28,9.34,0.02,0.13,-0.00,0.00
2026-06-27 09:46:46.806,995.31,995.18,-13.34,-4.81,0.00,-0.10,0.28,9.34,0.02,0.13,-0.00,0.00
2026-06-27 09:46:46.807,995.31,995.18,-13.34,-4.81,0.00,-0.10,0.28,9.34,0.02,0.13,-0.00,0.00
2026-06-27 09:46:46.812,995.31,995.18,-13.34,-4.81,0.00,-0.10,0.28,9.34,0.02,0.13,-0.00,0.00
2026-06-27 09:46:46.814,995.31,995.18,-13.34,-4.81,0.00,-0.13,0.28,9.40,0.01,0.13,-0.00,0.00
2026-06-27 09:46:46.815,995.31,995.18,-13.34,-4.81,0.00,-0.13,0.28,9.40,0.01,0.13,-0.00,0.00
2026-06-27 09:46:46.956,995.32,995.19,-13.04,-4.76,0.00,-0.20,0.35,9.39,0.01,0.03,-0.01,0.00
2026-06-27 09:46:46.962,995.32,995.19,-13.04,-4.76,0.00,-0.20,0.35,9.39,0.01,0.03,-0.01,0.00
2026-06-27 09:46:46.964,995.32,995.19,-13.04,-4.76,0.00,-0.19,0.36,9.35,0.00,0.03,-0.00,0.00
2026-06-27 09:46:46.965,995.32,995.19,-13.04,-4.76,0.00,-0.19,0.36,9.35,0.00,0.03,-0.00,0.00
2026-06-27 09:46:46.967,995.32,995.19,-13.04,-4.76,0.00,-0.19,0.36,9.35,0.00,0.03,-0.00,0.00
2026-06-27 09:46:46.969,995.32,995.19,-13.04,-4.76,0.00,-0.19,0.36,9.35,0.00,0.03,-0.00,0.00
2026-06-27 09:46:46.970,995.32,995.19,-13.04,-4.76,0.00,-0.19,0.36,9.35,0.00,0.03,-0.00,0.00
2026-06-27 09:46:46.971,995.32,995.19,-13.04,-4.76,0.00,-0.19,0.36,9.35,0.00,0.03,-0.00,0.00
2026-06-27 09:46:46.973,995.32,995.19,-13.04,-4.76,0.00,-0.26,0.36,9.35,0.00,0.03,-0.00,0.00
2026-06-27 09:46:46.974,995.32,995.19,-13.04,-4.76,0.00,-0.26,0.36,9.35,0.00,0.03,-0.00,0.00
2026-06-27 09:46:46.975,995.32,995.19,-13.04,-4.76,0.00,-0.26,0.36,9.35,0.00,0.03,-0.00,0.00
2026-06-27 09:46:46.976,995.32,995.19,-13.04,-4.76,0.00,-0.26,0.36,9.35,0.00,0.03,-0.00,0.00
2026-06-27 09:46:46.978,995.32,995.19,-13.04,-4.76,0.00,-0.26,0.36,9.35,0.00,0.03,-0.00,0.00
2026-06-27 09:46:46.979,995.32,995.19,-13.04,-4.76,0.00,-0.26,0.36,9.35,0.00,0.03,-0.00,0.00
2026-06-27 09:46:46.980,995.32,995.19,-13.04,-4.76,0.00,-0.26,0.36,9.35,0.00,0.03,-0.00,0.00
2026-06-27 09:46:46.983,995.32,995.19,-13.04,-4.76,0.00,-0.26,0.36,9.35,0.00,0.02,-0.01,0.00
2026-06-27 09:46:46.985,995.32,995.19,-13.04,-4.76,0.00,-0.24,0.38,9.37,0.00,0.02,-0.01,0.00
2026-06-27 09:46:46.987,995.32,995.19,-13.04,-4.76,0.00,-0.24,0.38,9.37,0.00,0.02,-0.01,0.00
2026-06-27 09:46:46.988,995.32,995.19,-13.04,-4.76,0.00,-0.24,0.38,9.37,0.00,0.02,-0.01,0.00
2026-06-27 09:46:46.989,995.32,995.19,-13.04,-4.76,0.00,-0.24,0.38,9.37,0.00,0.02,-0.01,0.00
2026-06-27 09:46:46.990,995.32,995.19,-13.04,-4.76,0.00,-0.24,0.38,9.37,0.00,0.02,-0.01,0.00
2026-06-27 09:46:46.992,995.32,995.19,-13.04,-4.76,0.00,-0.24,0.38,9.37,0.00,0.02,-0.01,0.00
2026-06-27 09:46:47.134,995.32,995.20,-12.14,-4.59,0.00,-0.20,0.38,9.37,0.00,0.01,0.00,0.00
2026-06-27 09:46:47.136,995.32,995.20,-12.14,-4.59,0.00,-0.20,0.38,9.37,0.00,0.01,0.00,0.00
2026-06-27 09:46:47.142,995.32,995.20,-12.14,-4.59,0.00,-0.20,0.38,9.37,0.00,0.01,0.00,0.00
2026-06-27 09:46:47.143,995.32,995.20,-12.14,-4.59,0.00,-0.20,0.38,9.38,0.00,0.00,0.00,0.00
2026-06-27 09:46:47.145,995.32,995.20,-12.14,-4.59,0.00,-0.20,0.38,9.38,0.00,0.00,0.00,0.00
2026-06-27 09:46:47.146,995.32,995.20,-12.14,-4.59,0.00,-0.20,0.38,9.38,0.00,0.00,0.00,0.00
2026-06-27 09:46:47.147,995.32,995.20,-12.14,-4.59,0.00,-0.20,0.38,9.38,0.00,0.00,0.00,0.00
2026-06-27 09:46:47.149,995.32,995.20,-12.14,-4.59,0.00,-0.20,0.38,9.38,0.00,0.00,0.00,0.00
2026-06-27 09:46:47.153,995.32,995.20,-12.14,-4.59,0.00,-0.20,0.38,9.38,0.00,0.00,0.00,0.00
2026-06-27 09:46:47.154,995.32,995.20,-12.14,-4.59,0.00,-0.16,0.35,9.35,0.00,0.00,0.00,0.00
2026-06-27 09:46:47.156,995.32,995.20,-12.14,-4.59,0.00,-0.16,0.35,9.35,0.00,0.00,0.00,0.00
2026-06-27 09:46:47.157,995.32,995.20,-12.14,-4.59,0.00,-0.16,0.35,9.35,0.00,0.00,0.00,0.00
2026-06-27 09:46:47.160,995.32,995.20,-12.14,-4.59,0.00,-0.16,0.35,9.35,0.00,0.00,0.00,0.00
2026-06-27 09:46:47.164,995.32,995.20,-12.14,-4.59,0.00,-0.16,0.35,9.35,0.00,0.00,-0.00,0.00
2026-06-27 09:46:47.165,995.32,995.20,-12.14,-4.59,0.00,-0.11,0.38,9.36,0.00,0.00,-0.00,0.00
2026-06-27 09:46:47.167,995.32,995.20,-12.14,-4.59,0.00,-0.11,0.38,9.36,0.00,0.00,-0.00,0.00
2026-06-27 09:46:47.168,995.32,995.20,-12.14,-4.59,0.00,-0.11,0.38,9.36,0.00,0.00,-0.00,0.00
2026-06-27 09:46:47.170,995.32,995.20,-12.14,-4.59,0.00,-0.11,0.38,9.36,0.00,0.00,-0.00,0.00
2026-06-27 09:46:47.313,995.31,995.20,-11.17,-4.40,0.00,-0.19,0.36,9.38,-0.00,-0.03,0.00,0.00
2026-06-27 09:46:47.315,995.31,995.20,-11.17,-4.40,0.00,-0.16,0.34,9.39,-0.00,-0.03,0.00,0.00
2026-06-27 09:46:47.316,995.31,995.20,-11.17,-4.40,0.00,-0.16,0.34,9.39,-0.00,-0.03,0.00,0.00
2026-06-27 09:46:47.318,995.31,995.20,-11.17,-4.40,0.00,-0.16,0.34,9.39,-0.00,-0.03,0.00,0.00
2026-06-27 09:46:47.321,995.31,995.20,-11.17,-4.40,0.00,-0.16,0.34,9.39,-0.00,-0.03,0.00,0.00
2026-06-27 09:46:47.323,995.31,995.20,-11.17,-4.40,0.00,-0.16,0.34,9.39,-0.00,-0.03,0.00,0.00
2026-06-27 09:46:47.324,995.31,995.20,-11.17,-4.40,0.00,-0.12,0.34,9.38,-0.01,-0.03,0.00,0.00
2026-06-27 09:46:47.325,995.31,995.20,-11.17,-4.40,0.00,-0.12,0.34,9.38,-0.01,-0.03,0.00,0.00
2026-06-27 09:46:47.327,995.31,995.20,-11.17,-4.40,0.00,-0.12,0.34,9.38,-0.01,-0.03,0.00,0.00
2026-06-27 09:46:47.328,995.31,995.20,-11.17,-4.40,0.00,-0.12,0.34,9.38,-0.01,-0.03,0.00,0.00
2026-06-27 09:46:47.329,995.31,995.20,-11.17,-4.40,0.00,-0.12,0.34,9.38,-0.01,-0.03,0.00,0.00
2026-06-27 09:46:47.330,995.31,995.20,-11.17,-4.40,0.00,-0.12,0.34,9.38,-0.01,-0.03,0.00,0.00
2026-06-27 09:46:47.335,995.31,995.20,-11.17,-4.40,0.00,-0.12,0.34,9.38,-0.01,-0.04,0.01,0.00
2026-06-27 09:46:47.338,995.31,995.20,-11.17,-4.40,0.00,-0.12,0.37,9.37,-0.01,-0.04,0.01,0.00
2026-06-27 09:46:47.340,995.31,995.20,-11.17,-4.40,0.00,-0.12,0.37,9.37,-0.01,-0.04,0.01,0.00
2026-06-27 09:46:47.341,995.31,995.20,-11.17,-4.40,0.00,-0.12,0.37,9.37,-0.01,-0.04,0.01,0.00
2026-06-27 09:46:47.343,995.31,995.20,-11.17,-4.40,0.00,-0.12,0.37,9.37,0.00,-0.04,0.00,0.00
2026-06-27 09:46:47.345,995.31,995.20,-11.17,-4.40,0.00,-0.15,0.35,9.31,0.00,-0.04,0.00,0.00
2026-06-27 09:46:47.346,995.31,995.20,-11.17,-4.40,0.00,-0.15,0.35,9.31,0.00,-0.04,0.00,0.00
2026-06-27 09:46:47.487,995.29,995.18,-11.15,-4.40,0.00,0.14,0.35,9.39,-0.01,-0.07,-0.01,0.00
2026-06-27 09:46:47.489,995.29,995.18,-11.15,-4.40,0.00,0.14,0.35,9.39,-0.01,-0.07,-0.01,0.00
2026-06-27 09:46:47.493,995.29,995.18,-11.15,-4.40,0.00,0.14,0.35,9.39,-0.01,-0.07,-0.01,0.00
2026-06-27 09:46:47.495,995.29,995.18,-11.15,-4.40,0.00,0.16,0.36,9.37,-0.01,-0.07,-0.01,0.00
2026-06-27 09:46:47.496,995.29,995.18,-11.15,-4.40,0.00,0.16,0.36,9.37,-0.01,-0.07,-0.01,0.00
2026-06-27 09:46:47.497,995.29,995.18,-11.15,-4.40,0.00,0.16,0.36,9.37,-0.01,-0.07,-0.01,0.00
2026-06-27 09:46:47.503,995.29,995.18,-11.15,-4.40,0.00,0.16,0.36,9.37,-0.01,-0.07,-0.01,0.00
2026-06-27 09:46:47.504,995.29,995.18,-11.15,-4.40,0.00,0.33,0.33,9.34,-0.01,-0.06,-0.00,0.00
2026-06-27 09:46:47.506,995.29,995.18,-11.15,-4.40,0.00,0.33,0.33,9.34,-0.01,-0.06,-0.00,0.00
2026-06-27 09:46:47.507,995.29,995.18,-11.15,-4.40,0.00,0.33,0.33,9.34,-0.01,-0.06,-0.00,0.00
2026-06-27 09:46:47.509,995.29,995.18,-11.15,-4.40,0.00,0.33,0.33,9.34,-0.01,-0.06,-0.00,0.00
2026-06-27 09:46:47.515,995.29,995.18,-11.15,-4.40,0.00,0.33,0.33,9.34,-0.01,-0.05,-0.01,0.00
2026-06-27 09:46:47.516,995.29,995.18,-11.15,-4.40,0.00,0.37,0.33,9.33,-0.01,-0.05,-0.01,0.00
2026-06-27 09:46:47.518,995.29,995.18,-11.15,-4.40,0.00,0.37,0.33,9.33,-0.01,-0.05,-0.01,0.00
2026-06-27 09:46:47.520,995.29,995.18,-11.15,-4.40,0.00,0.37,0.33,9.33,-0.01,-0.05,-0.01,0.00
2026-06-27 09:46:47.522,995.29,995.18,-11.15,-4.40,0.00,0.37,0.33,9.33,-0.01,-0.05,-0.01,0.00
2026-06-27 09:46:47.665,995.32,995.20,-12.36,-4.63,0.00,0.25,0.29,9.36,0.01,0.06,-0.00,0.00
2026-06-27 09:46:47.666,995.32,995.20,-12.36,-4.63,0.00,0.22,0.27,9.36,0.01,0.06,-0.00,0.00
2026-06-27 09:46:47.668,995.32,995.20,-12.36,-4.63,0.00,0.22,0.27,9.36,0.01,0.06,-0.00,0.00
2026-06-27 09:46:47.670,995.32,995.20,-12.36,-4.63,0.00,0.22,0.27,9.36,0.01,0.06,-0.00,0.00
2026-06-27 09:46:47.671,995.32,995.20,-12.36,-4.63,0.00,0.22,0.27,9.36,0.01,0.06,-0.00,0.00
2026-06-27 09:46:47.672,995.32,995.20,-12.36,-4.63,0.00,0.22,0.27,9.36,0.01,0.06,-0.00,0.00
2026-06-27 09:46:47.674,995.32,995.20,-12.36,-4.63,0.00,0.22,0.27,9.36,0.01,0.06,-0.00,0.00
2026-06-27 09:46:47.675,995.32,995.20,-12.36,-4.63,0.00,0.22,0.27,9.36,0.01,0.06,0.00,0.00
2026-06-27 09:46:47.676,995.32,995.20,-12.36,-4.63,0.00,0.18,0.28,9.36,0.01,0.06,0.00,0.00
2026-06-27 09:46:47.677,995.32,995.20,-12.36,-4.63,0.00,0.18,0.28,9.36,0.01,0.06,0.00,0.00
2026-06-27 09:46:47.679,995.32,995.20,-12.36,-4.63,0.00,0.18,0.28,9.36,0.01,0.06,0.00,0.00
2026-06-27 09:46:47.680,995.32,995.20,-12.36,-4.63,0.00,0.18,0.28,9.36,0.01,0.06,0.00,0.00
2026-06-27 09:46:47.681,995.32,995.20,-12.36,-4.63,0.00,0.18,0.28,9.36,0.01,0.06,0.00,0.00
2026-06-27 09:46:47.683,995.32,995.20,-12.36,-4.63,0.00,0.18,0.28,9.36,0.01,0.06,0.00,0.00
2026-06-27 09:46:47.685,995.32,995.20,-12.36,-4.63,0.00,0.18,0.28,9.36,0.01,0.06,0.00,0.00
2026-06-27 09:46:47.688,995.32,995.20,-12.36,-4.63,0.00,0.18,0.24,9.40,0.01,0.07,0.00,0.00
2026-06-27 09:46:47.689,995.32,995.20,-12.36,-4.63,0.00,0.18,0.24,9.40,0.01,0.07,0.00,0.00
2026-06-27 09:46:47.690,995.32,995.20,-12.36,-4.63,0.00,0.18,0.24,9.40,0.01,0.07,0.00,0.00
2026-06-27 09:46:47.691,995.32,995.20,-12.36,-4.63,0.00,0.18,0.24,9.40,0.01,0.07,0.00,0.00
2026-06-27 09:46:47.693,995.32,995.20,-12.36,-4.63,0.00,0.18,0.24,9.40,0.01,0.07,0.00,0.00
2026-06-27 09:46:47.694,995.32,995.20,-12.36,-4.63,0.00,0.18,0.24,9.40,0.01,0.07,0.00,0.00
2026-06-27 09:46:47.695,995.32,995.20,-12.36,-4.63,0.00,0.19,0.24,9.37,0.01,0.07,0.00,0.00
2026-06-27 09:46:47.697,995.32,995.20,-12.36,-4.63,0.00,0.19,0.24,9.37,0.01,0.07,0.00,0.00
2026-06-27 09:46:47.698,995.32,995.20,-12.36,-4.63,0.00,0.19,0.24,9.37,0.01,0.07,0.00,0.00
2026-06-27 09:46:47.838,995.29,995.19,-10.45,-4.26,0.00,-0.28,0.26,9.41,0.01,0.09,-0.01,0.00
2026-06-27 09:46:47.840,995.29,995.19,-10.45,-4.26,0.00,-0.28,0.26,9.41,0.01,0.09,-0.01,0.00
2026-06-27 09:46:47.844,995.29,995.19,-10.45,-4.26,0.00,-0.28,0.26,9.41,0.01,0.09,-0.01,0.00
2026-06-27 09:46:47.846,995.29,995.19,-10.45,-4.26,0.00,-0.28,0.27,9.37,0.01,0.09,-0.01,0.00
2026-06-27 09:46:47.847,995.29,995.19,-10.45,-4.26,0.00,-0.28,0.27,9.37,0.01,0.09,-0.01,0.00
2026-06-27 09:46:47.848,995.29,995.19,-10.45,-4.26,0.00,-0.28,0.27,9.37,0.01,0.09,-0.01,0.00
2026-06-27 09:46:47.850,995.29,995.19,-10.45,-4.26,0.00,-0.28,0.27,9.37,0.01,0.09,-0.01,0.00
2026-06-27 09:46:47.854,995.29,995.19,-10.45,-4.26,0.00,-0.28,0.27,9.37,0.01,0.09,-0.01,0.00
2026-06-27 09:46:47.855,995.29,995.19,-10.45,-4.26,0.00,-0.37,0.31,9.39,0.01,0.08,-0.01,0.00
2026-06-27 09:46:47.857,995.29,995.19,-10.45,-4.26,0.00,-0.37,0.31,9.39,0.01,0.08,-0.01,0.00
2026-06-27 09:46:47.858,995.29,995.19,-10.45,-4.26,0.00,-0.37,0.31,9.39,0.01,0.08,-0.01,0.00
2026-06-27 09:46:47.859,995.29,995.19,-10.45,-4.26,0.00,-0.37,0.31,9.39,0.01,0.08,-0.01,0.00
2026-06-27 09:46:47.860,995.29,995.19,-10.45,-4.26,0.00,-0.37,0.31,9.39,0.01,0.08,-0.01,0.00
2026-06-27 09:46:47.865,995.29,995.19,-10.45,-4.26,0.00,-0.37,0.31,9.39,0.01,0.07,-0.00,0.00
2026-06-27 09:46:47.866,995.29,995.19,-10.45,-4.26,0.00,-0.41,0.28,9.39,0.01,0.07,-0.00,0.00
2026-06-27 09:46:47.868,995.29,995.19,-10.45,-4.26,0.00,-0.41,0.28,9.39,0.01,0.07,-0.00,0.00
2026-06-27 09:46:47.871,995.29,995.19,-10.45,-4.26,0.00,-0.41,0.28,9.39,0.01,0.07,-0.00,0.00
2026-06-27 09:46:47.872,995.29,995.19,-10.45,-4.26,0.00,-0.41,0.28,9.39,0.01,0.07,-0.00,0.00
2026-06-27 09:46:47.873,995.29,995.19,-10.45,-4.26,0.00,-0.41,0.28,9.39,0.01,0.07,-0.00,0.00
2026-06-27 09:46:48.015,995.29,995.20,-9.29,-4.02,0.00,-0.24,0.33,9.36,0.00,0.01,-0.00,0.00
2026-06-27 09:46:48.017,995.29,995.20,-9.29,-4.02,0.00,-0.26,0.36,9.34,0.00,0.01,-0.00,0.00
2026-06-27 09:46:48.018,995.29,995.20,-9.29,-4.02,0.00,-0.26,0.36,9.34,0.00,0.01,-0.00,0.00
2026-06-27 09:46:48.020,995.29,995.20,-9.29,-4.02,0.00,-0.26,0.36,9.34,0.00,0.01,-0.00,0.00
2026-06-27 09:46:48.021,995.29,995.20,-9.29,-4.02,0.00,-0.26,0.36,9.34,0.00,0.01,-0.00,0.00
2026-06-27 09:46:48.023,995.29,995.20,-9.29,-4.02,0.00,-0.26,0.36,9.34,0.00,0.01,-0.00,0.00
2026-06-27 09:46:48.025,995.29,995.20,-9.29,-4.02,0.00,-0.26,0.36,9.34,0.00,0.00,-0.00,0.00
2026-06-27 09:46:48.026,995.29,995.20,-9.29,-4.02,0.00,-0.26,0.34,9.39,0.00,0.00,-0.00,0.00
2026-06-27 09:46:48.027,995.29,995.20,-9.29,-4.02,0.00,-0.26,0.34,9.39,0.00,0.00,-0.00,0.00
2026-06-27 09:46:48.029,995.29,995.20,-9.29,-4.02,0.00,-0.26,0.34,9.39,0.00,0.00,-0.00,0.00
2026-06-27 09:46:48.030,995.29,995.20,-9.29,-4.02,0.00,-0.26,0.34,9.39,0.00,0.00,-0.00,0.00
2026-06-27 09:46:48.035,995.29,995.20,-9.29,-4.02,0.00,-0.26,0.34,9.39,0.00,0.00,-0.00,0.00
2026-06-27 09:46:48.039,995.29,995.20,-9.29,-4.02,0.00,-0.27,0.33,9.38,0.00,0.00,-0.00,0.00
2026-06-27 09:46:48.042,995.29,995.20,-9.29,-4.02,0.00,-0.27,0.33,9.38,0.00,0.00,-0.00,0.00
2026-06-27 09:46:48.045,995.29,995.20,-9.29,-4.02,0.00,-0.27,0.33,9.38,0.00,0.00,-0.00,0.00
2026-06-27 09:46:48.046,995.29,995.20,-9.29,-4.02,0.00,-0.24,0.34,9.36,0.00,0.00,-0.00,0.00
2026-06-27 09:46:48.048,995.29,995.20,-9.29,-4.02,0.00,-0.24,0.34,9.36,0.00,0.00,-0.00,0.00
2026-06-27 09:46:48.188,995.31,995.18,-12.62,-4.68,0.00,-0.25,0.35,9.36,-0.00,-0.03,0.00,0.00
2026-06-27 09:46:48.190,995.31,995.18,-12.62,-4.68,0.00,-0.25,0.35,9.36,-0.00,-0.03,0.00,0.00
2026-06-27 09:46:48.195,995.31,995.18,-12.62,-4.68,0.00,-0.25,0.35,9.36,-0.00,-0.03,0.00,0.00
2026-06-27 09:46:48.197,995.31,995.18,-12.62,-4.68,0.00,-0.24,0.35,9.33,-0.00,-0.02,0.00,0.00
2026-06-27 09:46:48.200,995.31,995.18,-12.62,-4.68,0.00,-0.24,0.35,9.33,-0.00,-0.02,0.00,0.00
2026-06-27 09:46:48.205,995.31,995.18,-12.62,-4.68,0.00,-0.24,0.35,9.33,-0.00,-0.02,0.00,0.00
2026-06-27 09:46:48.207,995.31,995.18,-12.62,-4.68,0.00,-0.16,0.33,9.36,-0.00,-0.03,0.00,0.00
2026-06-27 09:46:48.208,995.31,995.18,-12.62,-4.68,0.00,-0.16,0.33,9.36,-0.00,-0.03,0.00,0.00
2026-06-27 09:46:48.209,995.31,995.18,-12.62,-4.68,0.00,-0.16,0.33,9.36,-0.00,-0.03,0.00,0.00
2026-06-27 09:46:48.210,995.31,995.18,-12.62,-4.68,0.00,-0.16,0.33,9.36,-0.00,-0.03,0.00,0.00
2026-06-27 09:46:48.214,995.31,995.18,-12.62,-4.68,0.00,-0.16,0.33,9.36,-0.00,-0.03,0.00,0.00
2026-06-27 09:46:48.217,995.31,995.18,-12.62,-4.68,0.00,-0.19,0.35,9.39,-0.00,-0.03,0.00,0.00
2026-06-27 09:46:48.218,995.31,995.18,-12.62,-4.68,0.00,-0.19,0.35,9.39,-0.00,-0.03,0.00,0.00
2026-06-27 09:46:48.220,995.31,995.18,-12.62,-4.68,0.00,-0.19,0.35,9.39,-0.00,-0.03,0.00,0.00
2026-06-27 09:46:48.221,995.31,995.18,-12.62,-4.68,0.00,-0.19,0.35,9.39,-0.00,-0.03,0.00,0.00
2026-06-27 09:46:48.222,995.31,995.18,-12.62,-4.68,0.00,-0.19,0.35,9.39,-0.00,-0.03,0.00,0.00
2026-06-27 09:46:48.224,995.31,995.18,-12.62,-4.68,0.00,-0.19,0.35,9.39,-0.00,-0.03,0.00,0.00
2026-06-27 09:46:48.367,995.30,995.21,-8.78,-3.90,0.00,-0.11,0.35,9.36,-0.00,-0.03,0.00,0.00
2026-06-27 09:46:48.368,995.30,995.21,-8.78,-3.90,0.00,-0.08,0.37,9.37,-0.00,-0.03,0.00,0.00
2026-06-27 09:46:48.370,995.30,995.21,-8.78,-3.90,0.00,-0.08,0.37,9.37,-0.00,-0.03,0.00,0.00
2026-06-27 09:46:48.371,995.30,995.21,-8.78,-3.90,0.00,-0.08,0.37,9.37,-0.00,-0.03,0.00,0.00
2026-06-27 09:46:48.372,995.30,995.21,-8.78,-3.90,0.00,-0.08,0.37,9.37,-0.00,-0.03,0.00,0.00
2026-06-27 09:46:48.374,995.30,995.21,-8.78,-3.90,0.00,-0.08,0.37,9.37,-0.00,-0.03,0.00,0.00
2026-06-27 09:46:48.375,995.30,995.21,-8.78,-3.90,0.00,-0.08,0.37,9.37,-0.00,-0.03,0.00,0.00
2026-06-27 09:46:48.376,995.30,995.21,-8.78,-3.90,0.00,-0.08,0.37,9.37,-0.00,-0.03,0.00,0.00
2026-06-27 09:46:48.380,995.30,995.21,-8.78,-3.90,0.00,-0.08,0.32,9.36,-0.00,-0.03,0.00,0.00
2026-06-27 09:46:48.381,995.30,995.21,-8.78,-3.90,0.00,-0.08,0.32,9.36,-0.00,-0.03,0.00,0.00
2026-06-27 09:46:48.383,995.30,995.21,-8.78,-3.90,0.00,-0.08,0.32,9.36,-0.00,-0.03,0.00,0.00
2026-06-27 09:46:48.386,995.30,995.21,-8.78,-3.90,0.00,-0.08,0.32,9.36,-0.00,-0.03,0.00,0.00
2026-06-27 09:46:48.388,995.30,995.21,-8.78,-3.90,0.00,-0.09,0.34,9.36,-0.00,-0.03,0.00,0.00
2026-06-27 09:46:48.389,995.30,995.21,-8.78,-3.90,0.00,-0.09,0.34,9.36,-0.00,-0.03,0.00,0.00
2026-06-27 09:46:48.390,995.30,995.21,-8.78,-3.90,0.00,-0.09,0.34,9.36,-0.00,-0.03,0.00,0.00
2026-06-27 09:46:48.392,995.30,995.21,-8.78,-3.90,0.00,-0.09,0.34,9.36,-0.00,-0.03,0.00,0.00
2026-06-27 09:46:48.393,995.30,995.21,-8.78,-3.90,0.00,-0.09,0.34,9.36,-0.00,-0.03,0.00,0.00
2026-06-27 09:46:48.394,995.30,995.21,-8.78,-3.90,0.00,-0.09,0.34,9.36,-0.00,-0.03,0.00,0.00
2026-06-27 09:46:48.396,995.30,995.21,-8.78,-3.90,0.00,-0.09,0.34,9.36,-0.00,-0.03,0.00,0.00
2026-06-27 09:46:48.397,995.30,995.21,-8.78,-3.90,0.00,-0.07,0.33,9.33,-0.00,-0.03,0.00,0.00
2026-06-27 09:46:48.399,995.30,995.21,-8.78,-3.90,0.00,-0.07,0.33,9.33,-0.00,-0.03,0.00,0.00
2026-06-27 09:46:48.539,995.30,995.18,-12.02,-4.57,0.00,-0.03,0.33,9.35,0.00,-0.01,0.00,0.00
2026-06-27 09:46:48.540,995.30,995.18,-12.02,-4.57,0.00,-0.03,0.33,9.35,0.00,-0.01,0.00,0.00
2026-06-27 09:46:48.546,995.30,995.18,-12.02,-4.57,0.00,-0.03,0.33,9.35,0.00,-0.01,0.00,0.00
2026-06-27 09:46:48.547,995.30,995.18,-12.02,-4.57,0.00,-0.04,0.34,9.35,0.00,-0.01,-0.00,0.00
2026-06-27 09:46:48.550,995.30,995.18,-12.02,-4.57,0.00,-0.04,0.34,9.35,0.00,-0.01,-0.00,0.00
2026-06-27 09:46:48.554,995.30,995.18,-12.02,-4.57,0.00,-0.04,0.34,9.35,0.00,-0.01,-0.00,0.00
2026-06-27 09:46:48.557,995.30,995.18,-12.02,-4.57,0.00,-0.05,0.36,9.36,0.00,-0.01,0.00,0.00
2026-06-27 09:46:48.558,995.30,995.18,-12.02,-4.57,0.00,-0.05,0.36,9.36,0.00,-0.01,0.00,0.00
2026-06-27 09:46:48.559,995.30,995.18,-12.02,-4.57,0.00,-0.05,0.36,9.36,0.00,-0.01,0.00,0.00
2026-06-27 09:46:48.561,995.30,995.18,-12.02,-4.57,0.00,-0.05,0.36,9.36,0.00,-0.01,0.00,0.00
2026-06-27 09:46:48.562,995.30,995.18,-12.02,-4.57,0.00,-0.05,0.36,9.36,0.00,-0.01,0.00,0.00
2026-06-27 09:46:48.568,995.30,995.18,-12.02,-4.57,0.00,-0.05,0.36,9.36,0.00,-0.00,0.00,0.00
2026-06-27 09:46:48.569,995.30,995.18,-12.02,-4.57,0.00,-0.06,0.34,9.37,0.00,-0.00,0.00,0.00
2026-06-27 09:46:48.571,995.30,995.18,-12.02,-4.57,0.00,-0.06,0.34,9.37,0.00,-0.00,0.00,0.00
2026-06-27 09:46:48.572,995.30,995.18,-12.02,-4.57,0.00,-0.06,0.34,9.37,0.00,-0.00,0.00,0.00
2026-06-27 09:46:48.574,995.30,995.18,-12.02,-4.57,0.00,-0.06,0.34,9.37,0.00,-0.00,0.00,0.00
2026-06-27 09:46:48.576,995.30,995.18,-12.02,-4.57,0.00,-0.06,0.34,9.37,0.00,-0.00,0.00,0.00
2026-06-27 09:46:48.718,995.31,995.19,-12.01,-4.57,0.00,-0.16,0.34,9.37,-0.00,-0.01,0.00,0.00
2026-06-27 09:46:48.719,995.31,995.19,-12.01,-4.57,0.00,-0.16,0.34,9.37,-0.00,-0.01,0.00,0.00
2026-06-27 09:46:48.721,995.31,995.19,-12.01,-4.57,0.00,-0.16,0.34,9.37,-0.00,-0.01,0.00,0.00
2026-06-27 09:46:48.723,995.31,995.19,-12.01,-4.57,0.00,-0.16,0.34,9.37,-0.00,-0.01,0.00,0.00
2026-06-27 09:46:48.725,995.31,995.19,-12.01,-4.57,0.00,-0.16,0.34,9.37,-0.00,-0.01,0.00,0.00
2026-06-27 09:46:48.727,995.31,995.19,-12.01,-4.57,0.00,-0.16,0.34,9.37,-0.00,-0.02,-0.00,0.00
2026-06-27 09:46:48.728,995.31,995.19,-12.01,-4.57,0.00,-0.14,0.35,9.38,-0.00,-0.02,-0.00,0.00
2026-06-27 09:46:48.730,995.31,995.19,-12.01,-4.57,0.00,-0.14,0.35,9.38,-0.00,-0.02,-0.00,0.00
2026-06-27 09:46:48.731,995.31,995.19,-12.01,-4.57,0.00,-0.14,0.35,9.38,-0.00,-0.02,-0.00,0.00
2026-06-27 09:46:48.733,995.31,995.19,-12.01,-4.57,0.00,-0.14,0.35,9.38,-0.00,-0.02,-0.00,0.00
2026-06-27 09:46:48.737,995.31,995.19,-12.01,-4.57,0.00,-0.14,0.35,9.38,-0.00,-0.02,-0.00,0.00
2026-06-27 09:46:48.738,995.31,995.19,-12.01,-4.57,0.00,-0.14,0.36,9.39,-0.00,-0.02,-0.00,0.00
2026-06-27 09:46:48.739,995.31,995.19,-12.01,-4.57,0.00,-0.14,0.36,9.39,-0.00,-0.02,-0.00,0.00
2026-06-27 09:46:48.741,995.31,995.19,-12.01,-4.57,0.00,-0.14,0.36,9.39,-0.00,-0.02,-0.00,0.00
2026-06-27 09:46:48.742,995.31,995.19,-12.01,-4.57,0.00,-0.14,0.36,9.39,-0.00,-0.02,-0.00,0.00
2026-06-27 09:46:48.747,995.31,995.19,-12.01,-4.57,0.00,-0.14,0.36,9.39,-0.00,-0.02,-0.00,0.00
2026-06-27 09:46:48.748,995.31,995.19,-12.01,-4.57,0.00,-0.16,0.35,9.34,-0.00,-0.02,-0.00,0.00
2026-06-27 09:46:48.749,995.31,995.19,-12.01,-4.57,0.00,-0.16,0.35,9.34,-0.00,-0.02,-0.00,0.00
2026-06-27 09:46:48.751,995.31,995.19,-12.01,-4.57,0.00,-0.16,0.35,9.34,-0.00,-0.02,-0.00,0.00
2026-06-27 09:46:48.753,995.31,995.19,-12.01,-4.57,0.00,-0.16,0.35,9.34,-0.00,-0.02,-0.00,0.00
2026-06-27 09:46:48.897,995.31,995.20,-10.47,-4.27,0.00,0.05,0.33,9.36,-0.01,-0.04,-0.00,0.00
2026-06-27 09:46:48.899,995.31,995.20,-10.47,-4.27,0.00,0.06,0.30,9.34,-0.00,-0.04,0.00,0.00
2026-06-27 09:46:48.900,995.31,995.20,-10.47,-4.27,0.00,0.06,0.30,9.34,-0.00,-0.04,0.00,0.00
2026-06-27 09:46:48.902,995.31,995.20,-10.47,-4.27,0.00,0.06,0.30,9.34,-0.00,-0.04,0.00,0.00
2026-06-27 09:46:48.907,995.31,995.20,-10.47,-4.27,0.00,0.06,0.30,9.34,-0.01,-0.04,0.00,0.00
2026-06-27 09:46:48.909,995.31,995.20,-10.47,-4.27,0.00,0.05,0.31,9.35,-0.01,-0.04,0.00,0.00
2026-06-27 09:46:48.910,995.31,995.20,-10.47,-4.27,0.00,0.05,0.31,9.35,-0.01,-0.04,0.00,0.00
2026-06-27 09:46:48.911,995.31,995.20,-10.47,-4.27,0.00,0.05,0.31,9.35,-0.01,-0.04,0.00,0.00
2026-06-27 09:46:48.913,995.31,995.20,-10.47,-4.27,0.00,0.05,0.31,9.35,-0.01,-0.04,0.00,0.00
2026-06-27 09:46:48.918,995.31,995.20,-10.47,-4.27,0.00,0.05,0.31,9.35,-0.00,-0.03,0.00,0.00
2026-06-27 09:46:48.919,995.31,995.20,-10.47,-4.27,0.00,0.05,0.33,9.38,-0.00,-0.03,0.00,0.00
2026-06-27 09:46:48.921,995.31,995.20,-10.47,-4.27,0.00,0.05,0.33,9.38,-0.00,-0.03,0.00,0.00
2026-06-27 09:46:48.922,995.31,995.20,-10.47,-4.27,0.00,0.05,0.33,9.38,-0.00,-0.03,0.00,0.00
2026-06-27 09:46:48.923,995.31,995.20,-10.47,-4.27,0.00,0.05,0.33,9.38,-0.00,-0.03,0.00,0.00
2026-06-27 09:46:48.924,995.31,995.20,-10.47,-4.27,0.00,0.05,0.33,9.38,-0.00,-0.03,0.00,0.00
2026-06-27 09:46:48.926,995.31,995.20,-10.47,-4.27,0.00,0.05,0.33,9.38,-0.00,-0.03,0.00,0.00
2026-06-27 09:46:48.927,995.31,995.20,-10.47,-4.27,0.00,0.05,0.33,9.38,-0.00,-0.03,0.00,0.00
2026-06-27 09:46:48.928,995.31,995.20,-10.47,-4.27,0.00,0.10,0.33,9.39,-0.00,-0.03,0.00,0.00
2026-06-27 09:46:48.930,995.31,995.20,-10.47,-4.27,0.00,0.10,0.33,9.39,-0.00,-0.03,0.00,0.00
2026-06-27 09:46:49.069,995.30,995.17,-12.57,-4.67,0.00,0.04,0.29,9.37,0.00,0.01,-0.00,0.00
2026-06-27 09:46:49.071,995.30,995.17,-12.57,-4.67,0.00,0.04,0.29,9.37,0.00,0.01,-0.00,0.00
2026-06-27 09:46:49.073,995.30,995.17,-12.57,-4.67,0.00,0.04,0.29,9.37,0.00,0.01,-0.00,0.00
2026-06-27 09:46:49.074,995.30,995.17,-12.57,-4.67,0.00,0.04,0.29,9.37,0.00,0.01,-0.00,0.00
2026-06-27 09:46:49.075,995.30,995.17,-12.57,-4.67,0.00,0.04,0.29,9.37,0.00,0.01,-0.00,0.00
2026-06-27 09:46:49.078,995.30,995.17,-12.57,-4.67,0.00,0.04,0.29,9.37,0.00,0.01,-0.00,0.00
2026-06-27 09:46:49.079,995.30,995.17,-12.57,-4.67,0.00,0.02,0.30,9.38,0.00,0.01,-0.00,0.00
2026-06-27 09:46:49.080,995.30,995.17,-12.57,-4.67,0.00,0.02,0.30,9.38,0.00,0.01,-0.00,0.00
2026-06-27 09:46:49.082,995.30,995.17,-12.57,-4.67,0.00,0.02,0.30,9.38,0.00,0.01,-0.00,0.00
2026-06-27 09:46:49.088,995.30,995.17,-12.57,-4.67,0.00,0.02,0.30,9.38,0.00,0.01,-0.00,0.00
2026-06-27 09:46:49.089,995.30,995.17,-12.57,-4.67,0.00,0.03,0.30,9.36,0.00,0.01,-0.00,0.00
2026-06-27 09:46:49.090,995.30,995.17,-12.57,-4.67,0.00,0.03,0.30,9.36,0.00,0.01,-0.00,0.00
2026-06-27 09:46:49.091,995.30,995.17,-12.57,-4.67,0.00,0.03,0.30,9.36,0.00,0.01,-0.00,0.00
2026-06-27 09:46:49.095,995.30,995.17,-12.57,-4.67,0.00,0.03,0.30,9.36,0.00,0.01,-0.00,0.00
2026-06-27 09:46:49.098,995.30,995.17,-12.57,-4.67,0.00,0.03,0.30,9.36,0.00,0.01,-0.00,0.00
2026-06-27 09:46:49.100,995.30,995.17,-12.57,-4.67,0.00,0.04,0.30,9.35,0.00,0.01,-0.00,0.00
2026-06-27 09:46:49.101,995.30,995.17,-12.57,-4.67,0.00,0.04,0.30,9.35,0.00,0.01,-0.00,0.00
2026-06-27 09:46:49.105,995.30,995.17,-12.57,-4.67,0.00,0.04,0.30,9.35,0.00,0.01,-0.00,0.00
2026-06-27 09:46:49.245,995.31,995.20,-10.90,-4.35,0.00,-0.08,0.29,9.34,0.00,0.01,0.00,0.00
2026-06-27 09:46:49.248,995.31,995.20,-10.90,-4.35,0.00,-0.08,0.29,9.34,0.00,0.01,0.00,0.00
2026-06-27 09:46:49.250,995.31,995.20,-10.90,-4.35,0.00,-0.06,0.31,9.38,0.00,0.01,0.00,0.00
2026-06-27 09:46:49.252,995.31,995.20,-10.90,-4.35,0.00,-0.06,0.31,9.38,0.00,0.01,0.00,0.00
2026-06-27 09:46:49.253,995.31,995.20,-10.90,-4.35,0.00,-0.06,0.31,9.38,0.00,0.01,0.00,0.00
2026-06-27 09:46:49.258,995.31,995.20,-10.90,-4.35,0.00,-0.06,0.31,9.38,0.00,0.01,0.00,0.00
2026-06-27 09:46:49.260,995.31,995.20,-10.90,-4.35,0.00,-0.07,0.32,9.37,0.00,0.01,0.00,0.00
2026-06-27 09:46:49.262,995.31,995.20,-10.90,-4.35,0.00,-0.07,0.32,9.37,0.00,0.01,0.00,0.00
2026-06-27 09:46:49.265,995.31,995.20,-10.90,-4.35,0.00,-0.07,0.32,9.37,0.00,0.01,0.00,0.00
2026-06-27 09:46:49.269,995.31,995.20,-10.90,-4.35,0.00,-0.07,0.32,9.37,0.00,0.00,-0.00,0.00
2026-06-27 09:46:49.270,995.31,995.20,-10.90,-4.35,0.00,-0.09,0.31,9.38,0.00,0.00,-0.00,0.00
2026-06-27 09:46:49.272,995.31,995.20,-10.90,-4.35,0.00,-0.09,0.31,9.38,0.00,0.00,-0.00,0.00
2026-06-27 09:46:49.273,995.31,995.20,-10.90,-4.35,0.00,-0.09,0.31,9.38,0.00,0.00,-0.00,0.00
2026-06-27 09:46:49.274,995.31,995.20,-10.90,-4.35,0.00,-0.09,0.31,9.38,0.00,0.00,-0.00,0.00
2026-06-27 09:46:49.275,995.31,995.20,-10.90,-4.35,0.00,-0.09,0.31,9.38,0.00,0.00,-0.00,0.00
2026-06-27 09:46:49.278,995.31,995.20,-10.90,-4.35,0.00,-0.09,0.31,9.38,0.00,0.00,-0.00,0.00
2026-06-27 09:46:49.420,995.31,995.21,-10.07,-4.18,0.00,0.00,0.31,9.37,0.00,-0.00,-0.00,0.00
2026-06-27 09:46:49.422,995.31,995.21,-10.07,-4.18,0.00,0.00,0.31,9.37,0.00,-0.00,-0.00,0.00
2026-06-27 09:46:49.424,995.31,995.21,-10.07,-4.18,0.00,0.00,0.31,9.37,0.00,-0.00,-0.00,0.00
2026-06-27 09:46:49.425,995.31,995.21,-10.07,-4.18,0.00,0.00,0.31,9.37,0.00,-0.00,-0.00,0.00
2026-06-27 09:46:49.429,995.31,995.21,-10.07,-4.18,0.00,0.00,0.31,9.37,0.00,-0.00,0.00,0.00
2026-06-27 09:46:49.430,995.31,995.21,-10.07,-4.18,0.00,0.00,0.31,9.39,0.00,-0.00,0.00,0.00
2026-06-27 09:46:49.431,995.31,995.21,-10.07,-4.18,0.00,0.00,0.31,9.39,0.00,-0.00,0.00,0.00
2026-06-27 09:46:49.433,995.31,995.21,-10.07,-4.18,0.00,0.00,0.31,9.39,0.00,-0.00,0.00,0.00
2026-06-27 09:46:49.439,995.31,995.21,-10.07,-4.18,0.00,0.00,0.31,9.39,0.00,0.00,0.00,0.00
2026-06-27 09:46:49.440,995.31,995.21,-10.07,-4.18,0.00,0.02,0.31,9.36,0.00,0.00,0.00,0.00
2026-06-27 09:46:49.443,995.31,995.21,-10.07,-4.18,0.00,0.02,0.31,9.36,0.00,0.00,0.00,0.00
2026-06-27 09:46:49.449,995.31,995.21,-10.07,-4.18,0.00,0.02,0.31,9.36,0.00,0.00,0.00,0.00
2026-06-27 09:46:49.450,995.31,995.21,-10.07,-4.18,0.00,0.04,0.33,9.33,0.00,0.00,0.00,0.00
2026-06-27 09:46:49.591,995.29,995.20,-9.37,-4.03,0.00,0.00,0.33,9.39,0.01,0.03,-0.00,0.00
2026-06-27 09:46:49.592,995.29,995.20,-9.37,-4.03,0.00,0.00,0.33,9.39,0.01,0.03,-0.00,0.00
2026-06-27 09:46:49.596,995.29,995.20,-9.37,-4.03,0.00,0.00,0.33,9.39,0.01,0.03,-0.00,0.00
2026-06-27 09:46:49.600,995.29,995.20,-9.37,-4.03,0.00,0.00,0.33,9.39,0.00,0.03,-0.00,0.00
2026-06-27 09:46:49.601,995.29,995.20,-9.37,-4.03,0.00,0.00,0.32,9.36,0.00,0.03,-0.00,0.00
2026-06-27 09:46:49.607,995.29,995.20,-9.37,-4.03,0.00,0.00,0.32,9.36,0.00,0.03,-0.00,0.00
2026-06-27 09:46:49.609,995.29,995.20,-9.37,-4.03,0.00,0.00,0.32,9.36,0.00,0.03,-0.00,0.00
2026-06-27 09:46:49.611,995.29,995.20,-9.37,-4.03,0.00,0.01,0.32,9.35,0.00,0.03,-0.00,0.00
2026-06-27 09:46:49.613,995.29,995.20,-9.37,-4.03,0.00,0.01,0.32,9.35,0.00,0.03,-0.00,0.00
2026-06-27 09:46:49.619,995.29,995.20,-9.37,-4.03,0.00,0.01,0.32,9.35,0.00,0.03,-0.00,0.00
2026-06-27 09:46:49.621,995.29,995.20,-9.37,-4.03,0.00,0.00,0.32,9.37,0.00,0.03,-0.00,0.00
2026-06-27 09:46:49.622,995.29,995.20,-9.37,-4.03,0.00,0.00,0.32,9.37,0.00,0.03,-0.00,0.00
2026-06-27 09:46:49.623,995.29,995.20,-9.37,-4.03,0.00,0.00,0.32,9.37,0.00,0.03,-0.00,0.00
2026-06-27 09:46:49.624,995.29,995.20,-9.37,-4.03,0.00,0.00,0.32,9.37,0.00,0.03,-0.00,0.00
2026-06-27 09:46:49.625,995.29,995.20,-9.37,-4.03,0.00,0.00,0.32,9.37,0.00,0.03,-0.00,0.00
2026-06-27 09:46:49.627,995.29,995.20,-9.37,-4.03,0.00,0.00,0.32,9.37,0.00,0.03,-0.00,0.00
2026-06-27 09:46:49.770,995.31,995.19,-11.46,-4.46,0.00,-0.13,0.34,9.37,0.00,0.03,-0.00,0.00
2026-06-27 09:46:49.771,995.31,995.19,-11.46,-4.46,0.00,-0.09,0.31,9.39,0.00,0.03,-0.00,0.00
2026-06-27 09:46:49.773,995.31,995.19,-11.46,-4.46,0.00,-0.09,0.31,9.39,0.00,0.03,-0.00,0.00
2026-06-27 09:46:49.774,995.31,995.19,-11.46,-4.46,0.00,-0.09,0.31,9.39,0.00,0.03,-0.00,0.00
2026-06-27 09:46:49.775,995.31,995.19,-11.46,-4.46,0.00,-0.09,0.31,9.39,0.00,0.03,-0.00,0.00
2026-06-27 09:46:49.776,995.31,995.19,-11.46,-4.46,0.00,-0.09,0.31,9.39,0.00,0.03,-0.00,0.00
2026-06-27 09:46:49.777,995.31,995.19,-11.46,-4.46,0.00,-0.09,0.31,9.39,0.00,0.03,-0.00,0.00
2026-06-27 09:46:49.779,995.31,995.19,-11.46,-4.46,0.00,-0.09,0.31,9.39,0.00,0.03,-0.00,0.00
2026-06-27 09:46:49.780,995.31,995.19,-11.46,-4.46,0.00,-0.09,0.31,9.39,0.00,0.02,0.00,0.00
2026-06-27 09:46:49.784,995.31,995.19,-11.46,-4.46,0.00,-0.14,0.32,9.36,0.00,0.02,0.00,0.00
2026-06-27 09:46:49.786,995.31,995.19,-11.46,-4.46,0.00,-0.14,0.32,9.36,0.00,0.02,0.00,0.00
2026-06-27 09:46:49.788,995.31,995.19,-11.46,-4.46,0.00,-0.14,0.32,9.36,0.00,0.02,0.00,0.00
2026-06-27 09:46:49.790,995.31,995.19,-11.46,-4.46,0.00,-0.14,0.32,9.36,0.00,0.02,0.00,0.00
2026-06-27 09:46:49.791,995.31,995.19,-11.46,-4.46,0.00,-0.11,0.33,9.35,0.00,0.02,0.00,0.00
2026-06-27 09:46:49.792,995.31,995.19,-11.46,-4.46,0.00,-0.11,0.33,9.35,0.00,0.02,0.00,0.00
2026-06-27 09:46:49.793,995.31,995.19,-11.46,-4.46,0.00,-0.11,0.33,9.35,0.00,0.02,0.00,0.00
2026-06-27 09:46:49.795,995.31,995.19,-11.46,-4.46,0.00,-0.11,0.33,9.35,0.00,0.02,0.00,0.00
2026-06-27 09:46:49.796,995.31,995.19,-11.46,-4.46,0.00,-0.11,0.33,9.35,0.00,0.02,0.00,0.00
2026-06-27 09:46:49.797,995.31,995.19,-11.46,-4.46,0.00,-0.11,0.33,9.35,0.00,0.02,0.00,0.00
2026-06-27 09:46:49.799,995.31,995.19,-11.46,-4.46,0.00,-0.11,0.33,9.35,0.00,0.03,0.00,0.00
2026-06-27 09:46:49.801,995.31,995.19,-11.46,-4.46,0.00,-0.12,0.33,9.35,0.00,0.03,0.00,0.00
2026-06-27 09:46:49.803,995.31,995.19,-11.46,-4.46,0.00,-0.12,0.33,9.35,0.00,0.03,0.00,0.00
2026-06-27 09:46:49.950,995.29,995.20,-9.12,-3.98,0.00,-0.16,0.32,9.36,0.00,0.01,0.00,0.00
2026-06-27 09:46:49.952,995.29,995.20,-9.12,-3.98,0.00,-0.14,0.33,9.35,0.00,0.01,-0.00,0.00
2026-06-27 09:46:49.954,995.29,995.20,-9.12,-3.98,0.00,-0.14,0.33,9.35,0.00,0.01,-0.00,0.00
2026-06-27 09:46:49.957,995.29,995.20,-9.12,-3.98,0.00,-0.14,0.33,9.35,0.00,0.01,-0.00,0.00
2026-06-27 09:46:49.960,995.29,995.20,-9.12,-3.98,0.00,-0.14,0.33,9.35,0.00,0.01,0.00,0.00
2026-06-27 09:46:49.962,995.29,995.20,-9.12,-3.98,0.00,-0.16,0.33,9.35,0.00,0.01,0.00,0.00
2026-06-27 09:46:49.963,995.29,995.20,-9.12,-3.98,0.00,-0.16,0.33,9.35,0.00,0.01,0.00,0.00
2026-06-27 09:46:49.969,995.29,995.20,-9.12,-3.98,0.00,-0.16,0.33,9.35,0.00,0.01,0.00,0.00
2026-06-27 09:46:49.971,995.29,995.20,-9.12,-3.98,0.00,-0.12,0.32,9.38,0.00,0.01,-0.00,0.00
2026-06-27 09:46:49.972,995.29,995.20,-9.12,-3.98,0.00,-0.12,0.32,9.38,0.00,0.01,-0.00,0.00
2026-06-27 09:46:49.974,995.29,995.20,-9.12,-3.98,0.00,-0.12,0.32,9.38,0.00,0.01,-0.00,0.00
2026-06-27 09:46:49.975,995.29,995.20,-9.12,-3.98,0.00,-0.12,0.32,9.38,0.00,0.01,-0.00,0.00
2026-06-27 09:46:49.976,995.29,995.20,-9.12,-3.98,0.00,-0.12,0.32,9.38,0.00,0.01,-0.00,0.00
2026-06-27 09:46:49.977,995.29,995.20,-9.12,-3.98,0.00,-0.12,0.32,9.38,0.00,0.01,-0.00,0.00
2026-06-27 09:46:49.980,995.29,995.20,-9.12,-3.98,0.00,-0.12,0.32,9.38,0.00,0.01,-0.00,0.00
2026-06-27 09:46:50.123,995.29,995.20,-9.48,-4.06,0.00,-0.12,0.32,9.37,0.00,0.02,0.00,0.00
2026-06-27 09:46:50.125,995.29,995.20,-9.48,-4.06,0.00,-0.12,0.32,9.37,0.00,0.02,0.00,0.00
2026-06-27 09:46:50.127,995.29,995.20,-9.48,-4.06,0.00,-0.12,0.32,9.37,0.00,0.02,0.00,0.00
2026-06-27 09:46:50.131,995.29,995.20,-9.48,-4.06,0.00,-0.12,0.32,9.37,0.00,0.01,-0.00,0.00
2026-06-27 09:46:50.132,995.29,995.20,-9.48,-4.06,0.00,-0.13,0.32,9.39,0.00,0.01,-0.00,0.00
2026-06-27 09:46:50.134,995.29,995.20,-9.48,-4.06,0.00,-0.13,0.32,9.39,0.00,0.01,-0.00,0.00
2026-06-27 09:46:50.139,995.29,995.20,-9.48,-4.06,0.00,-0.13,0.32,9.39,0.00,0.01,-0.00,0.00
2026-06-27 09:46:50.143,995.29,995.20,-9.48,-4.06,0.00,-0.14,0.32,9.36,0.00,0.02,0.00,0.00
2026-06-27 09:46:50.144,995.29,995.20,-9.48,-4.06,0.00,-0.14,0.32,9.36,0.00,0.02,0.00,0.00
2026-06-27 09:46:50.150,995.29,995.20,-9.48,-4.06,0.00,-0.14,0.32,9.36,0.00,0.02,0.00,0.00
2026-06-27 09:46:50.151,995.29,995.20,-9.48,-4.06,0.00,-0.12,0.35,9.33,0.00,0.02,0.00,0.00
2026-06-27 09:46:50.153,995.29,995.20,-9.48,-4.06,0.00,-0.12,0.35,9.33,0.00,0.02,0.00,0.00
2026-06-27 09:46:50.155,995.29,995.20,-9.48,-4.06,0.00,-0.12,0.35,9.33,0.00,0.02,0.00,0.00
2026-06-27 09:46:50.301,995.30,995.18,-12.27,-4.62,0.00,-0.19,0.36,9.37,0.01,0.03,-0.00,0.00
2026-06-27 09:46:50.303,995.30,995.18,-12.27,-4.62,0.00,-0.21,0.35,9.34,0.01,0.03,-0.00,0.00
2026-06-27 09:46:50.304,995.30,995.18,-12.27,-4.62,0.00,-0.21,0.35,9.34,0.01,0.03,-0.00,0.00
2026-06-27 09:46:50.311,995.30,995.18,-12.27,-4.62,0.00,-0.21,0.35,9.34,0.01,0.03,-0.00,0.00
2026-06-27 09:46:50.312,995.30,995.18,-12.27,-4.62,0.00,-0.23,0.37,9.39,0.00,0.03,-0.00,0.00
2026-06-27 09:46:50.313,995.30,995.18,-12.27,-4.62,0.00,-0.23,0.37,9.39,0.00,0.03,-0.00,0.00
2026-06-27 09:46:50.315,995.30,995.18,-12.27,-4.62,0.00,-0.23,0.37,9.39,0.00,0.03,-0.00,0.00
2026-06-27 09:46:50.321,995.30,995.18,-12.27,-4.62,0.00,-0.23,0.37,9.39,0.00,0.03,-0.00,0.00
2026-06-27 09:46:50.324,995.30,995.18,-12.27,-4.62,0.00,-0.22,0.39,9.35,0.00,0.03,-0.00,0.00
2026-06-27 09:46:50.326,995.30,995.18,-12.27,-4.62,0.00,-0.22,0.39,9.35,0.00,0.03,-0.00,0.00
2026-06-27 09:46:50.327,995.30,995.18,-12.27,-4.62,0.00,-0.22,0.39,9.35,0.00,0.03,-0.00,0.00
2026-06-27 09:46:50.329,995.30,995.18,-12.27,-4.62,0.00,-0.22,0.39,9.35,0.00,0.03,-0.00,0.00
2026-06-27 09:46:50.330,995.30,995.18,-12.27,-4.62,0.00,-0.22,0.39,9.35,0.00,0.03,-0.00,0.00
2026-06-27 09:46:50.332,995.30,995.18,-12.27,-4.62,0.00,-0.22,0.37,9.35,0.00,0.03,0.00,0.00
2026-06-27 09:46:50.474,995.31,995.20,-10.91,-4.35,0.00,-0.31,0.34,9.35,0.00,0.00,0.00,0.00
2026-06-27 09:46:50.475,995.31,995.20,-10.91,-4.35,0.00,-0.31,0.34,9.35,0.00,0.00,0.00,0.00
2026-06-27 09:46:50.476,995.31,995.20,-10.91,-4.35,0.00,-0.31,0.34,9.35,0.00,0.00,0.00,0.00
2026-06-27 09:46:50.477,995.31,995.20,-10.91,-4.35,0.00,-0.31,0.34,9.35,0.00,0.00,0.00,0.00
2026-06-27 09:46:50.479,995.31,995.20,-10.91,-4.35,0.00,-0.31,0.34,9.35,0.00,0.00,0.00,0.00
2026-06-27 09:46:50.482,995.31,995.20,-10.91,-4.35,0.00,-0.31,0.34,9.35,0.00,0.00,0.00,0.00
2026-06-27 09:46:50.483,995.31,995.20,-10.91,-4.35,0.00,-0.32,0.34,9.37,0.00,0.00,0.00,0.00
2026-06-27 09:46:50.485,995.31,995.20,-10.91,-4.35,0.00,-0.32,0.34,9.37,0.00,0.00,0.00,0.00
2026-06-27 09:46:50.491,995.31,995.20,-10.91,-4.35,0.00,-0.32,0.34,9.37,0.00,0.00,0.00,0.00
2026-06-27 09:46:50.494,995.31,995.20,-10.91,-4.35,0.00,-0.33,0.34,9.36,0.00,0.00,-0.00,0.00
2026-06-27 09:46:50.497,995.31,995.20,-10.91,-4.35,0.00,-0.33,0.34,9.36,0.00,0.00,-0.00,0.00
2026-06-27 09:46:50.502,995.31,995.20,-10.91,-4.35,0.00,-0.33,0.34,9.36,0.00,-0.00,-0.00,0.00
2026-06-27 09:46:50.504,995.31,995.20,-10.91,-4.35,0.00,-0.30,0.33,9.34,0.00,-0.00,-0.00,0.00
2026-06-27 09:46:50.510,995.31,995.20,-10.91,-4.35,0.00,-0.30,0.33,9.34,0.00,-0.00,-0.00,0.00
2026-06-27 09:46:50.652,995.30,995.21,-9.36,-4.03,0.00,-0.14,0.39,9.38,-0.00,-0.02,0.00,0.00
2026-06-27 09:46:50.654,995.30,995.21,-9.36,-4.03,0.00,-0.18,0.37,9.33,-0.00,-0.02,0.00,0.00
2026-06-27 09:46:50.656,995.30,995.21,-9.36,-4.03,0.00,-0.18,0.37,9.33,-0.00,-0.02,0.00,0.00
2026-06-27 09:46:50.659,995.30,995.21,-9.36,-4.03,0.00,-0.18,0.37,9.33,-0.00,-0.02,0.00,0.00
2026-06-27 09:46:50.662,995.30,995.21,-9.36,-4.03,0.00,-0.18,0.37,9.33,-0.00,-0.02,0.00,0.00
2026-06-27 09:46:50.663,995.30,995.21,-9.36,-4.03,0.00,-0.19,0.37,9.36,-0.00,-0.02,0.00,0.00
2026-06-27 09:46:50.665,995.30,995.21,-9.36,-4.03,0.00,-0.19,0.37,9.36,-0.00,-0.02,0.00,0.00
2026-06-27 09:46:50.666,995.30,995.21,-9.36,-4.03,0.00,-0.19,0.37,9.36,-0.00,-0.02,0.00,0.00
2026-06-27 09:46:50.672,995.30,995.21,-9.36,-4.03,0.00,-0.19,0.37,9.36,0.00,-0.02,-0.00,0.00
2026-06-27 09:46:50.674,995.30,995.21,-9.36,-4.03,0.00,-0.13,0.36,9.37,0.00,-0.02,-0.00,0.00
2026-06-27 09:46:50.676,995.30,995.21,-9.36,-4.03,0.00,-0.13,0.36,9.37,0.00,-0.02,-0.00,0.00
2026-06-27 09:46:50.677,995.30,995.21,-9.36,-4.03,0.00,-0.13,0.36,9.37,0.00,-0.02,-0.00,0.00
2026-06-27 09:46:50.678,995.30,995.21,-9.36,-4.03,0.00,-0.13,0.36,9.37,0.00,-0.02,-0.00,0.00
2026-06-27 09:46:50.679,995.30,995.21,-9.36,-4.03,0.00,-0.13,0.36,9.37,0.00,-0.02,-0.00,0.00
2026-06-27 09:46:50.682,995.30,995.21,-9.36,-4.03,0.00,-0.13,0.36,9.37,-0.00,-0.02,0.00,0.00
2026-06-27 09:46:50.823,995.31,995.18,-12.54,-4.67,0.00,-0.19,0.34,9.39,0.00,-0.01,0.00,0.00
2026-06-27 09:46:50.824,995.31,995.18,-12.54,-4.67,0.00,-0.14,0.34,9.37,0.00,-0.01,0.00,0.00
2026-06-27 09:46:50.825,995.31,995.18,-12.54,-4.67,0.00,-0.14,0.34,9.37,0.00,-0.01,0.00,0.00
2026-06-27 09:46:50.827,995.31,995.18,-12.54,-4.67,0.00,-0.14,0.34,9.37,0.00,-0.01,0.00,0.00
2026-06-27 09:46:50.828,995.31,995.18,-12.54,-4.67,0.00,-0.14,0.34,9.37,0.00,-0.01,0.00,0.00
2026-06-27 09:46:50.832,995.31,995.18,-12.54,-4.67,0.00,-0.14,0.34,9.37,0.00,-0.01,0.00,0.00
2026-06-27 09:46:50.834,995.31,995.18,-12.54,-4.67,0.00,-0.13,0.35,9.39,0.00,-0.01,0.00,0.00
2026-06-27 09:46:50.836,995.31,995.18,-12.54,-4.67,0.00,-0.13,0.35,9.39,0.00,-0.01,0.00,0.00
2026-06-27 09:46:50.842,995.31,995.18,-12.54,-4.67,0.00,-0.13,0.35,9.39,0.00,-0.01,0.00,0.00
2026-06-27 09:46:50.844,995.31,995.18,-12.54,-4.67,0.00,-0.14,0.33,9.35,0.00,-0.01,0.00,0.00
2026-06-27 09:46:50.845,995.31,995.18,-12.54,-4.67,0.00,-0.14,0.33,9.35,0.00,-0.01,0.00,0.00
2026-06-27 09:46:50.846,995.31,995.18,-12.54,-4.67,0.00,-0.14,0.33,9.35,0.00,-0.01,0.00,0.00
2026-06-27 09:46:50.852,995.31,995.18,-12.54,-4.67,0.00,-0.14,0.33,9.35,0.00,-0.01,0.00,0.00
2026-06-27 09:46:50.854,995.31,995.18,-12.54,-4.67,0.00,-0.16,0.33,9.36,0.00,-0.00,0.00,0.00
2026-06-27 09:46:50.856,995.31,995.18,-12.54,-4.67,0.00,-0.16,0.33,9.36,0.00,-0.00,0.00,0.00
2026-06-27 09:46:50.857,995.31,995.18,-12.54,-4.67,0.00,-0.16,0.33,9.36,0.00,-0.00,0.00,0.00
2026-06-27 09:46:50.994,995.31,995.18,-12.59,-4.68,0.00,-0.22,0.35,9.40,-0.00,-0.01,-0.00,0.00
2026-06-27 09:46:50.995,995.31,995.18,-12.59,-4.68,0.00,-0.23,0.37,9.39,-0.00,-0.01,-0.00,0.00
2026-06-27 09:46:50.996,995.31,995.18,-12.59,-4.68,0.00,-0.23,0.37,9.39,-0.00,-0.01,-0.00,0.00
2026-06-27 09:46:50.999,995.31,995.18,-12.59,-4.68,0.00,-0.23,0.37,9.39,-0.00,-0.01,-0.00,0.00
2026-06-27 09:46:51.006,995.31,995.18,-12.59,-4.68,0.00,-0.23,0.37,9.39,0.00,-0.01,-0.00,0.00
2026-06-27 09:46:51.012,995.31,995.18,-12.59,-4.68,0.00,-0.22,0.36,9.34,0.00,-0.01,-0.00,0.00
2026-06-27 09:46:51.013,995.31,995.18,-12.59,-4.68,0.00,-0.20,0.35,9.36,-0.00,-0.01,0.00,0.00
2026-06-27 09:46:51.015,995.31,995.18,-12.59,-4.68,0.00,-0.20,0.35,9.36,-0.00,-0.01,0.00,0.00
2026-06-27 09:46:51.017,995.31,995.18,-12.59,-4.68,0.00,-0.20,0.35,9.36,-0.00,-0.01,0.00,0.00
2026-06-27 09:46:51.023,995.31,995.18,-12.59,-4.68,0.00,-0.20,0.35,9.36,-0.00,-0.01,0.00,0.00
2026-06-27 09:46:51.024,995.31,995.18,-12.59,-4.68,0.00,-0.20,0.34,9.38,-0.00,-0.02,0.00,0.00
2026-06-27 09:46:51.026,995.31,995.18,-12.59,-4.68,0.00,-0.20,0.34,9.38,-0.00,-0.02,0.00,0.00
2026-06-27 09:46:51.028,995.31,995.18,-12.59,-4.68,0.00,-0.20,0.34,9.38,-0.00,-0.02,0.00,0.00
2026-06-27 09:46:51.030,995.31,995.18,-12.59,-4.68,0.00,-0.20,0.34,9.38,-0.00,-0.02,0.00,0.00
2026-06-27 09:46:51.181,995.32,995.22,-10.10,-4.19,0.00,-0.13,0.35,9.37,-0.01,-0.03,0.00,0.00
2026-06-27 09:46:51.185,995.32,995.22,-10.10,-4.19,0.00,-0.11,0.36,9.35,-0.01,-0.03,0.00,0.00
2026-06-27 09:46:51.189,995.32,995.22,-10.10,-4.19,0.00,-0.11,0.36,9.35,-0.01,-0.03,0.00,0.00
2026-06-27 09:46:51.190,995.32,995.22,-10.10,-4.19,0.00,-0.11,0.36,9.35,-0.01,-0.03,0.00,0.00
2026-06-27 09:46:51.193,995.32,995.22,-10.10,-4.19,0.00,-0.11,0.36,9.35,-0.00,-0.03,-0.00,0.00
2026-06-27 09:46:51.197,995.32,995.22,-10.10,-4.19,0.00,-0.06,0.34,9.39,-0.00,-0.03,-0.00,0.00
2026-06-27 09:46:51.204,995.32,995.22,-10.10,-4.19,0.00,-0.06,0.34,9.39,-0.00,-0.03,-0.00,0.00
2026-06-27 09:46:51.207,995.32,995.22,-10.10,-4.19,0.00,-0.03,0.33,9.37,-0.00,-0.03,-0.00,0.00
2026-06-27 09:46:51.356,995.30,995.20,-9.38,-4.04,0.00,-0.01,0.30,9.32,0.00,0.01,0.00,0.00
2026-06-27 09:46:51.357,995.30,995.20,-9.38,-4.04,0.00,-0.01,0.30,9.32,0.00,0.01,0.00,0.00
2026-06-27 09:46:51.360,995.30,995.20,-9.38,-4.04,0.00,-0.01,0.30,9.32,0.00,0.01,0.00,0.00
2026-06-27 09:46:51.364,995.30,995.20,-9.38,-4.04,0.00,-0.01,0.30,9.32,0.00,0.01,0.00,0.00
2026-06-27 09:46:51.369,995.30,995.20,-9.38,-4.04,0.00,-0.03,0.30,9.38,0.00,0.01,0.00,0.00
2026-06-27 09:46:51.375,995.30,995.20,-9.38,-4.04,0.00,-0.03,0.30,9.38,0.00,0.01,0.00,0.00
2026-06-27 09:46:51.377,995.30,995.20,-9.38,-4.04,0.00,-0.06,0.28,9.38,0.00,0.01,0.00,0.00
2026-06-27 09:46:51.378,995.30,995.20,-9.38,-4.04,0.00,-0.06,0.28,9.38,0.00,0.01,0.00,0.00
2026-06-27 09:46:51.380,995.30,995.20,-9.38,-4.04,0.00,-0.06,0.28,9.38,0.00,0.01,0.00,0.00
2026-06-27 09:46:51.384,995.30,995.20,-9.38,-4.04,0.00,-0.06,0.28,9.38,0.00,0.01,0.00,0.00
2026-06-27 09:46:51.389,995.30,995.20,-9.38,-4.04,0.00,-0.06,0.29,9.39,0.00,0.01,-0.00,0.00
2026-06-27 09:46:51.394,995.30,995.20,-9.38,-4.04,0.00,-0.06,0.29,9.39,0.00,0.02,-0.00,0.00
2026-06-27 09:46:51.536,995.30,995.19,-10.69,-4.31,0.00,-0.22,0.31,9.37,-0.00,-0.00,0.00,0.00
2026-06-27 09:46:51.537,995.30,995.19,-10.69,-4.31,0.00,-0.22,0.31,9.37,-0.00,-0.00,0.00,0.00
2026-06-27 09:46:51.540,995.30,995.19,-10.69,-4.31,0.00,-0.22,0.31,9.37,-0.00,-0.00,0.00,0.00
2026-06-27 09:46:51.545,995.30,995.19,-10.69,-4.31,0.00,-0.22,0.31,9.37,-0.00,-0.00,0.00,0.00
2026-06-27 09:46:51.547,995.30,995.19,-10.69,-4.31,0.00,-0.19,0.30,9.37,-0.00,-0.00,0.00,0.00
2026-06-27 09:46:51.548,995.30,995.19,-10.69,-4.31,0.00,-0.19,0.30,9.37,-0.00,-0.00,0.00,0.00
2026-06-27 09:46:51.554,995.30,995.19,-10.69,-4.31,0.00,-0.19,0.30,9.37,-0.00,-0.00,0.00,0.00
2026-06-27 09:46:51.555,995.30,995.19,-10.69,-4.31,0.00,-0.16,0.31,9.36,0.00,-0.00,0.00,0.00
2026-06-27 09:46:51.557,995.30,995.19,-10.69,-4.31,0.00,-0.16,0.31,9.36,0.00,-0.00,0.00,0.00
2026-06-27 09:46:51.558,995.30,995.19,-10.69,-4.31,0.00,-0.16,0.31,9.36,0.00,-0.00,0.00,0.00
2026-06-27 09:46:51.559,995.30,995.19,-10.69,-4.31,0.00,-0.16,0.31,9.36,0.00,-0.00,0.00,0.00
2026-06-27 09:46:51.564,995.30,995.19,-10.69,-4.31,0.00,-0.16,0.31,9.36,-0.00,-0.01,0.00,0.00
2026-06-27 09:46:51.566,995.30,995.19,-10.69,-4.31,0.00,-0.14,0.30,9.37,-0.00,-0.01,0.00,0.00
2026-06-27 09:46:51.567,995.30,995.19,-10.69,-4.31,0.00,-0.14,0.30,9.37,-0.00,-0.01,0.00,0.00
2026-06-27 09:46:51.571,995.30,995.19,-10.69,-4.31,0.00,-0.14,0.30,9.37,-0.00,-0.01,0.00,0.00
2026-06-27 09:46:51.715,995.29,995.20,-9.10,-3.98,0.00,-0.11,0.30,9.37,-0.00,-0.03,0.00,0.00
2026-06-27 09:46:51.716,995.29,995.20,-9.10,-3.98,0.00,-0.09,0.30,9.37,-0.00,-0.03,0.00,0.00
2026-06-27 09:46:51.718,995.29,995.20,-9.10,-3.98,0.00,-0.09,0.30,9.37,-0.00,-0.03,0.00,0.00
2026-06-27 09:46:51.722,995.29,995.20,-9.10,-3.98,0.00,-0.09,0.30,9.37,-0.00,-0.03,0.00,0.00
2026-06-27 09:46:51.725,995.29,995.20,-9.10,-3.98,0.00,-0.09,0.30,9.37,-0.00,-0.03,0.00,0.00
2026-06-27 09:46:51.726,995.29,995.20,-9.10,-3.98,0.00,-0.07,0.31,9.37,-0.00,-0.03,0.00,0.00
2026-06-27 09:46:51.728,995.29,995.20,-9.10,-3.98,0.00,-0.07,0.31,9.37,-0.00,-0.03,0.00,0.00
2026-06-27 09:46:51.729,995.29,995.20,-9.10,-3.98,0.00,-0.07,0.31,9.37,-0.00,-0.03,0.00,0.00
2026-06-27 09:46:51.731,995.29,995.20,-9.10,-3.98,0.00,-0.07,0.31,9.37,-0.00,-0.03,0.00,0.00
2026-06-27 09:46:51.735,995.29,995.20,-9.10,-3.98,0.00,-0.07,0.31,9.37,-0.00,-0.03,0.00,0.00
2026-06-27 09:46:51.736,995.29,995.20,-9.10,-3.98,0.00,-0.08,0.31,9.38,-0.00,-0.03,0.00,0.00
2026-06-27 09:46:51.738,995.29,995.20,-9.10,-3.98,0.00,-0.08,0.31,9.38,-0.00,-0.03,0.00,0.00
2026-06-27 09:46:51.739,995.29,995.20,-9.10,-3.98,0.00,-0.08,0.31,9.38,-0.00,-0.03,0.00,0.00
2026-06-27 09:46:51.741,995.29,995.20,-9.10,-3.98,0.00,-0.08,0.31,9.38,-0.00,-0.03,0.00,0.00
2026-06-27 09:46:51.742,995.29,995.20,-9.10,-3.98,0.00,-0.08,0.31,9.38,-0.00,-0.03,0.00,0.00
2026-06-27 09:46:51.743,995.29,995.20,-9.10,-3.98,0.00,-0.08,0.31,9.38,-0.00,-0.03,0.00,0.00
2026-06-27 09:46:51.745,995.29,995.20,-9.10,-3.98,0.00,-0.08,0.31,9.38,-0.00,-0.02,0.00,0.00
2026-06-27 09:46:51.747,995.29,995.20,-9.10,-3.98,0.00,0.00,0.29,9.36,-0.00,-0.02,0.00,0.00
2026-06-27 09:46:51.887,995.30,995.19,-10.55,-4.28,0.00,-0.04,0.33,9.36,0.00,0.03,-0.00,0.00
2026-06-27 09:46:51.889,995.30,995.19,-10.55,-4.28,0.00,-0.04,0.33,9.36,0.00,0.03,-0.00,0.00
2026-06-27 09:46:51.891,995.30,995.19,-10.55,-4.28,0.00,-0.04,0.33,9.36,0.00,0.03,-0.00,0.00
2026-06-27 09:46:51.892,995.30,995.19,-10.55,-4.28,0.00,-0.04,0.33,9.36,0.00,0.03,-0.00,0.00
2026-06-27 09:46:51.894,995.30,995.19,-10.55,-4.28,0.00,-0.04,0.33,9.36,0.00,0.03,-0.00,0.00
2026-06-27 09:46:51.895,995.30,995.19,-10.55,-4.28,0.00,-0.04,0.33,9.36,0.00,0.03,-0.00,0.00
2026-06-27 09:46:51.896,995.30,995.19,-10.55,-4.28,0.00,-0.05,0.33,9.40,0.00,0.03,-0.00,0.00
2026-06-27 09:46:51.897,995.30,995.19,-10.55,-4.28,0.00,-0.05,0.33,9.40,0.00,0.03,-0.00,0.00
2026-06-27 09:46:51.899,995.30,995.19,-10.55,-4.28,0.00,-0.05,0.33,9.40,0.00,0.03,-0.00,0.00
2026-06-27 09:46:51.901,995.30,995.19,-10.55,-4.28,0.00,-0.05,0.33,9.40,0.00,0.03,-0.00,0.00
2026-06-27 09:46:51.905,995.30,995.19,-10.55,-4.28,0.00,-0.05,0.33,9.40,0.01,0.03,-0.00,0.00
2026-06-27 09:46:51.906,995.30,995.19,-10.55,-4.28,0.00,-0.07,0.33,9.36,0.01,0.03,-0.00,0.00
2026-06-27 09:46:51.908,995.30,995.19,-10.55,-4.28,0.00,-0.07,0.33,9.36,0.01,0.03,-0.00,0.00
2026-06-27 09:46:51.909,995.30,995.19,-10.55,-4.28,0.00,-0.07,0.33,9.36,0.01,0.03,-0.00,0.00
2026-06-27 09:46:51.912,995.30,995.19,-10.55,-4.28,0.00,-0.07,0.33,9.36,0.01,0.03,-0.00,0.00
2026-06-27 09:46:51.916,995.30,995.19,-10.55,-4.28,0.00,-0.07,0.33,9.36,0.01,0.03,0.00,0.00
2026-06-27 09:46:51.917,995.30,995.19,-10.55,-4.28,0.00,-0.08,0.32,9.39,0.01,0.03,0.00,0.00
2026-06-27 09:46:51.919,995.30,995.19,-10.55,-4.28,0.00,-0.08,0.32,9.39,0.01,0.03,0.00,0.00
2026-06-27 09:46:51.924,995.30,995.19,-10.55,-4.28,0.00,-0.08,0.32,9.39,0.01,0.03,0.00,0.00
2026-06-27 09:46:52.066,995.30,995.19,-10.92,-4.36,0.00,-0.19,0.33,9.35,0.00,0.03,-0.00,0.00
2026-06-27 09:46:52.068,995.30,995.19,-10.92,-4.36,0.00,-0.23,0.36,9.38,0.00,0.03,-0.00,0.00
2026-06-27 09:46:52.069,995.30,995.19,-10.92,-4.36,0.00,-0.23,0.36,9.38,0.00,0.03,-0.00,0.00
2026-06-27 09:46:52.074,995.30,995.19,-10.92,-4.36,0.00,-0.23,0.36,9.38,0.00,0.03,-0.00,0.00
2026-06-27 09:46:52.076,995.30,995.19,-10.92,-4.36,0.00,-0.23,0.37,9.37,0.01,0.03,-0.00,0.00
2026-06-27 09:46:52.077,995.30,995.19,-10.92,-4.36,0.00,-0.23,0.37,9.37,0.01,0.03,-0.00,0.00
2026-06-27 09:46:52.079,995.30,995.19,-10.92,-4.36,0.00,-0.23,0.37,9.37,0.01,0.03,-0.00,0.00
2026-06-27 09:46:52.080,995.30,995.19,-10.92,-4.36,0.00,-0.23,0.37,9.37,0.01,0.03,-0.00,0.00
2026-06-27 09:46:52.081,995.30,995.19,-10.92,-4.36,0.00,-0.23,0.37,9.37,0.01,0.03,-0.00,0.00
2026-06-27 09:46:52.083,995.30,995.19,-10.92,-4.36,0.00,-0.23,0.37,9.37,0.01,0.03,-0.00,0.00
2026-06-27 09:46:52.084,995.30,995.19,-10.92,-4.36,0.00,-0.23,0.37,9.37,0.01,0.03,-0.00,0.00
2026-06-27 09:46:52.086,995.30,995.19,-10.92,-4.36,0.00,-0.18,0.33,9.35,0.00,0.03,-0.00,0.00
2026-06-27 09:46:52.087,995.30,995.19,-10.92,-4.36,0.00,-0.18,0.33,9.35,0.00,0.03,-0.00,0.00
2026-06-27 09:46:52.089,995.30,995.19,-10.92,-4.36,0.00,-0.18,0.33,9.35,0.00,0.03,-0.00,0.00
2026-06-27 09:46:52.090,995.30,995.19,-10.92,-4.36,0.00,-0.18,0.33,9.35,0.00,0.03,-0.00,0.00
2026-06-27 09:46:52.091,995.30,995.19,-10.92,-4.36,0.00,-0.18,0.33,9.35,0.00,0.03,-0.00,0.00
2026-06-27 09:46:52.092,995.30,995.19,-10.92,-4.36,0.00,-0.18,0.33,9.35,0.00,0.03,-0.00,0.00
2026-06-27 09:46:52.096,995.30,995.19,-10.92,-4.36,0.00,-0.18,0.33,9.35,0.00,0.03,-0.00,0.00
2026-06-27 09:46:52.098,995.30,995.19,-10.92,-4.36,0.00,-0.19,0.33,9.38,0.00,0.03,-0.00,0.00
2026-06-27 09:46:52.099,995.30,995.19,-10.92,-4.36,0.00,-0.19,0.33,9.38,0.00,0.03,-0.00,0.00
2026-06-27 09:46:52.241,995.31,995.18,-12.69,-4.70,0.00,-0.24,0.31,9.39,0.00,0.01,0.00,0.00
2026-06-27 09:46:52.246,995.31,995.18,-12.69,-4.70,0.00,-0.24,0.31,9.39,0.00,0.00,-0.00,0.00
2026-06-27 09:46:52.247,995.31,995.18,-12.69,-4.70,0.00,-0.13,0.33,9.37,0.00,0.00,-0.00,0.00
2026-06-27 09:46:52.248,995.31,995.18,-12.69,-4.70,0.00,-0.13,0.33,9.37,0.00,0.00,-0.00,0.00
2026-06-27 09:46:52.250,995.31,995.18,-12.69,-4.70,0.00,-0.13,0.33,9.37,0.00,0.00,-0.00,0.00
2026-06-27 09:46:52.256,995.31,995.18,-12.69,-4.70,0.00,-0.13,0.33,9.37,0.00,0.01,-0.00,0.00
2026-06-27 09:46:52.257,995.31,995.18,-12.69,-4.70,0.00,-0.16,0.32,9.36,0.00,0.01,-0.00,0.00
2026-06-27 09:46:52.258,995.31,995.18,-12.69,-4.70,0.00,-0.16,0.32,9.36,0.00,0.01,-0.00,0.00
2026-06-27 09:46:52.260,995.31,995.18,-12.69,-4.70,0.00,-0.16,0.32,9.36,0.00,0.01,-0.00,0.00
2026-06-27 09:46:52.261,995.31,995.18,-12.69,-4.70,0.00,-0.16,0.32,9.36,0.00,0.01,-0.00,0.00
2026-06-27 09:46:52.266,995.31,995.18,-12.69,-4.70,0.00,-0.16,0.32,9.36,0.00,0.01,-0.00,0.00
2026-06-27 09:46:52.267,995.31,995.18,-12.69,-4.70,0.00,-0.18,0.31,9.36,0.00,0.01,-0.00,0.00
2026-06-27 09:46:52.272,995.31,995.18,-12.69,-4.70,0.00,-0.18,0.31,9.36,0.00,0.01,-0.00,0.00
2026-06-27 09:46:52.276,995.31,995.18,-12.69,-4.70,0.00,-0.18,0.31,9.36,0.00,0.01,-0.01,0.00
2026-06-27 09:46:52.417,995.28,995.20,-8.45,-3.83,0.00,-0.25,0.34,9.38,0.00,0.02,0.00,0.00
2026-06-27 09:46:52.419,995.28,995.20,-8.45,-3.83,0.00,-0.25,0.34,9.38,0.00,0.02,0.00,0.00
2026-06-27 09:46:52.420,995.28,995.20,-8.45,-3.83,0.00,-0.25,0.34,9.38,0.00,0.02,0.00,0.00
2026-06-27 09:46:52.426,995.28,995.20,-8.45,-3.83,0.00,-0.25,0.34,9.38,0.00,0.02,0.00,0.00
2026-06-27 09:46:52.428,995.28,995.20,-8.45,-3.83,0.00,-0.27,0.33,9.37,0.00,0.03,0.00,0.00
2026-06-27 09:46:52.429,995.28,995.20,-8.45,-3.83,0.00,-0.27,0.33,9.37,0.00,0.03,0.00,0.00
2026-06-27 09:46:52.430,995.28,995.20,-8.45,-3.83,0.00,-0.27,0.33,9.37,0.00,0.03,0.00,0.00
2026-06-27 09:46:52.432,995.28,995.20,-8.45,-3.83,0.00,-0.27,0.33,9.37,0.00,0.03,0.00,0.00
2026-06-27 09:46:52.433,995.28,995.20,-8.45,-3.83,0.00,-0.27,0.33,9.37,0.00,0.03,0.00,0.00
2026-06-27 09:46:52.435,995.28,995.20,-8.45,-3.83,0.00,-0.27,0.33,9.37,0.00,0.03,0.00,0.00
2026-06-27 09:46:52.437,995.28,995.20,-8.45,-3.83,0.00,-0.24,0.35,9.38,0.00,0.03,0.00,0.00
2026-06-27 09:46:52.439,995.28,995.20,-8.45,-3.83,0.00,-0.24,0.35,9.38,0.00,0.03,0.00,0.00
2026-06-27 09:46:52.442,995.28,995.20,-8.45,-3.83,0.00,-0.24,0.35,9.38,0.00,0.03,0.00,0.00
2026-06-27 09:46:52.443,995.28,995.20,-8.45,-3.83,0.00,-0.24,0.35,9.38,0.00,0.03,0.00,0.00
2026-06-27 09:46:52.444,995.28,995.20,-8.45,-3.83,0.00,-0.24,0.35,9.38,0.00,0.03,0.00,0.00
2026-06-27 09:46:52.445,995.28,995.20,-8.45,-3.83,0.00,-0.24,0.35,9.38,0.00,0.03,0.00,0.00
2026-06-27 09:46:52.447,995.28,995.20,-8.45,-3.83,0.00,-0.22,0.34,9.35,0.00,0.02,0.00,0.00
2026-06-27 09:46:52.448,995.28,995.20,-8.45,-3.83,0.00,-0.22,0.34,9.35,0.00,0.02,0.00,0.00
2026-06-27 09:46:52.451,995.28,995.20,-8.45,-3.83,0.00,-0.22,0.34,9.35,0.00,0.02,0.00,0.00
2026-06-27 09:46:52.597,995.29,995.20,-9.33,-4.03,0.00,-0.27,0.34,9.39,0.00,-0.01,-0.00,0.00
2026-06-27 09:46:52.598,995.29,995.20,-9.33,-4.03,0.00,-0.21,0.34,9.38,0.00,-0.01,-0.00,0.00
2026-06-27 09:46:52.600,995.29,995.20,-9.33,-4.03,0.00,-0.21,0.34,9.38,0.00,-0.01,-0.00,0.00
2026-06-27 09:46:52.604,995.29,995.20,-9.33,-4.03,0.00,-0.21,0.34,9.38,0.00,-0.01,-0.00,0.00
2026-06-27 09:46:52.607,995.29,995.20,-9.33,-4.03,0.00,-0.21,0.34,9.38,0.00,-0.01,0.00,0.00
2026-06-27 09:46:52.608,995.29,995.20,-9.33,-4.03,0.00,-0.22,0.32,9.34,0.00,-0.01,0.00,0.00
2026-06-27 09:46:52.609,995.29,995.20,-9.33,-4.03,0.00,-0.22,0.32,9.34,0.00,-0.01,0.00,0.00
2026-06-27 09:46:52.611,995.29,995.20,-9.33,-4.03,0.00,-0.22,0.32,9.34,0.00,-0.01,0.00,0.00
2026-06-27 09:46:52.614,995.29,995.20,-9.33,-4.03,0.00,-0.22,0.32,9.34,0.00,-0.01,0.00,0.00
2026-06-27 09:46:52.617,995.29,995.20,-9.33,-4.03,0.00,-0.22,0.32,9.34,-0.00,-0.01,0.00,0.00
2026-06-27 09:46:52.620,995.29,995.20,-9.33,-4.03,0.00,-0.23,0.34,9.33,-0.00,-0.01,0.00,0.00
2026-06-27 09:46:52.627,995.29,995.20,-9.33,-4.03,0.00,-0.23,0.34,9.33,-0.00,-0.01,0.00,0.00
2026-06-27 09:46:52.628,995.29,995.20,-9.33,-4.03,0.00,-0.22,0.33,9.38,-0.00,-0.01,0.00,0.00
2026-06-27 09:46:52.770,995.30,995.20,-10.18,-4.21,0.00,-0.20,0.35,9.36,0.00,0.00,0.00,0.00
2026-06-27 09:46:52.771,995.30,995.20,-10.18,-4.21,0.00,-0.20,0.35,9.36,0.00,0.00,0.00,0.00
2026-06-27 09:46:52.777,995.30,995.20,-10.18,-4.21,0.00,-0.20,0.35,9.36,0.00,0.00,0.00,0.00
2026-06-27 09:46:52.778,995.30,995.20,-10.18,-4.21,0.00,-0.20,0.36,9.39,0.00,0.00,0.00,0.00
2026-06-27 09:46:52.780,995.30,995.20,-10.18,-4.21,0.00,-0.20,0.36,9.39,0.00,0.00,0.00,0.00
2026-06-27 09:46:52.781,995.30,995.20,-10.18,-4.21,0.00,-0.20,0.36,9.39,0.00,0.00,0.00,0.00
2026-06-27 09:46:52.782,995.30,995.20,-10.18,-4.21,0.00,-0.20,0.36,9.39,0.00,0.00,0.00,0.00
2026-06-27 09:46:52.784,995.30,995.20,-10.18,-4.21,0.00,-0.20,0.36,9.39,0.00,0.00,0.00,0.00
2026-06-27 09:46:52.786,995.30,995.20,-10.18,-4.21,0.00,-0.20,0.36,9.39,0.00,0.00,0.00,0.00
2026-06-27 09:46:52.789,995.30,995.20,-10.18,-4.21,0.00,-0.21,0.37,9.39,-0.00,0.00,0.00,0.00
2026-06-27 09:46:52.790,995.30,995.20,-10.18,-4.21,0.00,-0.21,0.37,9.39,-0.00,0.00,0.00,0.00
2026-06-27 09:46:52.791,995.30,995.20,-10.18,-4.21,0.00,-0.21,0.37,9.39,-0.00,0.00,0.00,0.00
2026-06-27 09:46:52.797,995.30,995.20,-10.18,-4.21,0.00,-0.21,0.37,9.39,-0.00,0.00,0.00,0.00
2026-06-27 09:46:52.799,995.30,995.20,-10.18,-4.21,0.00,-0.18,0.39,9.37,0.00,-0.00,0.00,0.00
2026-06-27 09:46:52.800,995.30,995.20,-10.18,-4.21,0.00,-0.18,0.39,9.37,0.00,-0.00,0.00,0.00
2026-06-27 09:46:52.802,995.30,995.20,-10.18,-4.21,0.00,-0.18,0.39,9.37,0.00,-0.00,0.00,0.00
2026-06-27 09:46:52.807,995.30,995.20,-10.18,-4.21,0.00,-0.18,0.39,9.37,0.00,-0.00,0.00,0.00
2026-06-27 09:46:52.948,995.29,995.20,-9.02,-3.96,0.00,-0.21,0.41,9.35,-0.00,0.00,0.00,0.00
2026-06-27 09:46:52.950,995.29,995.20,-9.02,-3.96,0.00,-0.22,0.42,9.38,-0.00,0.00,0.00,0.00
2026-06-27 09:46:52.951,995.29,995.20,-9.02,-3.96,0.00,-0.22,0.42,9.38,-0.00,0.00,0.00,0.00
2026-06-27 09:46:52.957,995.29,995.20,-9.02,-3.96,0.00,-0.22,0.42,9.38,-0.00,0.00,0.00,0.00
2026-06-27 09:46:52.958,995.29,995.20,-9.02,-3.96,0.00,-0.21,0.40,9.34,0.00,0.00,0.00,0.00
2026-06-27 09:46:52.960,995.29,995.20,-9.02,-3.96,0.00,-0.21,0.40,9.34,0.00,0.00,0.00,0.00
2026-06-27 09:46:52.961,995.29,995.20,-9.02,-3.96,0.00,-0.21,0.40,9.34,0.00,0.00,0.00,0.00
2026-06-27 09:46:52.962,995.29,995.20,-9.02,-3.96,0.00,-0.21,0.40,9.34,0.00,0.00,0.00,0.00
2026-06-27 09:46:52.963,995.29,995.20,-9.02,-3.96,0.00,-0.21,0.40,9.34,0.00,0.00,0.00,0.00
2026-06-27 09:46:52.968,995.29,995.20,-9.02,-3.96,0.00,-0.21,0.40,9.34,-0.00,0.00,0.00,0.00
2026-06-27 09:46:52.969,995.29,995.20,-9.02,-3.96,0.00,-0.21,0.40,9.34,-0.00,0.00,0.00,0.00
2026-06-27 09:46:52.971,995.29,995.20,-9.02,-3.96,0.00,-0.21,0.40,9.34,-0.00,0.00,0.00,0.00
2026-06-27 09:46:52.976,995.29,995.20,-9.02,-3.96,0.00,-0.21,0.40,9.34,-0.00,0.00,0.00,0.00
2026-06-27 09:46:52.978,995.29,995.20,-9.02,-3.96,0.00,-0.19,0.41,9.35,0.00,-0.00,-0.00,0.00
2026-06-27 09:46:52.980,995.29,995.20,-9.02,-3.96,0.00,-0.19,0.41,9.35,0.00,-0.00,-0.00,0.00
2026-06-27 09:46:53.120,995.29,995.21,-8.33,-3.80,0.00,-0.21,0.36,9.34,0.00,-0.01,-0.00,0.00
2026-06-27 09:46:53.123,995.29,995.21,-8.33,-3.80,0.00,-0.21,0.36,9.34,0.00,-0.01,-0.00,0.00
2026-06-27 09:46:53.128,995.29,995.21,-8.33,-3.80,0.00,-0.21,0.36,9.34,-0.00,-0.00,0.00,0.00
2026-06-27 09:46:53.129,995.29,995.21,-8.33,-3.80,0.00,-0.21,0.35,9.36,-0.00,-0.00,0.00,0.00
2026-06-27 09:46:53.131,995.29,995.21,-8.33,-3.80,0.00,-0.21,0.35,9.36,-0.00,-0.00,0.00,0.00
2026-06-27 09:46:53.134,995.29,995.21,-8.33,-3.80,0.00,-0.21,0.35,9.36,-0.00,-0.00,0.00,0.00
2026-06-27 09:46:53.135,995.29,995.21,-8.33,-3.80,0.00,-0.21,0.35,9.36,-0.00,-0.00,0.00,0.00
2026-06-27 09:46:53.138,995.29,995.21,-8.33,-3.80,0.00,-0.21,0.35,9.36,-0.00,-0.01,0.00,0.00
2026-06-27 09:46:53.140,995.29,995.21,-8.33,-3.80,0.00,-0.20,0.34,9.37,-0.00,-0.01,0.00,0.00
2026-06-27 09:46:53.141,995.29,995.21,-8.33,-3.80,0.00,-0.20,0.34,9.37,-0.00,-0.01,0.00,0.00
2026-06-27 09:46:53.142,995.29,995.21,-8.33,-3.80,0.00,-0.20,0.34,9.37,-0.00,-0.01,0.00,0.00
2026-06-27 09:46:53.148,995.29,995.21,-8.33,-3.80,0.00,-0.20,0.34,9.37,0.00,-0.01,0.00,0.00
2026-06-27 09:46:53.150,995.29,995.21,-8.33,-3.80,0.00,-0.23,0.35,9.39,0.00,-0.01,0.00,0.00
2026-06-27 09:46:53.151,995.29,995.21,-8.33,-3.80,0.00,-0.23,0.35,9.39,0.00,-0.01,0.00,0.00
2026-06-27 09:46:53.153,995.29,995.21,-8.33,-3.80,0.00,-0.23,0.35,9.39,0.00,-0.01,0.00,0.00
2026-06-27 09:46:53.158,995.29,995.21,-8.33,-3.80,0.00,-0.23,0.35,9.39,-0.00,-0.01,-0.00,0.00
2026-06-27 09:46:53.300,995.29,995.19,-9.84,-4.14,0.00,-0.23,0.33,9.35,0.00,-0.01,0.00,0.00
2026-06-27 09:46:53.302,995.29,995.19,-9.84,-4.14,0.00,-0.23,0.33,9.35,0.00,-0.01,0.00,0.00
2026-06-27 09:46:53.308,995.29,995.19,-9.84,-4.14,0.00,-0.23,0.33,9.35,0.00,-0.01,0.00,0.00
2026-06-27 09:46:53.310,995.29,995.19,-9.84,-4.14,0.00,-0.23,0.34,9.35,-0.00,-0.01,0.00,0.00
2026-06-27 09:46:53.311,995.29,995.19,-9.84,-4.14,0.00,-0.23,0.34,9.35,-0.00,-0.01,0.00,0.00
2026-06-27 09:46:53.312,995.29,995.19,-9.84,-4.14,0.00,-0.23,0.34,9.35,-0.00,-0.01,0.00,0.00
2026-06-27 09:46:53.313,995.29,995.19,-9.84,-4.14,0.00,-0.23,0.34,9.35,-0.00,-0.01,0.00,0.00
2026-06-27 09:46:53.318,995.29,995.19,-9.84,-4.14,0.00,-0.23,0.34,9.35,-0.00,-0.01,0.00,0.00
2026-06-27 09:46:53.320,995.29,995.19,-9.84,-4.14,0.00,-0.19,0.34,9.36,-0.00,-0.01,0.00,0.00
2026-06-27 09:46:53.321,995.29,995.19,-9.84,-4.14,0.00,-0.19,0.34,9.36,-0.00,-0.01,0.00,0.00
2026-06-27 09:46:53.322,995.29,995.19,-9.84,-4.14,0.00,-0.19,0.34,9.36,-0.00,-0.01,0.00,0.00
2026-06-27 09:46:53.328,995.29,995.19,-9.84,-4.14,0.00,-0.19,0.34,9.36,-0.00,-0.01,0.00,0.00
2026-06-27 09:46:53.330,995.29,995.19,-9.84,-4.14,0.00,-0.23,0.33,9.37,-0.00,-0.01,0.00,0.00
2026-06-27 09:46:53.332,995.29,995.19,-9.84,-4.14,0.00,-0.23,0.33,9.37,-0.00,-0.01,0.00,0.00
2026-06-27 09:46:53.334,995.29,995.19,-9.84,-4.14,0.00,-0.23,0.33,9.37,-0.00,-0.01,0.00,0.00
2026-06-27 09:46:53.335,995.29,995.19,-9.84,-4.14,0.00,-0.23,0.33,9.37,-0.00,-0.01,0.00,0.00
2026-06-27 09:46:53.479,995.29,995.19,-9.74,-4.11,0.00,-0.21,0.32,9.38,-0.01,-0.04,0.00,0.00
2026-06-27 09:46:53.482,995.29,995.19,-9.74,-4.11,0.00,-0.17,0.31,9.37,-0.01,-0.04,0.00,0.00
2026-06-27 09:46:53.484,995.29,995.19,-9.74,-4.11,0.00,-0.17,0.31,9.37,-0.01,-0.04,0.00,0.00
2026-06-27 09:46:53.487,995.29,995.19,-9.74,-4.11,0.00,-0.17,0.31,9.37,-0.01,-0.04,0.00,0.00
2026-06-27 09:46:53.490,995.29,995.19,-9.74,-4.11,0.00,-0.17,0.31,9.37,-0.00,-0.03,0.00,0.00
2026-06-27 09:46:53.491,995.29,995.19,-9.74,-4.11,0.00,-0.22,0.31,9.37,-0.00,-0.03,0.00,0.00
2026-06-27 09:46:53.493,995.29,995.19,-9.74,-4.11,0.00,-0.22,0.31,9.37,-0.00,-0.03,0.00,0.00
2026-06-27 09:46:53.495,995.29,995.19,-9.74,-4.11,0.00,-0.22,0.31,9.37,-0.00,-0.03,0.00,0.00
2026-06-27 09:46:53.497,995.29,995.19,-9.74,-4.11,0.00,-0.22,0.31,9.37,-0.00,-0.03,0.00,0.00
2026-06-27 09:46:53.500,995.29,995.19,-9.74,-4.11,0.00,-0.22,0.31,9.37,-0.01,-0.03,0.00,0.00
2026-06-27 09:46:53.504,995.29,995.19,-9.74,-4.11,0.00,-0.20,0.31,9.38,-0.01,-0.03,0.00,0.00
2026-06-27 09:46:53.509,995.29,995.19,-9.74,-4.11,0.00,-0.20,0.31,9.38,-0.00,-0.03,0.00,0.00
2026-06-27 09:46:53.511,995.29,995.19,-9.74,-4.11,0.00,-0.17,0.32,9.39,-0.00,-0.03,0.00,0.00
2026-06-27 09:46:53.652,995.30,995.20,-10.00,-4.17,0.00,-0.02,0.29,9.36,-0.00,-0.03,0.00,0.00
2026-06-27 09:46:53.658,995.30,995.20,-10.00,-4.17,0.00,-0.02,0.29,9.36,-0.00,-0.03,0.00,0.00
2026-06-27 09:46:53.660,995.30,995.20,-10.00,-4.17,0.00,0.00,0.31,9.36,-0.00,-0.03,0.00,0.00
2026-06-27 09:46:53.661,995.30,995.20,-10.00,-4.17,0.00,0.00,0.31,9.36,-0.00,-0.03,0.00,0.00
2026-06-27 09:46:53.663,995.30,995.20,-10.00,-4.17,0.00,0.00,0.31,9.36,-0.00,-0.03,0.00,0.00
2026-06-27 09:46:53.664,995.30,995.20,-10.00,-4.17,0.00,0.00,0.31,9.36,-0.00,-0.03,0.00,0.00
2026-06-27 09:46:53.667,995.30,995.20,-10.00,-4.17,0.00,0.00,0.31,9.36,-0.00,-0.03,0.00,0.00
2026-06-27 09:46:53.670,995.30,995.20,-10.00,-4.17,0.00,0.00,0.31,9.36,-0.00,-0.03,0.00,0.00
2026-06-27 09:46:53.671,995.30,995.20,-10.00,-4.17,0.00,0.00,0.32,9.37,-0.00,-0.03,0.00,0.00
2026-06-27 09:46:53.672,995.30,995.20,-10.00,-4.17,0.00,0.00,0.32,9.37,-0.00,-0.03,0.00,0.00
2026-06-27 09:46:53.674,995.30,995.20,-10.00,-4.17,0.00,0.00,0.32,9.37,-0.00,-0.03,0.00,0.00
2026-06-27 09:46:53.678,995.30,995.20,-10.00,-4.17,0.00,0.00,0.32,9.37,-0.00,-0.03,0.00,0.00
2026-06-27 09:46:53.680,995.30,995.20,-10.00,-4.17,0.00,0.01,0.32,9.39,-0.00,-0.02,0.00,0.00
2026-06-27 09:46:53.682,995.30,995.20,-10.00,-4.17,0.00,0.01,0.32,9.39,-0.00,-0.02,0.00,0.00
2026-06-27 09:46:53.683,995.30,995.20,-10.00,-4.17,0.00,0.01,0.32,9.39,-0.00,-0.02,0.00,0.00
2026-06-27 09:46:53.685,995.30,995.20,-10.00,-4.17,0.00,0.01,0.32,9.39,-0.00,-0.02,0.00,0.00
2026-06-27 09:46:53.686,995.30,995.20,-10.00,-4.17,0.00,0.01,0.32,9.39,-0.00,-0.02,0.00,0.00
2026-06-27 09:46:53.830,995.29,995.21,-8.51,-3.85,0.00,0.00,0.31,9.36,0.00,0.02,-0.00,0.00
2026-06-27 09:46:53.832,995.29,995.21,-8.51,-3.85,0.00,0.00,0.31,9.37,0.00,0.02,-0.00,0.00
2026-06-27 09:46:53.834,995.29,995.21,-8.51,-3.85,0.00,0.00,0.31,9.37,0.00,0.02,-0.00,0.00
2026-06-27 09:46:53.836,995.29,995.21,-8.51,-3.85,0.00,0.00,0.31,9.37,0.00,0.02,-0.00,0.00
2026-06-27 09:46:53.837,995.29,995.21,-8.51,-3.85,0.00,0.00,0.31,9.37,0.00,0.02,-0.00,0.00
2026-06-27 09:46:53.838,995.29,995.21,-8.51,-3.85,0.00,0.00,0.31,9.37,0.00,0.02,-0.00,0.00
2026-06-27 09:46:53.840,995.29,995.21,-8.51,-3.85,0.00,0.00,0.31,9.37,0.01,0.03,-0.00,0.00
2026-06-27 09:46:53.841,995.29,995.21,-8.51,-3.85,0.00,-0.01,0.31,9.40,0.01,0.03,-0.00,0.00
2026-06-27 09:46:53.842,995.29,995.21,-8.51,-3.85,0.00,-0.01,0.31,9.40,0.01,0.03,-0.00,0.00
2026-06-27 09:46:53.844,995.29,995.21,-8.51,-3.85,0.00,-0.01,0.31,9.40,0.01,0.03,-0.00,0.00
2026-06-27 09:46:53.845,995.29,995.21,-8.51,-3.85,0.00,-0.01,0.31,9.40,0.01,0.03,-0.00,0.00
2026-06-27 09:46:53.846,995.29,995.21,-8.51,-3.85,0.00,-0.01,0.31,9.40,0.01,0.03,-0.00,0.00
2026-06-27 09:46:53.847,995.29,995.21,-8.51,-3.85,0.00,-0.01,0.31,9.40,0.01,0.03,-0.00,0.00
2026-06-27 09:46:53.851,995.29,995.21,-8.51,-3.85,0.00,-0.01,0.31,9.40,0.01,0.03,-0.00,0.00
2026-06-27 09:46:53.852,995.29,995.21,-8.51,-3.85,0.00,-0.03,0.32,9.37,0.01,0.03,-0.00,0.00
2026-06-27 09:46:53.854,995.29,995.21,-8.51,-3.85,0.00,-0.03,0.32,9.37,0.01,0.03,-0.00,0.00
2026-06-27 09:46:53.855,995.29,995.21,-8.51,-3.85,0.00,-0.03,0.32,9.37,0.01,0.03,-0.00,0.00
2026-06-27 09:46:53.857,995.29,995.21,-8.51,-3.85,0.00,-0.03,0.32,9.37,0.01,0.03,-0.00,0.00
2026-06-27 09:46:53.858,995.29,995.21,-8.51,-3.85,0.00,-0.03,0.32,9.37,0.01,0.03,-0.00,0.00
2026-06-27 09:46:53.861,995.29,995.21,-8.51,-3.85,0.00,-0.03,0.32,9.37,0.00,0.03,-0.00,0.00
2026-06-27 09:46:53.862,995.29,995.21,-8.51,-3.85,0.00,-0.04,0.31,9.39,0.00,0.03,-0.00,0.00
2026-06-27 09:46:53.001,995.29,995.18,-10.52,-4.28,0.00,-0.13,0.30,9.38,0.00,0.02,0.00,0.00
2026-06-27 09:46:54.003,995.29,995.18,-10.52,-4.28,0.00,-0.13,0.30,9.38,0.00,0.02,0.00,0.00
2026-06-27 09:46:54.004,995.29,995.18,-10.52,-4.28,0.00,-0.13,0.30,9.38,0.00,0.02,0.00,0.00
2026-06-27 09:46:54.010,995.29,995.18,-10.52,-4.28,0.00,-0.13,0.30,9.38,0.00,0.02,0.00,0.00
2026-06-27 09:46:54.012,995.29,995.18,-10.52,-4.28,0.00,-0.14,0.31,9.36,0.00,0.02,0.00,0.00
2026-06-27 09:46:54.013,995.29,995.18,-10.52,-4.28,0.00,-0.14,0.31,9.36,0.00,0.02,0.00,0.00
2026-06-27 09:46:54.014,995.29,995.18,-10.52,-4.28,0.00,-0.14,0.31,9.36,0.00,0.02,0.00,0.00
2026-06-27 09:46:54.023,995.29,995.18,-10.52,-4.28,0.00,-0.14,0.31,9.36,0.00,0.02,0.00,0.00
2026-06-27 09:46:54.029,995.29,995.18,-10.52,-4.28,0.00,-0.14,0.32,9.37,0.00,0.02,0.00,0.00
2026-06-27 09:46:54.036,995.29,995.18,-10.52,-4.28,0.00,-0.15,0.29,9.36,0.00,0.01,-0.00,0.00
2026-06-27 09:46:54.185,995.31,995.20,-10.94,-4.36,0.00,-0.10,0.32,9.36,0.00,0.01,0.00,0.00
2026-06-27 09:46:54.192,995.31,995.20,-10.94,-4.36,0.00,-0.10,0.32,9.39,0.00,0.01,-0.00,0.00
2026-06-27 09:46:54.194,995.31,995.20,-10.94,-4.36,0.00,-0.11,0.35,9.39,0.00,0.01,-0.00,0.00
2026-06-27 09:46:54.201,995.31,995.20,-10.94,-4.36,0.00,-0.11,0.35,9.39,0.00,0.01,-0.00,0.00
2026-06-27 09:46:54.204,995.31,995.20,-10.94,-4.36,0.00,-0.10,0.33,9.39,0.00,0.01,0.00,0.00
2026-06-27 09:46:54.208,995.31,995.20,-10.94,-4.36,0.00,-0.10,0.33,9.39,0.00,0.01,0.00,0.00
2026-06-27 09:46:54.211,995.31,995.20,-10.94,-4.36,0.00,-0.10,0.33,9.39,0.00,0.01,-0.00,0.00
2026-06-27 09:46:54.213,995.31,995.20,-10.94,-4.36,0.00,-0.10,0.32,9.35,0.00,0.01,-0.00,0.00
2026-06-27 09:46:54.214,995.31,995.20,-10.94,-4.36,0.00,-0.10,0.32,9.35,0.00,0.01,-0.00,0.00
2026-06-27 09:46:54.352,995.29,995.20,-8.31,-3.80,0.00,-0.07,0.34,9.39,0.00,0.02,-0.00,0.00
2026-06-27 09:46:54.354,995.29,995.20,-8.31,-3.80,0.00,-0.06,0.34,9.34,0.00,0.02,-0.00,0.00
2026-06-27 09:46:54.360,995.29,995.20,-8.31,-3.80,0.00,-0.06,0.34,9.34,0.00,0.02,-0.00,0.00
2026-06-27 09:46:54.362,995.29,995.20,-8.31,-3.80,0.00,-0.09,0.36,9.34,0.00,0.02,0.00,0.00
2026-06-27 09:46:54.371,995.29,995.20,-8.31,-3.80,0.00,-0.09,0.36,9.34,0.00,0.02,0.00,0.00
2026-06-27 09:46:54.374,995.29,995.20,-8.31,-3.80,0.00,-0.08,0.35,9.35,0.00,0.02,-0.00,0.00
2026-06-27 09:46:54.376,995.29,995.20,-8.31,-3.80,0.00,-0.08,0.35,9.35,0.00,0.02,-0.00,0.00
2026-06-27 09:46:54.381,995.29,995.20,-8.31,-3.80,0.00,-0.08,0.35,9.35,0.00,0.03,0.00,0.00
2026-06-27 09:46:54.384,995.29,995.20,-8.31,-3.80,0.00,-0.09,0.33,9.40,0.00,0.03,0.00,0.00
2026-06-27 09:46:54.386,995.29,995.20,-8.31,-3.80,0.00,-0.09,0.33,9.40,0.00,0.03,0.00,0.00
2026-06-27 09:46:54.388,995.29,995.20,-8.31,-3.80,0.00,-0.09,0.33,9.40,0.00,0.03,0.00,0.00
2026-06-27 09:46:54.545,995.29,995.19,-10.02,-4.17,0.00,-0.21,0.36,9.37,0.00,0.02,-0.00,0.00
2026-06-27 09:46:54.546,995.29,995.19,-10.02,-4.17,0.00,-0.21,0.36,9.37,0.00,0.02,-0.00,0.00
2026-06-27 09:46:54.552,995.29,995.19,-10.02,-4.17,0.00,-0.21,0.36,9.37,0.00,0.02,-0.00,0.00
2026-06-27 09:46:54.555,995.29,995.19,-10.02,-4.17,0.00,-0.22,0.37,9.40,0.00,0.02,0.00,0.00
