timestamp,pressure_bag,pressure_bme,diff_pressure,v_wind_est,speed,accel_x,accel_y,accel_z,gyro_x,gyro_y,gyro_z,power
2026-06-26 19:26:43.904,994.41,994.41,-0.54,-0.97,0.00,1.88,0.22,9.13,0.00,0.00,0.00,0.00
2026-06-26 19:26:43.905,994.41,994.41,-0.54,-0.97,0.00,1.87,0.20,9.13,0.00,0.00,0.00,0.00
2026-06-26 19:26:43.906,994.41,994.41,-0.54,-0.97,0.00,1.87,0.20,9.13,0.00,0.00,0.00,0.00
2026-06-26 19:26:43.908,994.41,994.41,-0.54,-0.97,0.00,1.87,0.20,9.13,0.00,0.00,0.00,0.00
2026-06-26 19:26:43.913,994.41,994.41,-0.54,-0.97,0.00,1.87,0.20,9.13,0.00,0.00,0.00,0.00
2026-06-26 19:26:43.914,994.41,994.41,-0.54,-0.97,0.00,1.86,0.21,9.10,0.00,0.00,-0.00,0.00
2026-06-26 19:26:43.916,994.41,994.41,-0.54,-0.97,0.00,1.86,0.21,9.10,0.00,0.00,-0.00,0.00
2026-06-26 19:26:43.917,994.41,994.41,-0.54,-0.97,0.00,1.86,0.21,9.10,0.00,0.00,-0.00,0.00
2026-06-26 19:26:43.918,994.41,994.41,-0.54,-0.97,0.00,1.86,0.21,9.10,0.00,0.00,-0.00,0.00
2026-06-26 19:26:43.923,994.41,994.41,-0.54,-0.97,0.00,1.86,0.21,9.10,0.00,0.00,-0.00,0.00
2026-06-26 19:26:43.926,994.41,994.41,-0.54,-0.97,0.00,1.88,0.20,9.12,-0.00,-0.00,0.00,0.00
2026-06-26 19:26:43.930,994.41,994.41,-0.54,-0.97,0.00,1.88,0.20,9.12,-0.00,-0.00,0.00,0.00
2026-06-26 19:26:43.936,994.41,994.41,-0.54,-0.97,0.00,1.88,0.20,9.12,0.00,-0.00,-0.00,0.00
2026-06-26 19:26:43.938,994.41,994.41,-0.54,-0.97,0.00,1.86,0.20,9.13,0.00,-0.00,-0.00,0.00
2026-06-26 19:26:43.944,994.41,994.41,-0.54,-0.97,0.00,1.86,0.20,9.13,-0.00,0.00,0.00,0.00
2026-06-26 19:26:43.946,994.41,994.41,-0.54,-0.97,0.00,1.87,0.21,9.15,-0.00,0.00,0.00,0.00
2026-06-26 19:26:43.948,994.41,994.41,-0.54,-0.97,0.00,1.87,0.21,9.15,-0.00,0.00,0.00,0.00
2026-06-26 19:26:43.953,994.41,994.41,-0.54,-0.97,0.00,1.87,0.21,9.15,-0.00,0.00,0.00,0.00
2026-06-26 19:26:43.955,994.41,994.41,-0.54,-0.97,0.00,1.87,0.22,9.11,0.00,-0.00,0.00,0.00
2026-06-26 19:26:43.956,994.41,994.41,-0.54,-0.97,0.00,1.87,0.22,9.11,0.00,-0.00,0.00,0.00
2026-06-26 19:26:43.958,994.41,994.41,-0.54,-0.97,0.00,1.87,0.22,9.11,0.00,-0.00,0.00,0.00
2026-06-26 19:26:43.962,994.41,994.41,-0.54,-0.97,0.00,1.87,0.22,9.11,0.00,-0.00,0.00,0.00
2026-06-26 19:26:44.044,994.41,994.41,-0.21,-0.61,0.00,1.88,0.20,9.13,-0.00,0.00,-0.00,0.00
2026-06-26 19:26:44.046,994.41,994.41,-0.21,-0.61,0.00,1.88,0.21,9.13,-0.00,0.00,-0.00,0.00
2026-06-26 19:26:44.047,994.41,994.41,-0.21,-0.61,0.00,1.88,0.21,9.13,-0.00,0.00,-0.00,0.00
2026-06-26 19:26:44.051,994.41,994.41,-0.21,-0.61,0.00,1.88,0.21,9.13,-0.00,0.00,-0.00,0.00
2026-06-26 19:26:44.054,994.41,994.41,-0.21,-0.61,0.00,1.88,0.21,9.13,0.00,-0.00,0.00,0.00
2026-06-26 19:26:44.055,994.41,994.41,-0.21,-0.61,0.00,1.87,0.22,9.09,0.00,-0.00,0.00,0.00
2026-06-26 19:26:44.056,994.41,994.41,-0.21,-0.61,0.00,1.87,0.22,9.09,0.00,-0.00,0.00,0.00
2026-06-26 19:26:44.058,994.41,994.41,-0.21,-0.61,0.00,1.87,0.22,9.09,0.00,-0.00,0.00,0.00
2026-06-26 19:26:44.060,994.41,994.41,-0.21,-0.61,0.00,1.87,0.22,9.09,0.00,-0.00,0.00,0.00
2026-06-26 19:26:44.064,994.41,994.41,-0.21,-0.61,0.00,1.87,0.22,9.09,-0.00,0.00,0.00,0.00
2026-06-26 19:26:44.065,994.41,994.41,-0.21,-0.61,0.00,1.86,0.21,9.09,-0.00,0.00,0.00,0.00
2026-06-26 19:26:44.068,994.41,994.41,-0.21,-0.61,0.00,1.86,0.21,9.09,-0.00,0.00,0.00,0.00
2026-06-26 19:26:44.074,994.41,994.41,-0.21,-0.61,0.00,1.86,0.21,9.09,-0.00,-0.00,0.00,0.00
2026-06-26 19:26:44.075,994.41,994.41,-0.21,-0.61,0.00,1.88,0.22,9.15,-0.00,-0.00,0.00,0.00
2026-06-26 19:26:44.077,994.41,994.41,-0.21,-0.61,0.00,1.88,0.22,9.15,-0.00,-0.00,0.00,0.00
2026-06-26 19:26:44.081,994.41,994.41,-0.21,-0.61,0.00,1.88,0.22,9.15,-0.00,-0.00,0.00,0.00
2026-06-26 19:26:44.085,994.41,994.41,-0.21,-0.61,0.00,1.88,0.22,9.15,-0.00,-0.00,-0.00,0.00
2026-06-26 19:26:44.089,994.41,994.41,-0.21,-0.61,0.00,1.89,0.20,9.12,-0.00,-0.00,-0.00,0.00
2026-06-26 19:26:44.093,994.41,994.41,-0.21,-0.61,0.00,1.89,0.20,9.12,-0.00,-0.00,-0.00,0.00
2026-06-26 19:26:44.096,994.41,994.41,-0.21,-0.61,0.00,1.88,0.19,9.14,0.00,0.00,-0.00,0.00
2026-06-26 19:26:44.104,994.41,994.41,-0.21,-0.61,0.00,1.88,0.19,9.14,0.00,0.00,-0.00,0.00
2026-06-26 19:26:44.187,994.41,994.41,-0.07,-0.35,0.00,1.86,0.22,9.13,-0.00,0.00,0.00,0.00
2026-06-26 19:26:44.189,994.41,994.41,-0.07,-0.35,0.00,1.86,0.22,9.13,-0.00,0.00,0.00,0.00
2026-06-26 19:26:44.194,994.41,994.41,-0.07,-0.35,0.00,1.86,0.22,9.13,-0.00,0.00,0.00,0.00
2026-06-26 19:26:44.196,994.41,994.41,-0.07,-0.35,0.00,1.88,0.23,9.12,-0.00,0.00,0.00,0.00
2026-06-26 19:26:44.197,994.41,994.41,-0.07,-0.35,0.00,1.88,0.23,9.12,-0.00,0.00,0.00,0.00
2026-06-26 19:26:44.202,994.41,994.41,-0.07,-0.35,0.00,1.88,0.23,9.12,-0.00,0.00,0.00,0.00
2026-06-26 19:26:44.204,994.41,994.41,-0.07,-0.35,0.00,1.88,0.23,9.12,-0.00,-0.00,0.00,0.00
2026-06-26 19:26:44.207,994.41,994.41,-0.07,-0.35,0.00,1.87,0.21,9.14,-0.00,-0.00,0.00,0.00
2026-06-26 19:26:44.210,994.41,994.41,-0.07,-0.35,0.00,1.87,0.21,9.14,-0.00,-0.00,0.00,0.00
2026-06-26 19:26:44.214,994.41,994.41,-0.07,-0.35,0.00,1.87,0.21,9.14,0.00,-0.00,0.00,0.00
2026-06-26 19:26:44.216,994.41,994.41,-0.07,-0.35,0.00,1.86,0.21,9.13,0.00,-0.00,0.00,0.00
2026-06-26 19:26:44.218,994.41,994.41,-0.07,-0.35,0.00,1.86,0.21,9.13,0.00,-0.00,0.00,0.00
2026-06-26 19:26:44.222,994.41,994.41,-0.07,-0.35,0.00,1.86,0.21,9.13,0.00,-0.00,0.00,0.00
2026-06-26 19:26:44.224,994.41,994.41,-0.07,-0.35,0.00,1.86,0.21,9.13,0.00,0.00,-0.00,0.00
2026-06-26 19:26:44.226,994.41,994.41,-0.07,-0.35,0.00,1.87,0.21,9.10,0.00,0.00,-0.00,0.00
2026-06-26 19:26:44.227,994.41,994.41,-0.07,-0.35,0.00,1.87,0.21,9.10,0.00,0.00,-0.00,0.00
2026-06-26 19:26:44.229,994.41,994.41,-0.07,-0.35,0.00,1.87,0.21,9.10,0.00,0.00,-0.00,0.00
2026-06-26 19:26:44.234,994.41,994.41,-0.07,-0.35,0.00,1.87,0.21,9.10,-0.00,0.00,0.00,0.00
2026-06-26 19:26:44.236,994.41,994.41,-0.07,-0.35,0.00,1.88,0.21,9.13,-0.00,0.00,0.00,0.00
2026-06-26 19:26:44.237,994.41,994.41,-0.07,-0.35,0.00,1.88,0.21,9.13,-0.00,0.00,0.00,0.00
2026-06-26 19:26:44.238,994.41,994.41,-0.07,-0.35,0.00,1.88,0.21,9.13,-0.00,0.00,0.00,0.00
2026-06-26 19:26:44.239,994.41,994.41,-0.07,-0.35,0.00,1.88,0.21,9.13,-0.00,0.00,0.00,0.00
2026-06-26 19:26:44.241,994.41,994.41,-0.07,-0.35,0.00,1.88,0.21,9.13,-0.00,0.00,0.00,0.00
2026-06-26 19:26:44.244,994.41,994.41,-0.07,-0.35,0.00,1.88,0.21,9.13,-0.00,0.00,0.00,0.00
2026-06-26 19:26:44.245,994.41,994.41,-0.07,-0.35,0.00,1.89,0.21,9.13,-0.00,0.00,0.00,0.00
2026-06-26 19:26:44.327,994.41,994.40,-0.21,-0.61,0.00,1.88,0.22,9.11,-0.00,-0.00,-0.00,0.00
2026-06-26 19:26:44.331,994.41,994.40,-0.21,-0.61,0.00,1.88,0.22,9.11,-0.00,-0.00,-0.00,0.00
2026-06-26 19:26:44.335,994.41,994.40,-0.21,-0.61,0.00,1.88,0.22,9.11,-0.00,0.00,0.00,0.00
2026-06-26 19:26:44.337,994.41,994.40,-0.21,-0.61,0.00,1.88,0.22,9.10,-0.00,0.00,0.00,0.00
2026-06-26 19:26:44.338,994.41,994.40,-0.21,-0.61,0.00,1.88,0.22,9.10,-0.00,0.00,0.00,0.00
2026-06-26 19:26:44.340,994.41,994.40,-0.21,-0.61,0.00,1.88,0.22,9.10,-0.00,0.00,0.00,0.00
2026-06-26 19:26:44.342,994.41,994.40,-0.21,-0.61,0.00,1.88,0.22,9.10,-0.00,0.00,0.00,0.00
2026-06-26 19:26:44.345,994.41,994.40,-0.21,-0.61,0.00,1.88,0.22,9.10,-0.00,0.01,-0.00,0.00
2026-06-26 19:26:44.348,994.41,994.40,-0.21,-0.61,0.00,1.86,0.22,9.11,-0.00,0.01,-0.00,0.00
2026-06-26 19:26:44.354,994.41,994.40,-0.21,-0.61,0.00,1.86,0.22,9.11,-0.00,0.01,-0.00,0.00
2026-06-26 19:26:44.360,994.41,994.40,-0.21,-0.61,0.00,1.89,0.19,9.13,0.00,0.00,0.00,0.00
2026-06-26 19:26:44.365,994.41,994.40,-0.21,-0.61,0.00,1.89,0.19,9.13,-0.00,-0.00,-0.00,0.00
2026-06-26 19:26:44.366,994.41,994.40,-0.21,-0.61,0.00,1.87,0.19,9.09,-0.00,-0.00,-0.00,0.00
2026-06-26 19:26:44.368,994.41,994.40,-0.21,-0.61,0.00,1.87,0.19,9.09,-0.00,-0.00,-0.00,0.00
2026-06-26 19:26:44.369,994.41,994.40,-0.21,-0.61,0.00,1.87,0.19,9.09,-0.00,-0.00,-0.00,0.00
2026-06-26 19:26:44.372,994.41,994.40,-0.21,-0.61,0.00,1.87,0.19,9.09,-0.00,-0.00,-0.00,0.00
2026-06-26 19:26:44.376,994.41,994.40,-0.21,-0.61,0.00,1.87,0.19,9.09,0.00,-0.00,0.00,0.00
2026-06-26 19:26:44.382,994.41,994.40,-0.21,-0.61,0.00,1.88,0.23,9.11,0.00,-0.00,0.00,0.00
2026-06-26 19:26:44.385,994.41,994.40,-0.21,-0.61,0.00,1.89,0.21,9.14,0.00,0.00,0.00,0.00
2026-06-26 19:26:44.386,994.41,994.40,-0.21,-0.61,0.00,1.89,0.21,9.14,0.00,0.00,0.00,0.00
2026-06-26 19:26:44.471,994.41,994.41,-0.03,-0.23,0.00,1.88,0.21,9.11,0.00,-0.00,-0.00,0.00
2026-06-26 19:26:44.475,994.41,994.41,-0.03,-0.23,0.00,1.88,0.21,9.11,0.00,0.00,0.00,0.00
2026-06-26 19:26:44.477,994.41,994.41,-0.03,-0.23,0.00,1.86,0.22,9.13,0.00,0.00,0.00,0.00
2026-06-26 19:26:44.479,994.41,994.41,-0.03,-0.23,0.00,1.86,0.22,9.13,0.00,0.00,0.00,0.00
2026-06-26 19:26:44.484,994.41,994.41,-0.03,-0.23,0.00,1.86,0.22,9.13,0.00,0.00,0.00,0.00
2026-06-26 19:26:44.486,994.41,994.41,-0.03,-0.23,0.00,1.88,0.21,9.15,-0.00,0.00,0.00,0.00
2026-06-26 19:26:44.487,994.41,994.41,-0.03,-0.23,0.00,1.88,0.21,9.15,-0.00,0.00,0.00,0.00
2026-06-26 19:26:44.488,994.41,994.41,-0.03,-0.23,0.00,1.88,0.21,9.15,-0.00,0.00,0.00,0.00
2026-06-26 19:26:44.489,994.41,994.41,-0.03,-0.23,0.00,1.88,0.21,9.15,-0.00,0.00,0.00,0.00
2026-06-26 19:26:44.491,994.41,994.41,-0.03,-0.23,0.00,1.88,0.21,9.15,-0.00,0.00,0.00,0.00
2026-06-26 19:26:44.492,994.41,994.41,-0.03,-0.23,0.00,1.88,0.21,9.15,-0.00,0.00,0.00,0.00
2026-06-26 19:26:44.494,994.41,994.41,-0.03,-0.23,0.00,1.88,0.21,9.15,-0.00,0.00,0.00,0.00
2026-06-26 19:26:44.498,994.41,994.41,-0.03,-0.23,0.00,1.87,0.22,9.12,-0.00,0.00,-0.00,0.00
2026-06-26 19:26:44.504,994.41,994.41,-0.03,-0.23,0.00,1.87,0.22,9.12,-0.00,0.00,-0.00,0.00
2026-06-26 19:26:44.505,994.41,994.41,-0.03,-0.23,0.00,1.89,0.22,9.11,-0.00,0.00,0.00,0.00
2026-06-26 19:26:44.507,994.41,994.41,-0.03,-0.23,0.00,1.89,0.22,9.11,-0.00,0.00,0.00,0.00
2026-06-26 19:26:44.508,994.41,994.41,-0.03,-0.23,0.00,1.89,0.22,9.11,-0.00,0.00,0.00,0.00
2026-06-26 19:26:44.509,994.41,994.41,-0.03,-0.23,0.00,1.89,0.22,9.11,-0.00,0.00,0.00,0.00
2026-06-26 19:26:44.514,994.41,994.41,-0.03,-0.23,0.00,1.89,0.22,9.11,-0.00,0.00,0.00,0.00
2026-06-26 19:26:44.515,994.41,994.41,-0.03,-0.23,0.00,1.88,0.20,9.10,-0.00,-0.00,-0.00,0.00
2026-06-26 19:26:44.517,994.41,994.41,-0.03,-0.23,0.00,1.88,0.20,9.10,-0.00,-0.00,-0.00,0.00
2026-06-26 19:26:44.522,994.41,994.41,-0.03,-0.23,0.00,1.88,0.20,9.10,-0.00,-0.00,-0.00,0.00
2026-06-26 19:26:44.525,994.41,994.41,-0.03,-0.23,0.00,1.88,0.20,9.10,-0.00,0.00,0.00,0.00
2026-06-26 19:26:44.526,994.41,994.41,-0.03,-0.23,0.00,1.86,0.21,9.15,-0.00,0.00,0.00,0.00
2026-06-26 19:26:44.527,994.41,994.41,-0.03,-0.23,0.00,1.86,0.21,9.15,-0.00,0.00,0.00,0.00
2026-06-26 19:26:44.607,994.41,994.41,-0.04,-0.27,0.00,1.88,0.21,9.13,0.00,-0.00,0.00,0.00
2026-06-26 19:26:44.608,994.41,994.41,-0.04,-0.27,0.00,1.88,0.21,9.13,0.00,-0.00,0.00,0.00
2026-06-26 19:26:44.611,994.41,994.41,-0.04,-0.27,0.00,1.88,0.21,9.13,0.00,-0.00,0.00,0.00
2026-06-26 19:26:44.616,994.41,994.41,-0.04,-0.27,0.00,1.88,0.21,9.13,0.00,-0.01,0.00,0.00
2026-06-26 19:26:44.618,994.41,994.41,-0.04,-0.27,0.00,1.89,0.23,9.11,0.00,-0.01,0.00,0.00
2026-06-26 19:26:44.619,994.41,994.41,-0.04,-0.27,0.00,1.89,0.23,9.11,0.00,-0.01,0.00,0.00
2026-06-26 19:26:44.624,994.41,994.41,-0.04,-0.27,0.00,1.89,0.23,9.11,0.00,-0.01,0.00,0.00
2026-06-26 19:26:44.626,994.41,994.41,-0.04,-0.27,0.00,1.87,0.21,9.12,0.00,-0.00,-0.00,0.00
2026-06-26 19:26:44.628,994.41,994.41,-0.04,-0.27,0.00,1.87,0.21,9.12,0.00,-0.00,-0.00,0.00
2026-06-26 19:26:44.631,994.41,994.41,-0.04,-0.27,0.00,1.87,0.21,9.12,0.00,-0.00,-0.00,0.00
2026-06-26 19:26:44.635,994.41,994.41,-0.04,-0.27,0.00,1.87,0.21,9.12,0.00,0.00,-0.00,0.00
2026-06-26 19:26:44.637,994.41,994.41,-0.04,-0.27,0.00,1.89,0.22,9.14,0.00,0.00,-0.00,0.00
2026-06-26 19:26:44.638,994.41,994.41,-0.04,-0.27,0.00,1.89,0.22,9.14,0.00,0.00,-0.00,0.00
2026-06-26 19:26:44.639,994.41,994.41,-0.04,-0.27,0.00,1.89,0.22,9.14,0.00,0.00,-0.00,0.00
2026-06-26 19:26:44.641,994.41,994.41,-0.04,-0.27,0.00,1.89,0.22,9.14,0.00,0.00,-0.00,0.00
2026-06-26 19:26:44.643,994.41,994.41,-0.04,-0.27,0.00,1.89,0.22,9.14,0.00,0.00,-0.00,0.00
2026-06-26 19:26:44.645,994.41,994.41,-0.04,-0.27,0.00,1.89,0.22,9.14,0.00,0.00,0.00,0.00
2026-06-26 19:26:44.646,994.41,994.41,-0.04,-0.27,0.00,1.88,0.22,9.13,0.00,0.00,0.00,0.00
2026-06-26 19:26:44.648,994.41,994.41,-0.04,-0.27,0.00,1.88,0.22,9.13,0.00,0.00,0.00,0.00
2026-06-26 19:26:44.650,994.41,994.41,-0.04,-0.27,0.00,1.88,0.22,9.13,0.00,0.00,0.00,0.00
2026-06-26 19:26:44.655,994.41,994.41,-0.04,-0.27,0.00,1.88,0.22,9.13,0.00,-0.00,-0.00,0.00
2026-06-26 19:26:44.656,994.41,994.41,-0.04,-0.27,0.00,1.88,0.21,9.13,0.00,-0.00,-0.00,0.00
2026-06-26 19:26:44.657,994.41,994.41,-0.04,-0.27,0.00,1.88,0.21,9.13,0.00,-0.00,-0.00,0.00
2026-06-26 19:26:44.661,994.41,994.41,-0.04,-0.27,0.00,1.88,0.21,9.13,0.00,-0.00,-0.00,0.00
2026-06-26 19:26:44.665,994.41,994.41,-0.04,-0.27,0.00,1.88,0.21,9.13,0.00,0.00,0.00,0.00
2026-06-26 19:26:44.666,994.41,994.41,-0.04,-0.27,0.00,1.90,0.23,9.12,0.00,0.00,0.00,0.00
2026-06-26 19:26:44.668,994.41,994.41,-0.04,-0.27,0.00,1.90,0.23,9.12,0.00,0.00,0.00,0.00
2026-06-26 19:26:44.669,994.41,994.41,-0.04,-0.27,0.00,1.90,0.23,9.12,0.00,0.00,0.00,0.00
2026-06-26 19:26:44.755,994.41,994.40,-0.44,-0.88,0.00,1.88,0.22,9.12,0.00,-0.00,-0.00,0.00
2026-06-26 19:26:44.757,994.41,994.40,-0.44,-0.88,0.00,1.87,0.21,9.12,0.00,-0.00,-0.00,0.00
2026-06-26 19:26:44.758,994.41,994.40,-0.44,-0.88,0.00,1.87,0.21,9.12,0.00,-0.00,-0.00,0.00
2026-06-26 19:26:44.759,994.41,994.40,-0.44,-0.88,0.00,1.87,0.21,9.12,0.00,-0.00,-0.00,0.00
2026-06-26 19:26:44.762,994.41,994.40,-0.44,-0.88,0.00,1.87,0.21,9.12,0.00,-0.00,-0.00,0.00
2026-06-26 19:26:44.767,994.41,994.40,-0.44,-0.88,0.00,1.87,0.21,9.12,0.00,-0.00,-0.00,0.00
2026-06-26 19:26:44.769,994.41,994.40,-0.44,-0.88,0.00,1.86,0.22,9.12,0.00,-0.00,-0.00,0.00
2026-06-26 19:26:44.773,994.41,994.40,-0.44,-0.88,0.00,1.86,0.22,9.12,0.00,-0.00,-0.00,0.00
2026-06-26 19:26:44.776,994.41,994.40,-0.44,-0.88,0.00,1.87,0.21,9.11,0.00,0.00,-0.00,0.00
2026-06-26 19:26:44.778,994.41,994.40,-0.44,-0.88,0.00,1.87,0.21,9.11,0.00,0.00,-0.00,0.00
2026-06-26 19:26:44.779,994.41,994.40,-0.44,-0.88,0.00,1.87,0.21,9.11,0.00,0.00,-0.00,0.00
2026-06-26 19:26:44.785,994.41,994.40,-0.44,-0.88,0.00,1.87,0.21,9.11,0.00,0.00,-0.00,0.00
2026-06-26 19:26:44.787,994.41,994.40,-0.44,-0.88,0.00,1.87,0.22,9.11,-0.00,0.00,0.00,0.00
2026-06-26 19:26:44.788,994.41,994.40,-0.44,-0.88,0.00,1.87,0.22,9.11,-0.00,0.00,0.00,0.00
2026-06-26 19:26:44.789,994.41,994.40,-0.44,-0.88,0.00,1.87,0.22,9.11,-0.00,0.00,0.00,0.00
2026-06-26 19:26:44.790,994.41,994.40,-0.44,-0.88,0.00,1.87,0.22,9.11,-0.00,0.00,0.00,0.00
2026-06-26 19:26:44.792,994.41,994.40,-0.44,-0.88,0.00,1.87,0.22,9.11,-0.00,0.00,0.00,0.00
2026-06-26 19:26:44.793,994.41,994.40,-0.44,-0.88,0.00,1.87,0.22,9.11,-0.00,0.00,0.00,0.00
2026-06-26 19:26:44.795,994.41,994.40,-0.44,-0.88,0.00,1.87,0.22,9.11,-0.00,0.00,0.00,0.00
2026-06-26 19:26:44.797,994.41,994.40,-0.44,-0.88,0.00,1.86,0.20,9.11,0.00,0.00,0.00,0.00
2026-06-26 19:26:44.798,994.41,994.40,-0.44,-0.88,0.00,1.86,0.20,9.11,0.00,0.00,0.00,0.00
2026-06-26 19:26:44.800,994.41,994.40,-0.44,-0.88,0.00,1.86,0.20,9.11,0.00,0.00,0.00,0.00
2026-06-26 19:26:44.807,994.41,994.40,-0.44,-0.88,0.00,1.86,0.20,9.11,0.00,0.00,0.00,0.00
2026-06-26 19:26:44.812,994.41,994.40,-0.44,-0.88,0.00,1.88,0.21,9.16,0.00,-0.00,-0.00,0.00
2026-06-26 19:26:44.896,994.41,994.40,-0.51,-0.95,0.00,1.87,0.22,9.10,0.00,0.00,0.00,0.00
2026-06-26 19:26:44.898,994.41,994.40,-0.51,-0.95,0.00,1.88,0.19,9.14,0.00,0.00,0.00,0.00
2026-06-26 19:26:44.903,994.41,994.40,-0.51,-0.95,0.00,1.88,0.19,9.14,0.00,0.00,0.00,0.00
2026-06-26 19:26:44.906,994.41,994.40,-0.51,-0.95,0.00,1.88,0.19,9.14,0.00,0.00,-0.00,0.00
2026-06-26 19:26:44.907,994.41,994.40,-0.51,-0.95,0.00,1.90,0.22,9.11,0.00,0.00,-0.00,0.00
2026-06-26 19:26:44.908,994.41,994.40,-0.51,-0.95,0.00,1.90,0.22,9.11,0.00,0.00,-0.00,0.00
2026-06-26 19:26:44.910,994.41,994.40,-0.51,-0.95,0.00,1.90,0.22,9.11,0.00,0.00,-0.00,0.00
2026-06-26 19:26:44.915,994.41,994.40,-0.51,-0.95,0.00,1.90,0.22,9.11,0.00,0.00,-0.00,0.00
2026-06-26 19:26:44.916,994.41,994.40,-0.51,-0.95,0.00,1.90,0.22,9.12,0.00,-0.00,0.00,0.00
2026-06-26 19:26:44.917,994.41,994.40,-0.51,-0.95,0.00,1.90,0.22,9.12,0.00,-0.00,0.00,0.00
2026-06-26 19:26:44.918,994.41,994.40,-0.51,-0.95,0.00,1.90,0.22,9.12,0.00,-0.00,0.00,0.00
2026-06-26 19:26:44.920,994.41,994.40,-0.51,-0.95,0.00,1.90,0.22,9.12,0.00,-0.00,0.00,0.00
2026-06-26 19:26:44.925,994.41,994.40,-0.51,-0.95,0.00,1.90,0.22,9.12,0.00,-0.00,0.00,0.00
2026-06-26 19:26:44.927,994.41,994.40,-0.51,-0.95,0.00,1.88,0.21,9.10,0.00,0.00,0.00,0.00
2026-06-26 19:26:44.929,994.41,994.40,-0.51,-0.95,0.00,1.88,0.21,9.10,0.00,0.00,0.00,0.00
2026-06-26 19:26:44.932,994.41,994.40,-0.51,-0.95,0.00,1.88,0.21,9.10,0.00,0.00,0.00,0.00
2026-06-26 19:26:44.936,994.41,994.40,-0.51,-0.95,0.00,1.88,0.21,9.10,-0.00,-0.00,0.00,0.00
2026-06-26 19:26:44.937,994.41,994.40,-0.51,-0.95,0.00,1.88,0.23,9.12,-0.00,-0.00,0.00,0.00
2026-06-26 19:26:44.938,994.41,994.40,-0.51,-0.95,0.00,1.88,0.23,9.12,-0.00,-0.00,0.00,0.00
2026-06-26 19:26:44.939,994.41,994.40,-0.51,-0.95,0.00,1.88,0.23,9.12,-0.00,-0.00,0.00,0.00
2026-06-26 19:26:44.941,994.41,994.40,-0.51,-0.95,0.00,1.88,0.23,9.12,-0.00,-0.00,0.00,0.00
2026-06-26 19:26:44.942,994.41,994.40,-0.51,-0.95,0.00,1.88,0.23,9.12,-0.00,-0.00,0.00,0.00
2026-06-26 19:26:44.943,994.41,994.40,-0.51,-0.95,0.00,1.88,0.23,9.12,-0.00,-0.00,0.00,0.00
2026-06-26 19:26:44.946,994.41,994.40,-0.51,-0.95,0.00,1.88,0.23,9.12,0.00,-0.00,0.00,0.00
2026-06-26 19:26:44.947,994.41,994.40,-0.51,-0.95,0.00,1.87,0.22,9.11,0.00,-0.00,0.00,0.00
2026-06-26 19:26:44.948,994.41,994.40,-0.51,-0.95,0.00,1.87,0.22,9.11,0.00,-0.00,0.00,0.00
2026-06-26 19:26:44.949,994.41,994.40,-0.51,-0.95,0.00,1.87,0.22,9.11,0.00,-0.00,0.00,0.00
2026-06-26 19:26:44.952,994.41,994.40,-0.51,-0.95,0.00,1.87,0.22,9.11,0.00,-0.00,0.00,0.00
2026-06-26 19:26:44.956,994.41,994.40,-0.51,-0.95,0.00,1.87,0.22,9.11,0.00,-0.00,-0.00,0.00
2026-06-26 19:26:45.040,994.41,994.41,-0.06,-0.33,0.00,1.98,0.22,9.59,-0.00,0.00,0.00,0.00
2026-06-26 19:26:45.041,994.41,994.41,-0.06,-0.33,0.00,1.98,0.22,9.59,-0.00,0.00,0.00,0.00
2026-06-26 19:26:45.043,994.41,994.41,-0.06,-0.33,0.00,1.98,0.22,9.59,-0.00,0.00,0.00,0.00
2026-06-26 19:26:45.046,994.41,994.41,-0.06,-0.33,0.00,1.98,0.22,9.59,-0.00,0.00,0.00,0.00
2026-06-26 19:26:45.047,994.41,994.41,-0.06,-0.33,0.00,1.97,0.22,9.57,-0.00,0.00,0.00,0.00
2026-06-26 19:26:45.048,994.41,994.41,-0.06,-0.33,0.00,1.97,0.22,9.57,-0.00,0.00,0.00,0.00
2026-06-26 19:26:45.050,994.41,994.41,-0.06,-0.33,0.00,1.97,0.22,9.57,-0.00,0.00,0.00,0.00
2026-06-26 19:26:45.054,994.41,994.41,-0.06,-0.33,0.00,1.97,0.22,9.57,-0.00,0.00,0.00,0.00
2026-06-26 19:26:45.056,994.41,994.41,-0.06,-0.33,0.00,1.97,0.22,9.57,0.00,0.00,0.00,0.00
2026-06-26 19:26:45.058,994.41,994.41,-0.06,-0.33,0.00,1.98,0.22,9.57,0.00,0.00,0.00,0.00
2026-06-26 19:26:45.060,994.41,994.41,-0.06,-0.33,0.00,1.98,0.22,9.57,0.00,0.00,0.00,0.00
2026-06-26 19:26:45.065,994.41,994.41,-0.06,-0.33,0.00,1.98,0.22,9.57,0.00,0.00,0.00,0.00
2026-06-26 19:26:45.068,994.41,994.41,-0.06,-0.33,0.00,1.98,0.23,9.59,0.00,-0.00,-0.00,0.00
2026-06-26 19:26:45.070,994.41,994.41,-0.06,-0.33,0.00,1.98,0.23,9.59,0.00,-0.00,-0.00,0.00
2026-06-26 19:26:45.071,994.41,994.41,-0.06,-0.33,0.00,1.98,0.23,9.59,0.00,-0.00,-0.00,0.00
2026-06-26 19:26:45.076,994.41,994.41,-0.06,-0.33,0.00,1.98,0.23,9.59,0.00,-0.00,-0.00,0.00
2026-06-26 19:26:45.077,994.41,994.41,-0.06,-0.33,0.00,1.97,0.23,9.60,0.00,-0.00,0.00,0.00
2026-06-26 19:26:45.079,994.41,994.41,-0.06,-0.33,0.00,1.97,0.23,9.60,0.00,-0.00,0.00,0.00
2026-06-26 19:26:45.083,994.41,994.41,-0.06,-0.33,0.00,1.97,0.23,9.60,0.00,-0.00,0.00,0.00
2026-06-26 19:26:45.086,994.41,994.41,-0.06,-0.33,0.00,1.97,0.23,9.60,0.00,-0.00,0.00,0.00
2026-06-26 19:26:45.087,994.41,994.41,-0.06,-0.33,0.00,1.98,0.23,9.58,0.00,-0.00,0.00,0.00
2026-06-26 19:26:45.089,994.41,994.41,-0.06,-0.33,0.00,1.98,0.23,9.58,0.00,-0.00,0.00,0.00
2026-06-26 19:26:45.090,994.41,994.41,-0.06,-0.33,0.00,1.98,0.23,9.58,0.00,-0.00,0.00,0.00
2026-06-26 19:26:45.091,994.41,994.41,-0.06,-0.33,0.00,1.98,0.23,9.58,0.00,-0.00,0.00,0.00
2026-06-26 19:26:45.092,994.41,994.41,-0.06,-0.33,0.00,1.98,0.23,9.58,0.00,-0.00,0.00,0.00
2026-06-26 19:26:45.094,994.41,994.41,-0.06,-0.33,0.00,1.98,0.23,9.58,0.00,-0.00,0.00,0.00
2026-06-26 19:26:45.096,994.41,994.41,-0.06,-0.33,0.00,1.98,0.23,9.58,0.00,-0.00,0.00,0.00
2026-06-26 19:26:45.097,994.41,994.41,-0.06,-0.33,0.00,1.97,0.21,9.59,0.00,-0.00,0.00,0.00
2026-06-26 19:26:45.139,994.41,994.41,-0.01,-0.15,0.00,1.97,0.21,9.56,-0.00,0.00,0.00,0.00
2026-06-26 19:26:45.186,994.41,994.41,0.07,0.36,0.00,1.97,0.22,9.58,0.00,-0.00,0.00,0.00
2026-06-26 19:26:45.187,994.41,994.41,0.07,0.36,0.00,1.97,0.21,9.60,0.00,0.00,-0.00,0.00
2026-06-26 19:26:45.189,994.41,994.41,0.07,0.36,0.00,1.97,0.21,9.60,0.00,0.00,-0.00,0.00
2026-06-26 19:26:45.190,994.41,994.41,0.07,0.36,0.00,1.97,0.21,9.60,0.00,0.00,-0.00,0.00
2026-06-26 19:26:45.191,994.41,994.41,0.07,0.36,0.00,1.97,0.21,9.60,0.00,0.00,-0.00,0.00
2026-06-26 19:26:45.192,994.41,994.41,0.07,0.36,0.00,1.97,0.21,9.60,0.00,0.00,-0.00,0.00
2026-06-26 19:26:45.194,994.41,994.41,0.07,0.36,0.00,1.97,0.21,9.60,0.00,0.00,-0.00,0.00
2026-06-26 19:26:45.196,994.41,994.41,0.07,0.36,0.00,1.97,0.21,9.60,0.00,0.00,-0.00,0.00
2026-06-26 19:26:45.197,994.41,994.41,0.07,0.36,0.00,1.98,0.21,9.57,0.00,0.00,0.00,0.00
2026-06-26 19:26:45.198,994.41,994.41,0.07,0.36,0.00,1.98,0.21,9.57,0.00,0.00,0.00,0.00
2026-06-26 19:26:45.200,994.41,994.41,0.07,0.36,0.00,1.98,0.21,9.57,0.00,0.00,0.00,0.00
2026-06-26 19:26:45.201,994.41,994.41,0.07,0.36,0.00,1.98,0.21,9.57,0.00,0.00,0.00,0.00
2026-06-26 19:26:45.206,994.41,994.41,0.07,0.36,0.00,1.98,0.21,9.57,0.00,0.00,0.00,0.00
2026-06-26 19:26:45.208,994.41,994.41,0.07,0.36,0.00,1.97,0.22,9.59,0.00,-0.00,0.00,0.00
2026-06-26 19:26:45.210,994.41,994.41,0.07,0.36,0.00,1.97,0.22,9.59,0.00,-0.00,0.00,0.00
2026-06-26 19:26:45.216,994.41,994.41,0.07,0.36,0.00,1.97,0.22,9.59,0.00,-0.00,0.00,0.00
2026-06-26 19:26:45.218,994.41,994.41,0.07,0.36,0.00,1.97,0.23,9.59,-0.00,0.00,-0.00,0.00
2026-06-26 19:26:45.219,994.41,994.41,0.07,0.36,0.00,1.97,0.23,9.59,-0.00,0.00,-0.00,0.00
2026-06-26 19:26:45.225,994.41,994.41,0.07,0.36,0.00,1.97,0.23,9.59,-0.00,0.00,-0.00,0.00
2026-06-26 19:26:45.227,994.41,994.41,0.07,0.36,0.00,1.97,0.22,9.61,0.00,-0.00,-0.00,0.00
2026-06-26 19:26:45.228,994.41,994.41,0.07,0.36,0.00,1.97,0.22,9.61,0.00,-0.00,-0.00,0.00
2026-06-26 19:26:45.230,994.41,994.41,0.07,0.36,0.00,1.97,0.22,9.61,0.00,-0.00,-0.00,0.00
2026-06-26 19:26:45.233,994.41,994.41,0.07,0.36,0.00,1.97,0.22,9.61,0.00,-0.00,-0.00,0.00
2026-06-26 19:26:45.237,994.41,994.41,0.07,0.36,0.00,1.97,0.22,9.61,-0.00,-0.00,0.00,0.00
2026-06-26 19:26:45.238,994.41,994.41,0.07,0.36,0.00,1.97,0.21,9.59,-0.00,-0.00,0.00,0.00
2026-06-26 19:26:45.281,994.41,994.41,0.65,1.07,0.00,1.98,0.20,9.56,-0.00,-0.00,0.00,0.00
2026-06-26 19:26:45.326,994.41,994.41,0.63,1.05,0.00,1.97,0.23,9.59,0.00,0.00,0.00,0.00
2026-06-26 19:26:45.328,994.41,994.41,0.63,1.05,0.00,1.97,0.22,9.59,0.00,0.00,0.00,0.00
2026-06-26 19:26:45.329,994.41,994.41,0.63,1.05,0.00,1.97,0.22,9.59,0.00,0.00,0.00,0.00
2026-06-26 19:26:45.330,994.41,994.41,0.63,1.05,0.00,1.97,0.22,9.59,0.00,0.00,0.00,0.00
2026-06-26 19:26:45.334,994.41,994.41,0.63,1.05,0.00,1.97,0.22,9.59,0.00,0.00,0.00,0.00
2026-06-26 19:26:45.337,994.41,994.41,0.63,1.05,0.00,1.97,0.22,9.59,0.00,-0.00,0.00,0.00
2026-06-26 19:26:45.339,994.41,994.41,0.63,1.05,0.00,1.97,0.21,9.57,0.00,-0.00,0.00,0.00
2026-06-26 19:26:45.341,994.41,994.41,0.63,1.05,0.00,1.97,0.21,9.57,0.00,-0.00,0.00,0.00
2026-06-26 19:26:45.342,994.41,994.41,0.63,1.05,0.00,1.97,0.21,9.57,0.00,-0.00,0.00,0.00
2026-06-26 19:26:45.343,994.41,994.41,0.63,1.05,0.00,1.97,0.21,9.57,0.00,-0.00,0.00,0.00
2026-06-26 19:26:45.346,994.41,994.41,0.63,1.05,0.00,1.97,0.21,9.57,0.00,-0.00,0.00,0.00
2026-06-26 19:26:45.348,994.41,994.41,0.63,1.05,0.00,1.97,0.22,9.55,0.00,-0.00,0.00,0.00
2026-06-26 19:26:45.349,994.41,994.41,0.63,1.05,0.00,1.97,0.22,9.55,0.00,-0.00,0.00,0.00
2026-06-26 19:26:45.350,994.41,994.41,0.63,1.05,0.00,1.97,0.22,9.55,0.00,-0.00,0.00,0.00
2026-06-26 19:26:45.354,994.41,994.41,0.63,1.05,0.00,1.97,0.22,9.55,0.00,-0.00,0.00,0.00
2026-06-26 19:26:45.357,994.41,994.41,0.63,1.05,0.00,1.97,0.22,9.55,0.00,0.00,-0.00,0.00
2026-06-26 19:26:45.358,994.41,994.41,0.63,1.05,0.00,1.99,0.23,9.57,0.00,0.00,-0.00,0.00
2026-06-26 19:26:45.359,994.41,994.41,0.63,1.05,0.00,1.99,0.23,9.57,0.00,0.00,-0.00,0.00
2026-06-26 19:26:45.360,994.41,994.41,0.63,1.05,0.00,1.99,0.23,9.57,0.00,0.00,-0.00,0.00
2026-06-26 19:26:45.366,994.41,994.41,0.63,1.05,0.00,1.99,0.23,9.57,0.00,0.00,-0.00,0.00
2026-06-26 19:26:45.368,994.41,994.41,0.63,1.05,0.00,1.96,0.22,9.56,0.00,0.00,-0.00,0.00
2026-06-26 19:26:45.370,994.41,994.41,0.63,1.05,0.00,1.96,0.22,9.56,0.00,0.00,-0.00,0.00
2026-06-26 19:26:45.375,994.41,994.41,0.63,1.05,0.00,1.96,0.22,9.56,0.00,0.00,-0.00,0.00
2026-06-26 19:26:45.377,994.41,994.41,0.63,1.05,0.00,1.97,0.24,9.55,0.00,0.00,0.00,0.00
2026-06-26 19:26:45.379,994.41,994.41,0.63,1.05,0.00,1.97,0.24,9.55,0.00,0.00,0.00,0.00
2026-06-26 19:26:45.426,994.41,994.41,0.55,0.98,0.00,1.99,0.20,9.57,0.00,0.00,-0.00,0.00
2026-06-26 19:26:45.468,994.41,994.41,0.50,0.93,0.00,1.96,0.23,9.55,-0.00,-0.00,0.00,0.00
2026-06-26 19:26:45.470,994.41,994.41,0.50,0.93,0.00,1.96,0.23,9.55,-0.00,-0.00,0.00,0.00
2026-06-26 19:26:45.471,994.41,994.41,0.50,0.93,0.00,1.96,0.23,9.55,-0.00,-0.00,0.00,0.00
2026-06-26 19:26:45.473,994.41,994.41,0.50,0.93,0.00,1.96,0.23,9.55,-0.00,-0.00,0.00,0.00
2026-06-26 19:26:45.477,994.41,994.41,0.50,0.93,0.00,1.96,0.23,9.55,-0.00,0.00,0.00,0.00
2026-06-26 19:26:45.478,994.41,994.41,0.50,0.93,0.00,1.98,0.23,9.57,-0.00,0.00,0.00,0.00
2026-06-26 19:26:45.479,994.41,994.41,0.50,0.93,0.00,1.98,0.23,9.57,-0.00,0.00,0.00,0.00
2026-06-26 19:26:45.480,994.41,994.41,0.50,0.93,0.00,1.98,0.23,9.57,-0.00,0.00,0.00,0.00
2026-06-26 19:26:45.483,994.41,994.41,0.50,0.93,0.00,1.98,0.23,9.57,-0.00,0.00,0.00,0.00
2026-06-26 19:26:45.487,994.41,994.41,0.50,0.93,0.00,1.98,0.23,9.57,0.00,0.00,-0.00,0.00
2026-06-26 19:26:45.488,994.41,994.41,0.50,0.93,0.00,1.98,0.23,9.58,0.00,0.00,-0.00,0.00
2026-06-26 19:26:45.489,994.41,994.41,0.50,0.93,0.00,1.98,0.23,9.58,0.00,0.00,-0.00,0.00
2026-06-26 19:26:45.491,994.41,994.41,0.50,0.93,0.00,1.98,0.23,9.58,0.00,0.00,-0.00,0.00
2026-06-26 19:26:45.492,994.41,994.41,0.50,0.93,0.00,1.98,0.23,9.58,0.00,0.00,-0.00,0.00
2026-06-26 19:26:45.493,994.41,994.41,0.50,0.93,0.00,1.98,0.23,9.58,0.00,0.00,-0.00,0.00
2026-06-26 19:26:45.494,994.41,994.41,0.50,0.93,0.00,1.98,0.23,9.58,0.00,0.00,-0.00,0.00
2026-06-26 19:26:45.498,994.41,994.41,0.50,0.93,0.00,1.98,0.23,9.58,0.00,0.00,0.00,0.00
2026-06-26 19:26:45.500,994.41,994.41,0.50,0.93,0.00,1.98,0.23,9.58,0.00,0.00,0.00,0.00
2026-06-26 19:26:45.501,994.41,994.41,0.50,0.93,0.00,1.98,0.23,9.58,0.00,0.00,0.00,0.00
2026-06-26 19:26:45.507,994.41,994.41,0.50,0.93,0.00,1.98,0.23,9.58,0.00,0.00,0.00,0.00
2026-06-26 19:26:45.508,994.41,994.41,0.50,0.93,0.00,1.99,0.23,9.55,0.00,0.00,0.00,0.00
2026-06-26 19:26:45.509,994.41,994.41,0.50,0.93,0.00,1.99,0.23,9.55,0.00,0.00,0.00,0.00
2026-06-26 19:26:45.510,994.41,994.41,0.50,0.93,0.00,1.99,0.23,9.55,0.00,0.00,0.00,0.00
2026-06-26 19:26:45.513,994.41,994.41,0.50,0.93,0.00,1.99,0.23,9.55,0.00,0.00,0.00,0.00
2026-06-26 19:26:45.518,994.41,994.41,0.50,0.93,0.00,1.99,0.23,9.55,0.00,0.00,0.00,0.00
2026-06-26 19:26:45.519,994.41,994.41,0.50,0.93,0.00,1.98,0.24,9.55,0.00,0.00,0.00,0.00
2026-06-26 19:26:45.520,994.41,994.41,0.50,0.93,0.00,1.98,0.24,9.55,0.00,0.00,0.00,0.00
2026-06-26 19:26:45.567,994.41,994.41,0.48,0.92,0.00,1.97,0.23,9.59,0.00,0.00,0.00,0.00
2026-06-26 19:26:45.609,994.41,994.41,0.18,0.57,0.00,1.97,0.24,9.57,0.00,0.00,0.00,0.00
2026-06-26 19:26:45.610,994.41,994.41,0.18,0.57,0.00,1.97,0.24,9.57,0.00,0.00,0.00,0.00
2026-06-26 19:26:45.611,994.41,994.41,0.18,0.57,0.00,1.97,0.24,9.57,0.00,0.00,0.00,0.00
2026-06-26 19:26:45.617,994.41,994.41,0.18,0.57,0.00,1.97,0.24,9.57,0.00,0.00,0.00,0.00
2026-06-26 19:26:45.618,994.41,994.41,0.18,0.57,0.00,1.97,0.23,9.58,-0.00,0.00,0.00,0.00
2026-06-26 19:26:45.619,994.41,994.41,0.18,0.57,0.00,1.97,0.23,9.58,-0.00,0.00,0.00,0.00
2026-06-26 19:26:45.620,994.41,994.41,0.18,0.57,0.00,1.97,0.23,9.58,-0.00,0.00,0.00,0.00
2026-06-26 19:26:45.623,994.41,994.41,0.18,0.57,0.00,1.97,0.23,9.58,-0.00,0.00,0.00,0.00
2026-06-26 19:26:45.627,994.41,994.41,0.18,0.57,0.00,1.97,0.23,9.58,0.00,0.00,0.00,0.00
2026-06-26 19:26:45.629,994.41,994.41,0.18,0.57,0.00,1.98,0.22,9.57,0.00,0.00,0.00,0.00
2026-06-26 19:26:45.631,994.41,994.41,0.18,0.57,0.00,1.98,0.22,9.57,0.00,0.00,0.00,0.00
2026-06-26 19:26:45.637,994.41,994.41,0.18,0.57,0.00,1.98,0.22,9.57,0.00,0.00,0.00,0.00
2026-06-26 19:26:45.638,994.41,994.41,0.18,0.57,0.00,1.97,0.22,9.59,0.00,0.00,0.00,0.00
2026-06-26 19:26:45.639,994.41,994.41,0.18,0.57,0.00,1.97,0.22,9.59,0.00,0.00,0.00,0.00
2026-06-26 19:26:45.643,994.41,994.41,0.18,0.57,0.00,1.97,0.22,9.59,0.00,0.00,0.00,0.00
2026-06-26 19:26:45.644,994.41,994.41,0.18,0.57,0.00,1.97,0.22,9.59,0.00,0.00,0.00,0.00
2026-06-26 19:26:45.647,994.41,994.41,0.18,0.57,0.00,1.97,0.22,9.59,0.00,0.00,-0.00,0.00
2026-06-26 19:26:45.649,994.41,994.41,0.18,0.57,0.00,1.96,0.23,9.61,0.00,0.00,-0.00,0.00
2026-06-26 19:26:45.650,994.41,994.41,0.18,0.57,0.00,1.96,0.23,9.61,0.00,0.00,-0.00,0.00
2026-06-26 19:26:45.651,994.41,994.41,0.18,0.57,0.00,1.96,0.23,9.61,0.00,0.00,-0.00,0.00
2026-06-26 19:26:45.655,994.41,994.41,0.18,0.57,0.00,1.96,0.23,9.61,0.00,0.00,-0.00,0.00
2026-06-26 19:26:45.658,994.41,994.41,0.18,0.57,0.00,1.96,0.23,9.61,0.00,0.00,-0.00,0.00
2026-06-26 19:26:45.659,994.41,994.41,0.18,0.57,0.00,1.97,0.24,9.57,0.00,0.00,-0.00,0.00
2026-06-26 19:26:45.660,994.41,994.41,0.18,0.57,0.00,1.97,0.24,9.57,0.00,0.00,-0.00,0.00
2026-06-26 19:26:45.662,994.41,994.41,0.18,0.57,0.00,1.97,0.24,9.57,0.00,0.00,-0.00,0.00
2026-06-26 19:26:45.707,994.41,994.41,0.60,1.03,0.00,1.98,0.22,9.59,0.00,0.00,-0.00,0.00
2026-06-26 19:26:45.750,994.41,994.41,0.88,1.25,0.00,1.95,0.23,9.57,0.00,-0.00,0.00,0.00
2026-06-26 19:26:45.751,994.41,994.41,0.88,1.25,0.00,1.95,0.23,9.57,0.00,-0.00,0.00,0.00
2026-06-26 19:26:45.757,994.41,994.41,0.88,1.25,0.00,1.95,0.23,9.57,0.00,-0.00,0.00,0.00
2026-06-26 19:26:45.758,994.41,994.41,0.88,1.25,0.00,1.97,0.23,9.57,-0.00,-0.00,0.00,0.00
2026-06-26 19:26:45.759,994.41,994.41,0.88,1.25,0.00,1.97,0.23,9.57,-0.00,-0.00,0.00,0.00
2026-06-26 19:26:45.761,994.41,994.41,0.88,1.25,0.00,1.97,0.23,9.57,-0.00,-0.00,0.00,0.00
2026-06-26 19:26:45.762,994.41,994.41,0.88,1.25,0.00,1.97,0.23,9.57,-0.00,-0.00,0.00,0.00
2026-06-26 19:26:45.767,994.41,994.41,0.88,1.25,0.00,1.97,0.23,9.57,-0.00,-0.00,0.00,0.00
2026-06-26 19:26:45.768,994.41,994.41,0.88,1.25,0.00,1.97,0.22,9.56,0.00,-0.00,0.00,0.00
2026-06-26 19:26:45.769,994.41,994.41,0.88,1.25,0.00,1.97,0.22,9.56,0.00,-0.00,0.00,0.00
2026-06-26 19:26:45.771,994.41,994.41,0.88,1.25,0.00,1.97,0.22,9.56,0.00,-0.00,0.00,0.00
2026-06-26 19:26:45.772,994.41,994.41,0.88,1.25,0.00,1.97,0.22,9.56,0.00,-0.00,0.00,0.00
2026-06-26 19:26:45.775,994.41,994.41,0.88,1.25,0.00,1.97,0.22,9.56,0.00,-0.00,0.00,0.00
2026-06-26 19:26:45.778,994.41,994.41,0.88,1.25,0.00,1.97,0.22,9.56,0.00,0.00,-0.00,0.00
2026-06-26 19:26:45.779,994.41,994.41,0.88,1.25,0.00,1.97,0.22,9.56,0.00,0.00,-0.00,0.00
2026-06-26 19:26:45.780,994.41,994.41,0.88,1.25,0.00,1.97,0.22,9.56,0.00,0.00,-0.00,0.00
2026-06-26 19:26:45.781,994.41,994.41,0.88,1.25,0.00,1.97,0.22,9.56,0.00,0.00,-0.00,0.00
2026-06-26 19:26:45.785,994.41,994.41,0.88,1.25,0.00,1.97,0.22,9.56,0.00,0.00,-0.00,0.00
2026-06-26 19:26:45.790,994.41,994.41,0.88,1.25,0.00,1.97,0.22,9.56,0.00,-0.00,-0.00,0.00
2026-06-26 19:26:45.804,994.41,994.41,0.88,1.25,0.00,1.97,0.21,9.61,0.00,0.00,0.00,0.00
2026-06-26 19:26:45.848,994.41,994.41,0.49,0.92,0.00,1.97,0.23,9.57,-0.00,0.00,0.00,0.00
2026-06-26 19:26:45.891,994.41,994.41,-0.02,-0.16,0.00,1.97,0.23,9.58,0.00,0.00,0.00,0.00
2026-06-26 19:26:45.892,994.41,994.41,-0.02,-0.16,0.00,1.97,0.23,9.58,0.00,0.00,0.00,0.00
2026-06-26 19:26:45.893,994.41,994.41,-0.02,-0.16,0.00,1.97,0.23,9.58,0.00,0.00,0.00,0.00
2026-06-26 19:26:45.895,994.41,994.41,-0.02,-0.16,0.00,1.97,0.23,9.58,0.00,0.00,0.00,0.00
2026-06-26 19:26:45.898,994.41,994.41,-0.02,-0.16,0.00,1.97,0.23,9.58,0.00,0.00,0.00,0.00
2026-06-26 19:26:45.900,994.41,994.41,-0.02,-0.16,0.00,1.97,0.23,9.59,0.00,0.00,0.00,0.00
2026-06-26 19:26:45.906,994.41,994.41,-0.02,-0.16,0.00,1.97,0.23,9.59,0.00,0.00,0.00,0.00
2026-06-26 19:26:45.908,994.41,994.41,-0.02,-0.16,0.00,1.98,0.21,9.62,0.00,-0.00,0.00,0.00
2026-06-26 19:26:45.909,994.41,994.41,-0.02,-0.16,0.00,1.98,0.21,9.62,0.00,-0.00,0.00,0.00
2026-06-26 19:26:45.911,994.41,994.41,-0.02,-0.16,0.00,1.98,0.21,9.62,0.00,-0.00,0.00,0.00
2026-06-26 19:26:45.913,994.41,994.41,-0.02,-0.16,0.00,1.98,0.21,9.62,0.00,-0.00,0.00,0.00
2026-06-26 19:26:45.918,994.41,994.41,-0.02,-0.16,0.00,1.98,0.21,9.62,-0.00,0.00,0.00,0.00
2026-06-26 19:26:45.919,994.41,994.41,-0.02,-0.16,0.00,1.98,0.24,9.57,-0.00,0.00,0.00,0.00
2026-06-26 19:26:45.920,994.41,994.41,-0.02,-0.16,0.00,1.98,0.24,9.57,-0.00,0.00,0.00,0.00
2026-06-26 19:26:45.922,994.41,994.41,-0.02,-0.16,0.00,1.98,0.24,9.57,-0.00,0.00,0.00,0.00
2026-06-26 19:26:45.926,994.41,994.41,-0.02,-0.16,0.00,1.98,0.24,9.57,-0.00,0.00,0.00,0.00
2026-06-26 19:26:45.929,994.41,994.41,-0.02,-0.16,0.00,1.99,0.22,9.59,0.00,-0.00,0.00,0.00
2026-06-26 19:26:45.930,994.41,994.41,-0.02,-0.16,0.00,1.99,0.22,9.59,0.00,-0.00,0.00,0.00
2026-06-26 19:26:45.932,994.41,994.41,-0.02,-0.16,0.00,1.99,0.22,9.59,0.00,-0.00,0.00,0.00
2026-06-26 19:26:45.936,994.41,994.41,-0.02,-0.16,0.00,1.99,0.22,9.59,0.00,-0.00,0.00,0.00
2026-06-26 19:26:45.938,994.41,994.41,-0.02,-0.16,0.00,1.99,0.22,9.61,0.00,0.00,-0.00,0.00
2026-06-26 19:26:45.940,994.41,994.41,-0.02,-0.16,0.00,1.99,0.22,9.61,0.00,0.00,-0.00,0.00
2026-06-26 19:26:45.941,994.41,994.41,-0.02,-0.16,0.00,1.99,0.22,9.61,0.00,0.00,-0.00,0.00
2026-06-26 19:26:45.942,994.41,994.41,-0.02,-0.16,0.00,1.99,0.22,9.61,0.00,0.00,-0.00,0.00
2026-06-26 19:26:45.943,994.41,994.41,-0.02,-0.16,0.00,1.99,0.22,9.61,0.00,0.00,-0.00,0.00
2026-06-26 19:26:45.945,994.41,994.41,-0.02,-0.16,0.00,1.99,0.22,9.61,0.00,0.00,-0.00,0.00
2026-06-26 19:26:45.946,994.41,994.41,-0.02,-0.16,0.00,1.99,0.22,9.61,0.00,0.00,-0.00,0.00
2026-06-26 19:26:45.989,994.41,994.41,0.08,0.38,0.00,1.98,0.21,9.59,-0.00,-0.00,0.00,0.00
2026-06-26 19:26:45.990,994.41,994.41,0.08,0.38,0.00,1.98,0.21,9.59,-0.00,-0.00,0.00,0.00
2026-06-26 19:26:46.031,994.41,994.41,-0.12,-0.45,0.00,1.99,0.24,9.57,0.00,0.00,0.00,0.00
2026-06-26 19:26:46.038,994.41,994.41,-0.12,-0.45,0.00,1.99,0.24,9.57,0.00,0.00,0.00,0.00
2026-06-26 19:26:46.039,994.41,994.41,-0.12,-0.45,0.00,1.97,0.22,9.58,0.00,-0.00,0.00,0.00
2026-06-26 19:26:46.040,994.41,994.41,-0.12,-0.45,0.00,1.97,0.22,9.58,0.00,-0.00,0.00,0.00
2026-06-26 19:26:46.042,994.41,994.41,-0.12,-0.45,0.00,1.97,0.22,9.58,0.00,-0.00,0.00,0.00
2026-06-26 19:26:46.043,994.41,994.41,-0.12,-0.45,0.00,1.97,0.22,9.58,0.00,-0.00,0.00,0.00
2026-06-26 19:26:46.044,994.41,994.41,-0.12,-0.45,0.00,1.97,0.22,9.58,0.00,-0.00,0.00,0.00
2026-06-26 19:26:46.045,994.41,994.41,-0.12,-0.45,0.00,1.97,0.22,9.58,0.00,-0.00,0.00,0.00
2026-06-26 19:26:46.048,994.41,994.41,-0.12,-0.45,0.00,1.97,0.22,9.58,0.00,-0.00,0.00,0.00
2026-06-26 19:26:46.049,994.41,994.41,-0.12,-0.45,0.00,1.99,0.23,9.61,0.00,-0.00,0.00,0.00
2026-06-26 19:26:46.050,994.41,994.41,-0.12,-0.45,0.00,1.99,0.23,9.61,0.00,-0.00,0.00,0.00
2026-06-26 19:26:46.051,994.41,994.41,-0.12,-0.45,0.00,1.99,0.23,9.61,0.00,-0.00,0.00,0.00
2026-06-26 19:26:46.053,994.41,994.41,-0.12,-0.45,0.00,1.99,0.23,9.61,0.00,-0.00,0.00,0.00
2026-06-26 19:26:46.058,994.41,994.41,-0.12,-0.45,0.00,1.99,0.23,9.61,0.00,-0.00,0.00,0.00
2026-06-26 19:26:46.060,994.41,994.41,-0.12,-0.45,0.00,1.98,0.21,9.59,0.00,-0.00,0.00,0.00
2026-06-26 19:26:46.066,994.41,994.41,-0.12,-0.45,0.00,1.98,0.21,9.59,0.00,-0.00,0.00,0.00
2026-06-26 19:26:46.068,994.41,994.41,-0.12,-0.45,0.00,1.98,0.21,9.59,-0.00,-0.00,0.00,0.00
2026-06-26 19:26:46.070,994.41,994.41,-0.12,-0.45,0.00,1.98,0.21,9.58,-0.00,-0.00,0.00,0.00
2026-06-26 19:26:46.071,994.41,994.41,-0.12,-0.45,0.00,1.98,0.21,9.58,-0.00,-0.00,0.00,0.00
2026-06-26 19:26:46.072,994.41,994.41,-0.12,-0.45,0.00,1.98,0.21,9.58,-0.00,-0.00,0.00,0.00
2026-06-26 19:26:46.073,994.41,994.41,-0.12,-0.45,0.00,1.98,0.21,9.58,-0.00,-0.00,0.00,0.00
2026-06-26 19:26:46.078,994.41,994.41,-0.12,-0.45,0.00,1.98,0.21,9.58,0.00,-0.00,0.00,0.00
2026-06-26 19:26:46.079,994.41,994.41,-0.12,-0.45,0.00,1.96,0.20,9.56,0.00,-0.00,0.00,0.00
2026-06-26 19:26:46.081,994.41,994.41,-0.12,-0.45,0.00,1.96,0.20,9.56,0.00,-0.00,0.00,0.00
2026-06-26 19:26:46.082,994.41,994.41,-0.12,-0.45,0.00,1.96,0.20,9.56,0.00,-0.00,0.00,0.00
2026-06-26 19:26:46.087,994.41,994.41,-0.12,-0.45,0.00,1.96,0.20,9.56,0.00,-0.00,0.00,0.00
2026-06-26 19:26:46.089,994.41,994.41,-0.12,-0.45,0.00,1.98,0.21,9.58,0.00,-0.01,-0.00,0.00
2026-06-26 19:26:46.130,994.41,994.41,-0.12,-0.45,0.00,1.99,0.21,9.57,0.00,0.00,0.00,0.00
2026-06-26 19:26:46.172,994.41,994.41,0.13,0.49,0.00,1.97,0.22,9.56,0.00,0.00,0.00,0.00
2026-06-26 19:26:46.176,994.41,994.41,0.13,0.49,0.00,1.97,0.22,9.56,0.00,0.00,0.00,0.00
2026-06-26 19:26:46.179,994.41,994.41,0.13,0.49,0.00,1.97,0.22,9.56,0.00,-0.00,0.00,0.00
2026-06-26 19:26:46.180,994.41,994.41,0.13,0.49,0.00,1.98,0.23,9.57,0.00,-0.00,0.00,0.00
2026-06-26 19:26:46.181,994.41,994.41,0.13,0.49,0.00,1.98,0.23,9.57,0.00,-0.00,0.00,0.00
2026-06-26 19:26:46.186,994.41,994.41,0.13,0.49,0.00,1.98,0.23,9.57,0.00,-0.00,0.00,0.00
2026-06-26 19:26:46.189,994.41,994.41,0.13,0.49,0.00,1.98,0.23,9.57,0.00,-0.00,0.00,0.00
2026-06-26 19:26:46.190,994.41,994.41,0.13,0.49,0.00,1.96,0.22,9.56,0.00,-0.00,0.00,0.00
2026-06-26 19:26:46.191,994.41,994.41,0.13,0.49,0.00,1.96,0.22,9.56,0.00,-0.00,0.00,0.00
2026-06-26 19:26:46.193,994.41,994.41,0.13,0.49,0.00,1.96,0.22,9.56,0.00,-0.00,0.00,0.00
2026-06-26 19:26:46.194,994.41,994.41,0.13,0.49,0.00,1.96,0.22,9.56,0.00,-0.00,0.00,0.00
2026-06-26 19:26:46.195,994.41,994.41,0.13,0.49,0.00,1.96,0.22,9.56,0.00,-0.00,0.00,0.00
2026-06-26 19:26:46.196,994.41,994.41,0.13,0.49,0.00,1.96,0.22,9.56,0.00,-0.00,0.00,0.00
2026-06-26 19:26:46.198,994.41,994.41,0.13,0.49,0.00,1.96,0.22,9.56,0.00,-0.00,0.00,0.00
2026-06-26 19:26:46.199,994.41,994.41,0.13,0.49,0.00,1.96,0.23,9.59,0.00,-0.00,0.00,0.00
2026-06-26 19:26:46.200,994.41,994.41,0.13,0.49,0.00,1.96,0.23,9.59,0.00,-0.00,0.00,0.00
2026-06-26 19:26:46.202,994.41,994.41,0.13,0.49,0.00,1.96,0.23,9.59,0.00,-0.00,0.00,0.00
2026-06-26 19:26:46.203,994.41,994.41,0.13,0.49,0.00,1.96,0.23,9.59,0.00,-0.00,0.00,0.00
2026-06-26 19:26:46.208,994.41,994.41,0.13,0.49,0.00,1.96,0.23,9.59,0.00,-0.00,0.00,0.00
2026-06-26 19:26:46.209,994.41,994.41,0.13,0.49,0.00,1.97,0.22,9.60,0.00,-0.00,0.00,0.00
2026-06-26 19:26:46.211,994.41,994.41,0.13,0.49,0.00,1.97,0.22,9.60,0.00,-0.00,0.00,0.00
2026-06-26 19:26:46.215,994.41,994.41,0.13,0.49,0.00,1.97,0.22,9.60,0.00,-0.00,0.00,0.00
2026-06-26 19:26:46.219,994.41,994.41,0.13,0.49,0.00,1.97,0.22,9.60,-0.00,0.00,0.00,0.00
2026-06-26 19:26:46.220,994.41,994.41,0.13,0.49,0.00,1.96,0.23,9.60,-0.00,0.00,0.00,0.00
2026-06-26 19:26:46.221,994.41,994.41,0.13,0.49,0.00,1.96,0.23,9.60,-0.00,0.00,0.00,0.00
2026-06-26 19:26:46.222,994.41,994.41,0.13,0.49,0.00,1.96,0.23,9.60,-0.00,0.00,0.00,0.00
2026-06-26 19:26:46.228,994.41,994.41,0.13,0.49,0.00,1.96,0.23,9.60,-0.00,0.00,0.00,0.00
2026-06-26 19:26:46.230,994.41,994.41,0.13,0.49,0.00,1.98,0.23,9.59,0.00,0.00,0.00,0.00
2026-06-26 19:26:46.314,994.41,994.42,0.97,1.30,0.00,1.97,0.23,9.57,0.00,-0.00,0.00,0.00
2026-06-26 19:26:46.319,994.41,994.42,0.97,1.30,0.00,1.97,0.23,9.57,0.00,0.00,0.00,0.00
2026-06-26 19:26:46.320,994.41,994.42,0.97,1.30,0.00,1.97,0.22,9.54,0.00,0.00,0.00,0.00
2026-06-26 19:26:46.321,994.41,994.42,0.97,1.30,0.00,1.97,0.22,9.54,0.00,0.00,0.00,0.00
2026-06-26 19:26:46.325,994.41,994.42,0.97,1.30,0.00,1.97,0.22,9.54,0.00,0.00,0.00,0.00
2026-06-26 19:26:46.329,994.41,994.42,0.97,1.30,0.00,1.97,0.22,9.54,0.00,0.00,0.00,0.00
2026-06-26 19:26:46.330,994.41,994.42,0.97,1.30,0.00,1.98,0.22,9.59,0.00,0.00,0.00,0.00
2026-06-26 19:26:46.332,994.41,994.42,0.97,1.30,0.00,1.98,0.22,9.59,0.00,0.00,0.00,0.00
2026-06-26 19:26:46.333,994.41,994.42,0.97,1.30,0.00,1.98,0.22,9.59,0.00,0.00,0.00,0.00
2026-06-26 19:26:46.338,994.41,994.42,0.97,1.30,0.00,1.98,0.22,9.59,0.00,0.00,0.00,0.00
2026-06-26 19:26:46.340,994.41,994.42,0.97,1.30,0.00,1.98,0.22,9.59,-0.00,0.00,-0.00,0.00
2026-06-26 19:26:46.341,994.41,994.42,0.97,1.30,0.00,1.98,0.22,9.59,-0.00,0.00,-0.00,0.00
2026-06-26 19:26:46.342,994.41,994.42,0.97,1.30,0.00,1.98,0.22,9.59,-0.00,0.00,-0.00,0.00
2026-06-26 19:26:46.343,994.41,994.42,0.97,1.30,0.00,1.98,0.22,9.59,-0.00,0.00,-0.00,0.00
2026-06-26 19:26:46.345,994.41,994.42,0.97,1.30,0.00,1.98,0.22,9.59,-0.00,0.00,-0.00,0.00
2026-06-26 19:26:46.346,994.41,994.42,0.97,1.30,0.00,1.98,0.22,9.59,-0.00,0.00,-0.00,0.00
2026-06-26 19:26:46.348,994.41,994.42,0.97,1.30,0.00,1.98,0.22,9.59,-0.00,0.00,-0.00,0.00
2026-06-26 19:26:46.350,994.41,994.42,0.97,1.30,0.00,1.97,0.21,9.59,0.00,0.00,0.00,0.00
2026-06-26 19:26:46.352,994.41,994.42,0.97,1.30,0.00,1.97,0.21,9.59,0.00,0.00,0.00,0.00
2026-06-26 19:26:46.357,994.41,994.42,0.97,1.30,0.00,1.97,0.21,9.59,0.00,0.00,0.00,0.00
2026-06-26 19:26:46.359,994.41,994.42,0.97,1.30,0.00,1.97,0.21,9.59,0.00,0.00,-0.00,0.00
2026-06-26 19:26:46.360,994.41,994.42,0.97,1.30,0.00,1.98,0.22,9.60,0.00,0.00,-0.00,0.00
2026-06-26 19:26:46.361,994.41,994.42,0.97,1.30,0.00,1.98,0.22,9.60,0.00,0.00,-0.00,0.00
2026-06-26 19:26:46.363,994.41,994.42,0.97,1.30,0.00,1.98,0.22,9.60,0.00,0.00,-0.00,0.00
2026-06-26 19:26:46.367,994.41,994.42,0.97,1.30,0.00,1.98,0.22,9.60,0.00,0.00,-0.00,0.00
2026-06-26 19:26:46.369,994.41,994.42,0.97,1.30,0.00,1.98,0.22,9.60,0.00,0.00,0.00,0.00
2026-06-26 19:26:46.372,994.41,994.42,0.97,1.30,0.00,1.96,0.23,9.56,0.00,0.00,0.00,0.00
2026-06-26 19:26:46.458,994.41,994.42,0.88,1.25,0.00,1.97,0.23,9.60,0.00,0.00,0.00,0.00
2026-06-26 19:26:46.460,994.41,994.42,0.88,1.25,0.00,1.97,0.21,9.56,0.00,0.00,-0.00,0.00
2026-06-26 19:26:46.461,994.41,994.42,0.88,1.25,0.00,1.97,0.21,9.56,0.00,0.00,-0.00,0.00
2026-06-26 19:26:46.462,994.41,994.42,0.88,1.25,0.00,1.97,0.21,9.56,0.00,0.00,-0.00,0.00
2026-06-26 19:26:46.463,994.41,994.42,0.88,1.25,0.00,1.97,0.21,9.56,0.00,0.00,-0.00,0.00
2026-06-26 19:26:46.469,994.41,994.42,0.88,1.25,0.00,1.97,0.21,9.56,0.00,0.00,-0.00,0.00
2026-06-26 19:26:46.470,994.41,994.42,0.88,1.25,0.00,1.97,0.23,9.60,0.00,0.00,-0.00,0.00
2026-06-26 19:26:46.471,994.41,994.42,0.88,1.25,0.00,1.97,0.23,9.60,0.00,0.00,-0.00,0.00
2026-06-26 19:26:46.472,994.41,994.42,0.88,1.25,0.00,1.97,0.23,9.60,0.00,0.00,-0.00,0.00
2026-06-26 19:26:46.474,994.41,994.42,0.88,1.25,0.00,1.97,0.23,9.60,0.00,0.00,-0.00,0.00
2026-06-26 19:26:46.479,994.41,994.42,0.88,1.25,0.00,1.97,0.23,9.60,0.00,0.00,-0.00,0.00
2026-06-26 19:26:46.480,994.41,994.42,0.88,1.25,0.00,1.97,0.22,9.60,0.00,0.00,-0.00,0.00
2026-06-26 19:26:46.481,994.41,994.42,0.88,1.25,0.00,1.97,0.22,9.60,0.00,0.00,-0.00,0.00
2026-06-26 19:26:46.483,994.41,994.42,0.88,1.25,0.00,1.97,0.22,9.60,0.00,0.00,-0.00,0.00
2026-06-26 19:26:46.488,994.41,994.42,0.88,1.25,0.00,1.97,0.22,9.60,0.00,0.00,-0.00,0.00
2026-06-26 19:26:46.490,994.41,994.42,0.88,1.25,0.00,1.97,0.23,9.57,-0.00,0.00,0.00,0.00
2026-06-26 19:26:46.491,994.41,994.42,0.88,1.25,0.00,1.97,0.23,9.57,-0.00,0.00,0.00,0.00
2026-06-26 19:26:46.493,994.41,994.42,0.88,1.25,0.00,1.97,0.23,9.57,-0.00,0.00,0.00,0.00
2026-06-26 19:26:46.496,994.41,994.42,0.88,1.25,0.00,1.97,0.23,9.57,-0.00,0.00,0.00,0.00
2026-06-26 19:26:46.499,994.41,994.42,0.88,1.25,0.00,1.97,0.23,9.57,0.00,0.00,-0.00,0.00
2026-06-26 19:26:46.501,994.41,994.42,0.88,1.25,0.00,1.97,0.22,9.60,0.00,0.00,-0.00,0.00
2026-06-26 19:26:46.502,994.41,994.42,0.88,1.25,0.00,1.97,0.22,9.60,0.00,0.00,-0.00,0.00
2026-06-26 19:26:46.503,994.41,994.42,0.88,1.25,0.00,1.97,0.22,9.60,0.00,0.00,-0.00,0.00
2026-06-26 19:26:46.507,994.41,994.42,0.88,1.25,0.00,1.97,0.22,9.60,0.00,0.00,-0.00,0.00
2026-06-26 19:26:46.509,994.41,994.42,0.88,1.25,0.00,1.97,0.22,9.60,-0.00,0.01,0.00,0.00
2026-06-26 19:26:46.511,994.41,994.42,0.88,1.25,0.00,1.96,0.24,9.58,-0.00,0.01,0.00,0.00
2026-06-26 19:26:46.512,994.41,994.42,0.88,1.25,0.00,1.96,0.24,9.58,-0.00,0.01,0.00,0.00
2026-06-26 19:26:46.557,994.41,994.42,1.06,1.36,0.00,1.98,0.23,9.57,0.00,0.00,-0.00,0.00
2026-06-26 19:26:46.600,994.41,994.42,0.86,1.23,0.00,1.99,0.24,9.62,0.00,0.00,0.00,0.00
2026-06-26 19:26:46.601,994.41,994.42,0.86,1.23,0.00,1.99,0.24,9.62,0.00,0.00,0.00,0.00
2026-06-26 19:26:46.602,994.41,994.42,0.86,1.23,0.00,1.99,0.24,9.62,0.00,0.00,0.00,0.00
2026-06-26 19:26:46.603,994.41,994.42,0.86,1.23,0.00,1.99,0.24,9.62,0.00,0.00,0.00,0.00
2026-06-26 19:26:46.609,994.41,994.42,0.86,1.23,0.00,1.99,0.24,9.62,0.00,0.00,0.00,0.00
2026-06-26 19:26:46.610,994.41,994.42,0.86,1.23,0.00,1.97,0.22,9.57,0.00,0.00,-0.00,0.00
2026-06-26 19:26:46.612,994.41,994.42,0.86,1.23,0.00,1.97,0.22,9.57,0.00,0.00,-0.00,0.00
2026-06-26 19:26:46.617,994.41,994.42,0.86,1.23,0.00,1.97,0.22,9.57,0.00,0.00,-0.00,0.00
2026-06-26 19:26:46.620,994.41,994.42,0.86,1.23,0.00,1.97,0.22,9.57,0.00,0.00,0.00,0.00
2026-06-26 19:26:46.621,994.41,994.42,0.86,1.23,0.00,1.97,0.22,9.57,0.00,0.00,0.00,0.00
2026-06-26 19:26:46.623,994.41,994.42,0.86,1.23,0.00,1.97,0.22,9.57,0.00,0.00,0.00,0.00
2026-06-26 19:26:46.629,994.41,994.42,0.86,1.23,0.00,1.97,0.22,9.57,0.00,0.00,0.00,0.00
2026-06-26 19:26:46.631,994.41,994.42,0.86,1.23,0.00,1.98,0.22,9.60,0.00,0.00,0.00,0.00
2026-06-26 19:26:46.632,994.41,994.42,0.86,1.23,0.00,1.98,0.22,9.60,0.00,0.00,0.00,0.00
2026-06-26 19:26:46.633,994.41,994.42,0.86,1.23,0.00,1.98,0.22,9.60,0.00,0.00,0.00,0.00
2026-06-26 19:26:46.637,994.41,994.42,0.86,1.23,0.00,1.98,0.22,9.60,0.00,0.00,0.00,0.00
2026-06-26 19:26:46.640,994.41,994.42,0.86,1.23,0.00,1.98,0.22,9.60,-0.00,0.00,0.00,0.00
2026-06-26 19:26:46.641,994.41,994.42,0.86,1.23,0.00,1.96,0.24,9.58,-0.00,0.00,0.00,0.00
2026-06-26 19:26:46.642,994.41,994.42,0.86,1.23,0.00,1.96,0.24,9.58,-0.00,0.00,0.00,0.00
2026-06-26 19:26:46.644,994.41,994.42,0.86,1.23,0.00,1.96,0.24,9.58,-0.00,0.00,0.00,0.00
2026-06-26 19:26:46.645,994.41,994.42,0.86,1.23,0.00,1.96,0.24,9.58,-0.00,0.00,0.00,0.00
2026-06-26 19:26:46.649,994.41,994.42,0.86,1.23,0.00,1.96,0.24,9.58,-0.00,0.00,0.00,0.00
2026-06-26 19:26:46.650,994.41,994.42,0.86,1.23,0.00,1.95,0.22,9.59,0.00,0.00,0.00,0.00
2026-06-26 19:26:46.651,994.41,994.42,0.86,1.23,0.00,1.95,0.22,9.59,0.00,0.00,0.00,0.00
2026-06-26 19:26:46.653,994.41,994.42,0.86,1.23,0.00,1.95,0.22,9.59,0.00,0.00,0.00,0.00
2026-06-26 19:26:46.695,994.41,994.42,0.74,1.14,0.00,1.97,0.24,9.59,0.00,0.00,0.00,0.00
2026-06-26 19:26:46.697,994.41,994.42,0.74,1.14,0.00,1.97,0.24,9.59,0.00,0.00,0.00,0.00
2026-06-26 19:26:46.700,994.41,994.42,0.74,1.14,0.00,1.97,0.24,9.59,0.00,-0.00,0.00,0.00
2026-06-26 19:26:46.742,994.41,994.42,0.68,1.09,0.00,1.97,0.22,9.59,0.00,-0.00,0.00,0.00
2026-06-26 19:26:46.744,994.41,994.42,0.68,1.09,0.00,1.97,0.22,9.59,0.00,-0.00,0.00,0.00
2026-06-26 19:26:46.745,994.41,994.42,0.68,1.09,0.00,1.97,0.22,9.59,0.00,-0.00,0.00,0.00
2026-06-26 19:26:46.746,994.41,994.42,0.68,1.09,0.00,1.97,0.22,9.59,0.00,-0.00,0.00,0.00
2026-06-26 19:26:46.749,994.41,994.42,0.68,1.09,0.00,1.97,0.22,9.59,0.00,-0.00,0.00,0.00
2026-06-26 19:26:46.751,994.41,994.42,0.68,1.09,0.00,1.99,0.23,9.60,0.00,-0.00,0.00,0.00
2026-06-26 19:26:46.752,994.41,994.42,0.68,1.09,0.00,1.99,0.23,9.60,0.00,-0.00,0.00,0.00
2026-06-26 19:26:46.753,994.41,994.42,0.68,1.09,0.00,1.99,0.23,9.60,0.00,-0.00,0.00,0.00
2026-06-26 19:26:46.754,994.41,994.42,0.68,1.09,0.00,1.99,0.23,9.60,0.00,-0.00,0.00,0.00
2026-06-26 19:26:46.759,994.41,994.42,0.68,1.09,0.00,1.99,0.23,9.60,0.00,-0.00,0.00,0.00
2026-06-26 19:26:46.761,994.41,994.42,0.68,1.09,0.00,1.97,0.23,9.57,-0.00,0.00,-0.00,0.00
2026-06-26 19:26:46.762,994.41,994.42,0.68,1.09,0.00,1.97,0.23,9.57,-0.00,0.00,-0.00,0.00
2026-06-26 19:26:46.763,994.41,994.42,0.68,1.09,0.00,1.97,0.23,9.57,-0.00,0.00,-0.00,0.00
2026-06-26 19:26:46.765,994.41,994.42,0.68,1.09,0.00,1.97,0.23,9.57,-0.00,0.00,-0.00,0.00
2026-06-26 19:26:46.770,994.41,994.42,0.68,1.09,0.00,1.97,0.23,9.57,0.00,0.00,0.00,0.00
2026-06-26 19:26:46.771,994.41,994.42,0.68,1.09,0.00,1.98,0.23,9.59,0.00,0.00,0.00,0.00
2026-06-26 19:26:46.772,994.41,994.42,0.68,1.09,0.00,1.98,0.23,9.59,0.00,0.00,0.00,0.00
2026-06-26 19:26:46.774,994.41,994.42,0.68,1.09,0.00,1.98,0.23,9.59,0.00,0.00,0.00,0.00
2026-06-26 19:26:46.776,994.41,994.42,0.68,1.09,0.00,1.98,0.23,9.59,0.00,0.00,0.00,0.00
2026-06-26 19:26:46.780,994.41,994.42,0.68,1.09,0.00,1.98,0.23,9.59,-0.00,0.00,0.00,0.00
2026-06-26 19:26:46.781,994.41,994.42,0.68,1.09,0.00,1.97,0.23,9.60,-0.00,0.00,0.00,0.00
2026-06-26 19:26:46.782,994.41,994.42,0.68,1.09,0.00,1.97,0.23,9.60,-0.00,0.00,0.00,0.00
2026-06-26 19:26:46.784,994.41,994.42,0.68,1.09,0.00,1.97,0.23,9.60,-0.00,0.00,0.00,0.00
2026-06-26 19:26:46.787,994.41,994.42,0.68,1.09,0.00,1.97,0.23,9.60,-0.00,0.00,0.00,0.00
2026-06-26 19:26:46.790,994.41,994.42,0.68,1.09,0.00,1.97,0.23,9.60,0.00,0.00,-0.00,0.00
2026-06-26 19:26:46.791,994.41,994.42,0.68,1.09,0.00,1.98,0.21,9.58,0.00,0.00,-0.00,0.00
2026-06-26 19:26:46.793,994.41,994.42,0.68,1.09,0.00,1.98,0.21,9.58,0.00,0.00,-0.00,0.00
2026-06-26 19:26:46.794,994.41,994.42,0.68,1.09,0.00,1.98,0.21,9.58,0.00,0.00,-0.00,0.00
2026-06-26 19:26:46.840,994.41,994.42,1.11,1.39,0.00,1.97,0.22,9.60,0.00,-0.00,0.00,0.00
2026-06-26 19:26:46.841,994.41,994.42,1.11,1.39,0.00,1.97,0.20,9.60,-0.00,-0.00,0.00,0.00
2026-06-26 19:26:46.884,994.41,994.42,1.07,1.37,0.00,1.99,0.23,9.58,0.00,0.00,0.00,0.00
2026-06-26 19:26:46.890,994.41,994.42,1.07,1.37,0.00,1.99,0.23,9.58,0.00,0.00,-0.00,0.00
2026-06-26 19:26:46.891,994.41,994.42,1.07,1.37,0.00,1.99,0.20,9.59,0.00,0.00,-0.00,0.00
2026-06-26 19:26:46.894,994.41,994.42,1.07,1.37,0.00,1.99,0.20,9.59,0.00,0.00,-0.00,0.00
2026-06-26 19:26:46.896,994.41,994.42,1.07,1.37,0.00,1.99,0.20,9.59,0.00,0.00,-0.00,0.00
2026-06-26 19:26:46.897,994.41,994.42,1.07,1.37,0.00,1.99,0.20,9.59,0.00,0.00,-0.00,0.00
2026-06-26 19:26:46.900,994.41,994.42,1.07,1.37,0.00,1.99,0.20,9.59,-0.00,0.00,0.00,0.00
2026-06-26 19:26:46.901,994.41,994.42,1.07,1.37,0.00,1.96,0.23,9.59,-0.00,0.00,0.00,0.00
2026-06-26 19:26:46.902,994.41,994.42,1.07,1.37,0.00,1.96,0.23,9.59,-0.00,0.00,0.00,0.00
2026-06-26 19:26:46.903,994.41,994.42,1.07,1.37,0.00,1.96,0.23,9.59,-0.00,0.00,0.00,0.00
2026-06-26 19:26:46.906,994.41,994.42,1.07,1.37,0.00,1.96,0.23,9.59,-0.00,0.00,0.00,0.00
2026-06-26 19:26:46.910,994.41,994.42,1.07,1.37,0.00,1.96,0.23,9.59,0.00,-0.00,0.00,0.00
2026-06-26 19:26:46.911,994.41,994.42,1.07,1.37,0.00,1.99,0.22,9.59,0.00,-0.00,0.00,0.00
2026-06-26 19:26:46.913,994.41,994.42,1.07,1.37,0.00,1.99,0.22,9.59,0.00,-0.00,0.00,0.00
2026-06-26 19:26:46.914,994.41,994.42,1.07,1.37,0.00,1.99,0.22,9.59,0.00,-0.00,0.00,0.00
2026-06-26 19:26:46.917,994.41,994.42,1.07,1.37,0.00,1.99,0.22,9.59,0.00,-0.00,0.00,0.00
2026-06-26 19:26:46.921,994.41,994.42,1.07,1.37,0.00,1.99,0.22,9.59,0.00,0.00,-0.00,0.00
2026-06-26 19:26:46.923,994.41,994.42,1.07,1.37,0.00,1.98,0.21,9.55,0.00,0.00,-0.00,0.00
2026-06-26 19:26:46.930,994.41,994.42,1.07,1.37,0.00,1.98,0.21,9.55,0.00,0.00,-0.00,0.00
2026-06-26 19:26:46.931,994.41,994.42,1.07,1.37,0.00,1.97,0.23,9.55,0.00,0.00,0.00,0.00
2026-06-26 19:26:46.932,994.41,994.42,1.07,1.37,0.00,1.97,0.23,9.55,0.00,0.00,0.00,0.00
2026-06-26 19:26:46.933,994.41,994.42,1.07,1.37,0.00,1.97,0.23,9.55,0.00,0.00,0.00,0.00
2026-06-26 19:26:46.935,994.41,994.42,1.07,1.37,0.00,1.97,0.23,9.55,0.00,0.00,0.00,0.00
2026-06-26 19:26:46.980,994.41,994.42,0.84,1.21,0.00,1.97,0.23,9.56,0.00,0.00,0.00,0.00
2026-06-26 19:26:46.982,994.41,994.42,0.84,1.21,0.00,1.99,0.21,9.59,0.00,0.00,0.00,0.00
2026-06-26 19:26:46.983,994.41,994.42,0.84,1.21,0.00,1.99,0.21,9.59,0.00,0.00,0.00,0.00
2026-06-26 19:26:47.030,994.41,994.42,0.95,1.29,0.00,1.99,0.23,9.59,0.00,0.00,0.00,0.00
2026-06-26 19:26:47.032,994.41,994.42,0.95,1.29,0.00,1.98,0.23,9.58,0.00,0.00,0.00,0.00
2026-06-26 19:26:47.037,994.41,994.42,0.95,1.29,0.00,1.98,0.23,9.58,0.00,0.00,0.00,0.00
2026-06-26 19:26:47.041,994.41,994.42,0.95,1.29,0.00,1.98,0.23,9.58,-0.00,-0.00,0.00,0.00
2026-06-26 19:26:47.042,994.41,994.42,0.95,1.29,0.00,1.97,0.23,9.57,-0.00,-0.00,0.00,0.00
2026-06-26 19:26:47.044,994.41,994.42,0.95,1.29,0.00,1.97,0.23,9.57,-0.00,-0.00,0.00,0.00
2026-06-26 19:26:47.045,994.41,994.42,0.95,1.29,0.00,1.97,0.23,9.57,-0.00,-0.00,0.00,0.00
2026-06-26 19:26:47.047,994.41,994.42,0.95,1.29,0.00,1.97,0.23,9.57,-0.00,-0.00,0.00,0.00
2026-06-26 19:26:47.050,994.41,994.42,0.95,1.29,0.00,1.97,0.23,9.57,0.00,-0.00,0.00,0.00
2026-06-26 19:26:47.053,994.41,994.42,0.95,1.29,0.00,1.97,0.21,9.60,0.00,-0.00,0.00,0.00
2026-06-26 19:26:47.054,994.41,994.42,0.95,1.29,0.00,1.97,0.21,9.60,0.00,-0.00,0.00,0.00
2026-06-26 19:26:47.060,994.41,994.42,0.95,1.29,0.00,1.97,0.21,9.60,0.00,-0.00,0.00,0.00
2026-06-26 19:26:47.061,994.41,994.42,0.95,1.29,0.00,1.97,0.23,9.59,0.00,-0.00,0.00,0.00
2026-06-26 19:26:47.062,994.41,994.42,0.95,1.29,0.00,1.97,0.23,9.59,0.00,-0.00,0.00,0.00
2026-06-26 19:26:47.064,994.41,994.42,0.95,1.29,0.00,1.97,0.23,9.59,0.00,-0.00,0.00,0.00
2026-06-26 19:26:47.067,994.41,994.42,0.95,1.29,0.00,1.97,0.23,9.59,0.00,-0.00,0.00,0.00
2026-06-26 19:26:47.071,994.41,994.42,0.95,1.29,0.00,1.97,0.23,9.59,0.00,-0.00,-0.00,0.00
2026-06-26 19:26:47.072,994.41,994.42,0.95,1.29,0.00,1.98,0.23,9.57,0.00,-0.00,-0.00,0.00
2026-06-26 19:26:47.073,994.41,994.42,0.95,1.29,0.00,1.98,0.23,9.57,0.00,-0.00,-0.00,0.00
2026-06-26 19:26:47.075,994.41,994.42,0.95,1.29,0.00,1.98,0.23,9.57,0.00,-0.00,-0.00,0.00
2026-06-26 19:26:47.076,994.41,994.42,0.95,1.29,0.00,1.98,0.23,9.57,0.00,-0.00,-0.00,0.00
2026-06-26 19:26:47.080,994.41,994.42,0.95,1.29,0.00,1.98,0.23,9.57,-0.00,0.00,-0.00,0.00
2026-06-26 19:26:47.122,994.41,994.42,0.92,1.27,0.00,1.98,0.22,9.61,0.00,-0.01,-0.00,0.00
2026-06-26 19:26:47.123,994.41,994.42,0.92,1.27,0.00,1.98,0.22,9.61,0.00,-0.01,-0.00,0.00
2026-06-26 19:26:47.124,994.41,994.42,0.92,1.27,0.00,1.98,0.22,9.61,0.00,-0.01,-0.00,0.00
2026-06-26 19:26:47.170,994.41,994.42,1.16,1.43,0.00,1.99,0.24,9.59,0.00,-0.00,0.00,0.00
2026-06-26 19:26:47.172,994.41,994.42,1.16,1.43,0.00,1.96,0.23,9.58,0.00,0.00,-0.00,0.00
2026-06-26 19:26:47.173,994.41,994.42,1.16,1.43,0.00,1.96,0.23,9.58,0.00,0.00,-0.00,0.00
2026-06-26 19:26:47.174,994.41,994.42,1.16,1.43,0.00,1.96,0.23,9.58,0.00,0.00,-0.00,0.00
2026-06-26 19:26:47.175,994.41,994.42,1.16,1.43,0.00,1.96,0.23,9.58,0.00,0.00,-0.00,0.00
2026-06-26 19:26:47.180,994.41,994.42,1.16,1.43,0.00,1.96,0.23,9.58,0.00,0.00,-0.00,0.00
2026-06-26 19:26:47.181,994.41,994.42,1.16,1.43,0.00,1.97,0.24,9.59,0.00,-0.00,0.00,0.00
2026-06-26 19:26:47.183,994.41,994.42,1.16,1.43,0.00,1.97,0.24,9.59,0.00,-0.00,0.00,0.00
2026-06-26 19:26:47.184,994.41,994.42,1.16,1.43,0.00,1.97,0.24,9.59,0.00,-0.00,0.00,0.00
2026-06-26 19:26:47.185,994.41,994.42,1.16,1.43,0.00,1.97,0.24,9.59,0.00,-0.00,0.00,0.00
2026-06-26 19:26:47.191,994.41,994.42,1.16,1.43,0.00,1.97,0.24,9.59,0.00,-0.00,0.00,0.00
2026-06-26 19:26:47.192,994.41,994.42,1.16,1.43,0.00,1.98,0.22,9.58,0.00,-0.00,0.00,0.00
2026-06-26 19:26:47.193,994.41,994.42,1.16,1.43,0.00,1.98,0.22,9.58,0.00,-0.00,0.00,0.00
2026-06-26 19:26:47.195,994.41,994.42,1.16,1.43,0.00,1.98,0.22,9.58,0.00,-0.00,0.00,0.00
2026-06-26 19:26:47.196,994.41,994.42,1.16,1.43,0.00,1.98,0.22,9.58,0.00,-0.00,0.00,0.00
2026-06-26 19:26:47.198,994.41,994.42,1.16,1.43,0.00,1.98,0.22,9.58,0.00,-0.00,0.00,0.00
2026-06-26 19:26:47.201,994.41,994.42,1.16,1.43,0.00,1.98,0.22,9.58,0.00,-0.00,-0.00,0.00
2026-06-26 19:26:47.202,994.41,994.42,1.16,1.43,0.00,1.97,0.22,9.57,0.00,-0.00,-0.00,0.00
2026-06-26 19:26:47.203,994.41,994.42,1.16,1.43,0.00,1.97,0.22,9.57,0.00,-0.00,-0.00,0.00
2026-06-26 19:26:47.205,994.41,994.42,1.16,1.43,0.00,1.97,0.22,9.57,0.00,-0.00,-0.00,0.00
2026-06-26 19:26:47.210,994.41,994.42,1.16,1.43,0.00,1.97,0.22,9.57,0.00,-0.00,-0.00,0.00
2026-06-26 19:26:47.211,994.41,994.42,1.16,1.43,0.00,1.98,0.23,9.61,-0.00,-0.00,0.00,0.00
2026-06-26 19:26:47.212,994.41,994.42,1.16,1.43,0.00,1.98,0.23,9.61,-0.00,-0.00,0.00,0.00
2026-06-26 19:26:47.214,994.41,994.42,1.16,1.43,0.00,1.98,0.23,9.61,-0.00,-0.00,0.00,0.00
2026-06-26 19:26:47.215,994.41,994.42,1.16,1.43,0.00,1.98,0.23,9.61,-0.00,-0.00,0.00,0.00
2026-06-26 19:26:47.220,994.41,994.42,1.16,1.43,0.00,1.98,0.23,9.61,-0.00,-0.00,0.00,0.00
2026-06-26 19:26:47.262,994.41,994.42,1.13,1.41,0.00,1.97,0.23,9.60,0.00,-0.00,0.00,0.00
2026-06-26 19:26:47.264,994.41,994.42,1.13,1.41,0.00,1.97,0.23,9.60,0.00,-0.00,0.00,0.00
2026-06-26 19:26:47.265,994.41,994.42,1.13,1.41,0.00,1.97,0.23,9.60,0.00,-0.00,0.00,0.00
2026-06-26 19:26:47.270,994.41,994.42,1.13,1.41,0.00,1.97,0.23,9.60,0.00,-0.00,0.00,0.00
2026-06-26 19:26:47.312,994.41,994.42,1.48,1.61,0.00,1.97,0.22,9.58,-0.00,0.00,0.00,0.00
2026-06-26 19:26:47.313,994.41,994.42,1.48,1.61,0.00,1.97,0.22,9.58,-0.00,0.00,0.00,0.00
2026-06-26 19:26:47.314,994.41,994.42,1.48,1.61,0.00,1.97,0.22,9.58,-0.00,0.00,0.00,0.00
2026-06-26 19:26:47.318,994.41,994.42,1.48,1.61,0.00,1.97,0.22,9.58,-0.00,0.00,0.00,0.00
2026-06-26 19:26:47.321,994.41,994.42,1.48,1.61,0.00,1.97,0.22,9.58,0.00,-0.00,-0.00,0.00
2026-06-26 19:26:47.323,994.41,994.42,1.48,1.61,0.00,1.97,0.23,9.56,0.00,-0.00,-0.00,0.00
2026-06-26 19:26:47.324,994.41,994.42,1.48,1.61,0.00,1.97,0.23,9.56,0.00,-0.00,-0.00,0.00
2026-06-26 19:26:47.326,994.41,994.42,1.48,1.61,0.00,1.97,0.23,9.56,0.00,-0.00,-0.00,0.00
2026-06-26 19:26:47.331,994.41,994.42,1.48,1.61,0.00,1.97,0.23,9.56,0.00,-0.00,-0.00,0.00
2026-06-26 19:26:47.332,994.41,994.42,1.48,1.61,0.00,1.97,0.20,9.58,0.00,0.00,0.00,0.00
2026-06-26 19:26:47.334,994.41,994.42,1.48,1.61,0.00,1.97,0.20,9.58,0.00,0.00,0.00,0.00
2026-06-26 19:26:47.335,994.41,994.42,1.48,1.61,0.00,1.97,0.20,9.58,0.00,0.00,0.00,0.00
2026-06-26 19:26:47.341,994.41,994.42,1.48,1.61,0.00,1.97,0.20,9.58,0.00,0.00,0.00,0.00
2026-06-26 19:26:47.342,994.41,994.42,1.48,1.61,0.00,1.96,0.23,9.59,0.00,-0.00,0.00,0.00
2026-06-26 19:26:47.343,994.41,994.42,1.48,1.61,0.00,1.96,0.23,9.59,0.00,-0.00,0.00,0.00
2026-06-26 19:26:47.344,994.41,994.42,1.48,1.61,0.00,1.96,0.23,9.59,0.00,-0.00,0.00,0.00
2026-06-26 19:26:47.346,994.41,994.42,1.48,1.61,0.00,1.96,0.23,9.59,0.00,-0.00,0.00,0.00
2026-06-26 19:26:47.348,994.41,994.42,1.48,1.61,0.00,1.96,0.23,9.59,0.00,-0.00,0.00,0.00
2026-06-26 19:26:47.351,994.41,994.42,1.48,1.61,0.00,1.96,0.23,9.59,0.00,0.00,0.00,0.00
2026-06-26 19:26:47.353,994.41,994.42,1.48,1.61,0.00,1.98,0.21,9.59,0.00,0.00,0.00,0.00
2026-06-26 19:26:47.354,994.41,994.42,1.48,1.61,0.00,1.98,0.21,9.59,0.00,0.00,0.00,0.00
2026-06-26 19:26:47.355,994.41,994.42,1.48,1.61,0.00,1.98,0.21,9.59,0.00,0.00,0.00,0.00
2026-06-26 19:26:47.361,994.41,994.42,1.48,1.61,0.00,1.98,0.21,9.59,0.00,0.00,0.00,0.00
2026-06-26 19:26:47.362,994.41,994.42,1.48,1.61,0.00,1.97,0.23,9.60,-0.00,0.00,0.00,0.00
2026-06-26 19:26:47.404,994.41,994.42,1.59,1.67,0.00,1.96,0.21,9.59,0.00,-0.00,0.00,0.00
2026-06-26 19:26:47.408,994.41,994.42,1.59,1.67,0.00,1.96,0.21,9.59,0.00,-0.00,0.00,0.00
2026-06-26 19:26:47.411,994.41,994.42,1.59,1.67,0.00,1.96,0.21,9.59,0.00,0.00,0.00,0.00
2026-06-26 19:26:47.453,994.41,994.42,1.02,1.34,0.00,1.96,0.22,9.62,0.00,-0.00,-0.00,0.00
2026-06-26 19:26:47.454,994.41,994.42,1.02,1.34,0.00,1.96,0.22,9.62,0.00,-0.00,-0.00,0.00
2026-06-26 19:26:47.457,994.41,994.42,1.02,1.34,0.00,1.96,0.22,9.62,0.00,-0.00,-0.00,0.00
2026-06-26 19:26:47.464,994.41,994.42,1.02,1.34,0.00,1.96,0.22,9.62,0.00,0.00,0.00,0.00
2026-06-26 19:26:47.466,994.41,994.42,1.02,1.34,0.00,1.98,0.24,9.58,0.00,0.00,0.00,0.00
2026-06-26 19:26:47.471,994.41,994.42,1.02,1.34,0.00,1.98,0.24,9.58,0.00,0.00,0.00,0.00
2026-06-26 19:26:47.472,994.41,994.42,1.02,1.34,0.00,1.97,0.23,9.58,0.00,-0.00,-0.00,0.00
2026-06-26 19:26:47.473,994.41,994.42,1.02,1.34,0.00,1.97,0.23,9.58,0.00,-0.00,-0.00,0.00
2026-06-26 19:26:47.475,994.41,994.42,1.02,1.34,0.00,1.97,0.23,9.58,0.00,-0.00,-0.00,0.00
2026-06-26 19:26:47.479,994.41,994.42,1.02,1.34,0.00,1.97,0.23,9.58,0.00,-0.00,-0.00,0.00
2026-06-26 19:26:47.482,994.41,994.42,1.02,1.34,0.00,1.97,0.22,9.58,0.00,0.00,0.00,0.00
2026-06-26 19:26:47.483,994.41,994.42,1.02,1.34,0.00,1.97,0.22,9.58,0.00,0.00,0.00,0.00
2026-06-26 19:26:47.484,994.41,994.42,1.02,1.34,0.00,1.97,0.22,9.58,0.00,0.00,0.00,0.00
2026-06-26 19:26:47.485,994.41,994.42,1.02,1.34,0.00,1.97,0.22,9.58,0.00,0.00,0.00,0.00
2026-06-26 19:26:47.490,994.41,994.42,1.02,1.34,0.00,1.97,0.22,9.58,0.00,0.00,0.00,0.00
2026-06-26 19:26:47.493,994.41,994.42,1.02,1.34,0.00,1.97,0.23,9.57,0.00,0.00,0.00,0.00
2026-06-26 19:26:47.494,994.41,994.42,1.02,1.34,0.00,1.97,0.23,9.57,0.00,0.00,0.00,0.00
2026-06-26 19:26:47.496,994.41,994.42,1.02,1.34,0.00,1.97,0.23,9.57,0.00,0.00,0.00,0.00
2026-06-26 19:26:47.497,994.41,994.42,1.02,1.34,0.00,1.97,0.23,9.57,0.00,0.00,0.00,0.00
2026-06-26 19:26:47.501,994.41,994.42,1.02,1.34,0.00,1.97,0.23,9.57,0.00,0.00,-0.00,0.00
2026-06-26 19:26:47.503,994.41,994.42,1.02,1.34,0.00,1.98,0.24,9.60,0.00,0.00,-0.00,0.00
2026-06-26 19:26:47.504,994.41,994.42,1.02,1.34,0.00,1.98,0.24,9.60,0.00,0.00,-0.00,0.00
2026-06-26 19:26:47.547,994.41,994.43,1.59,1.67,0.00,1.97,0.23,9.58,-0.00,-0.00,0.00,0.00
2026-06-26 19:26:47.553,994.41,994.43,1.59,1.67,0.00,1.97,0.23,9.58,0.00,0.00,0.00,0.00
2026-06-26 19:26:47.593,994.41,994.43,1.49,1.62,0.00,1.97,0.23,9.60,0.00,-0.00,0.00,0.00
2026-06-26 19:26:47.595,994.41,994.43,1.49,1.62,0.00,1.97,0.23,9.60,0.00,-0.00,0.00,0.00
2026-06-26 19:26:47.597,994.41,994.43,1.49,1.62,0.00,1.97,0.23,9.60,0.00,-0.00,0.00,0.00
2026-06-26 19:26:47.598,994.41,994.43,1.49,1.62,0.00,1.97,0.23,9.60,0.00,-0.00,0.00,0.00
2026-06-26 19:26:47.601,994.41,994.43,1.49,1.62,0.00,1.97,0.23,9.60,0.00,-0.00,0.00,0.00
2026-06-26 19:26:47.603,994.41,994.43,1.49,1.62,0.00,1.97,0.22,9.57,0.00,-0.00,0.00,0.00
2026-06-26 19:26:47.604,994.41,994.43,1.49,1.62,0.00,1.97,0.22,9.57,0.00,-0.00,0.00,0.00
2026-06-26 19:26:47.608,994.41,994.43,1.49,1.62,0.00,1.97,0.22,9.57,0.00,-0.00,0.00,0.00
2026-06-26 19:26:47.614,994.41,994.43,1.49,1.62,0.00,1.97,0.22,9.57,0.00,-0.00,-0.00,0.00
2026-06-26 19:26:47.616,994.41,994.43,1.49,1.62,0.00,1.97,0.23,9.59,0.00,-0.00,-0.00,0.00
2026-06-26 19:26:47.624,994.41,994.43,1.49,1.62,0.00,1.97,0.23,9.59,0.00,-0.00,0.00,0.00
2026-06-26 19:26:47.629,994.41,994.43,1.49,1.62,0.00,1.98,0.23,9.57,0.00,-0.00,0.00,0.00
2026-06-26 19:26:47.632,994.41,994.43,1.49,1.62,0.00,1.98,0.23,9.57,0.00,0.00,0.00,0.00
2026-06-26 19:26:47.635,994.41,994.43,1.49,1.62,0.00,1.97,0.21,9.58,0.00,0.00,0.00,0.00
2026-06-26 19:26:47.641,994.41,994.43,1.49,1.62,0.00,1.97,0.21,9.58,0.00,0.00,0.00,0.00
2026-06-26 19:26:47.643,994.41,994.43,1.49,1.62,0.00,1.98,0.23,9.59,0.00,0.00,-0.00,0.00
2026-06-26 19:26:47.644,994.41,994.43,1.49,1.62,0.00,1.98,0.23,9.59,0.00,0.00,-0.00,0.00
2026-06-26 19:26:47.646,994.41,994.43,1.49,1.62,0.00,1.98,0.23,9.59,0.00,0.00,-0.00,0.00
2026-06-26 19:26:47.688,994.41,994.43,1.33,1.53,0.00,1.97,0.23,9.57,0.00,0.00,0.00,0.00
2026-06-26 19:26:47.692,994.41,994.43,1.33,1.53,0.00,1.97,0.23,9.57,0.00,0.00,0.00,0.00
2026-06-26 19:26:47.741,994.41,994.43,1.58,1.66,0.00,1.99,0.20,9.58,-0.00,0.00,0.00,0.00
2026-06-26 19:26:47.743,994.41,994.43,1.58,1.66,0.00,1.97,0.23,9.61,-0.00,0.00,0.00,0.00
2026-06-26 19:26:47.744,994.41,994.43,1.58,1.66,0.00,1.97,0.23,9.61,-0.00,0.00,0.00,0.00
2026-06-26 19:26:47.746,994.41,994.43,1.58,1.66,0.00,1.97,0.23,9.61,-0.00,0.00,0.00,0.00
2026-06-26 19:26:47.748,994.41,994.43,1.58,1.66,0.00,1.97,0.23,9.61,-0.00,0.00,0.00,0.00
2026-06-26 19:26:47.749,994.41,994.43,1.58,1.66,0.00,1.97,0.23,9.61,-0.00,0.00,0.00,0.00
2026-06-26 19:26:47.752,994.41,994.43,1.58,1.66,0.00,1.97,0.23,9.61,-0.00,-0.00,0.00,0.00
2026-06-26 19:26:47.754,994.41,994.43,1.58,1.66,0.00,1.98,0.22,9.60,-0.00,-0.00,0.00,0.00
2026-06-26 19:26:47.755,994.41,994.43,1.58,1.66,0.00,1.98,0.22,9.60,-0.00,-0.00,0.00,0.00
2026-06-26 19:26:47.762,994.41,994.43,1.58,1.66,0.00,1.98,0.22,9.60,-0.00,0.00,-0.00,0.00
2026-06-26 19:26:47.765,994.41,994.43,1.58,1.66,0.00,1.96,0.24,9.57,-0.00,0.00,-0.00,0.00
2026-06-26 19:26:47.772,994.41,994.43,1.58,1.66,0.00,1.96,0.24,9.57,-0.00,0.00,-0.00,0.00
2026-06-26 19:26:47.774,994.41,994.43,1.58,1.66,0.00,1.95,0.23,9.56,-0.00,-0.00,0.00,0.00
2026-06-26 19:26:47.776,994.41,994.43,1.58,1.66,0.00,1.95,0.23,9.56,-0.00,-0.00,0.00,0.00
2026-06-26 19:26:47.781,994.41,994.43,1.58,1.66,0.00,1.95,0.23,9.56,-0.00,-0.00,0.00,0.00
2026-06-26 19:26:47.783,994.41,994.43,1.58,1.66,0.00,1.96,0.23,9.60,0.00,-0.00,0.00,0.00
2026-06-26 19:26:47.784,994.41,994.43,1.58,1.66,0.00,1.96,0.23,9.60,0.00,-0.00,0.00,0.00
2026-06-26 19:26:47.832,994.41,994.43,1.66,1.71,0.00,1.97,0.23,9.57,-0.00,0.00,0.00,0.00
2026-06-26 19:26:47.834,994.41,994.43,1.66,1.71,0.00,1.97,0.23,9.57,-0.00,0.00,-0.00,0.00
2026-06-26 19:26:47.882,994.41,994.43,1.76,1.76,0.00,1.97,0.23,9.58,-0.00,0.00,-0.00,0.00
2026-06-26 19:26:47.883,994.41,994.43,1.76,1.76,0.00,1.98,0.23,9.58,0.00,0.00,0.00,0.00
2026-06-26 19:26:47.885,994.41,994.43,1.76,1.76,0.00,1.98,0.23,9.58,0.00,0.00,0.00,0.00
2026-06-26 19:26:47.886,994.41,994.43,1.76,1.76,0.00,1.98,0.23,9.58,0.00,0.00,0.00,0.00
2026-06-26 19:26:47.892,994.41,994.43,1.76,1.76,0.00,1.98,0.23,9.58,0.00,0.00,0.00,0.00
2026-06-26 19:26:47.893,994.41,994.43,1.76,1.76,0.00,1.97,0.21,9.58,0.00,0.00,0.00,0.00
2026-06-26 19:26:47.895,994.41,994.43,1.76,1.76,0.00,1.97,0.21,9.58,0.00,0.00,0.00,0.00
2026-06-26 19:26:47.897,994.41,994.43,1.76,1.76,0.00,1.97,0.21,9.58,0.00,0.00,0.00,0.00
2026-06-26 19:26:47.904,994.41,994.43,1.76,1.76,0.00,1.97,0.21,9.58,-0.00,0.00,-0.00,0.00
2026-06-26 19:26:47.910,994.41,994.43,1.76,1.76,0.00,1.98,0.22,9.60,-0.00,0.00,-0.00,0.00
2026-06-26 19:26:47.913,994.41,994.43,1.76,1.76,0.00,1.98,0.22,9.60,-0.00,0.00,0.00,0.00
2026-06-26 19:26:47.914,994.41,994.43,1.76,1.76,0.00,1.96,0.22,9.56,-0.00,0.00,0.00,0.00
2026-06-26 19:26:47.916,994.41,994.43,1.76,1.76,0.00,1.96,0.22,9.56,-0.00,0.00,0.00,0.00
2026-06-26 19:26:47.919,994.41,994.43,1.76,1.76,0.00,1.96,0.22,9.56,-0.00,0.00,0.00,0.00
2026-06-26 19:26:47.923,994.41,994.43,1.76,1.76,0.00,1.96,0.22,9.56,-0.00,0.00,0.00,0.00
2026-06-26 19:26:47.926,994.41,994.43,1.76,1.76,0.00,1.98,0.23,9.59,-0.00,0.00,0.00,0.00
2026-06-26 19:26:47.932,994.41,994.43,1.76,1.76,0.00,1.98,0.23,9.59,-0.00,0.00,0.00,0.00
2026-06-26 19:26:47.976,994.41,994.43,1.88,1.81,0.00,1.99,0.24,9.56,-0.00,0.00,0.00,0.00
2026-06-26 19:26:48.022,994.41,994.43,1.95,1.85,0.00,1.97,0.23,9.59,-0.00,0.00,-0.00,0.00
2026-06-26 19:26:48.025,994.41,994.43,1.95,1.85,0.00,2.00,0.24,9.60,-0.00,0.00,-0.00,0.00
2026-06-26 19:26:48.027,994.41,994.43,1.95,1.85,0.00,2.00,0.24,9.60,-0.00,0.00,-0.00,0.00
2026-06-26 19:26:48.032,994.41,994.43,1.95,1.85,0.00,2.00,0.24,9.60,0.00,0.00,0.00,0.00
2026-06-26 19:26:48.034,994.41,994.43,1.95,1.85,0.00,1.97,0.22,9.60,0.00,0.00,0.00,0.00
2026-06-26 19:26:48.035,994.41,994.43,1.95,1.85,0.00,1.97,0.22,9.60,0.00,0.00,0.00,0.00
2026-06-26 19:26:48.039,994.41,994.43,1.95,1.85,0.00,1.97,0.22,9.60,0.00,0.00,0.00,0.00
2026-06-26 19:26:48.043,994.41,994.43,1.95,1.85,0.00,1.97,0.22,9.60,-0.00,-0.00,0.00,0.00
2026-06-26 19:26:48.045,994.41,994.43,1.95,1.85,0.00,1.96,0.22,9.58,-0.00,-0.00,0.00,0.00
2026-06-26 19:26:48.047,994.41,994.43,1.95,1.85,0.00,1.96,0.22,9.58,-0.00,-0.00,0.00,0.00
2026-06-26 19:26:48.049,994.41,994.43,1.95,1.85,0.00,1.96,0.22,9.58,-0.00,-0.00,0.00,0.00
2026-06-26 19:26:48.053,994.41,994.43,1.95,1.85,0.00,1.96,0.22,9.58,-0.00,0.00,0.00,0.00
2026-06-26 19:26:48.055,994.41,994.43,1.95,1.85,0.00,1.98,0.22,9.59,-0.00,0.00,0.00,0.00
2026-06-26 19:26:48.060,994.41,994.43,1.95,1.85,0.00,1.98,0.22,9.59,-0.00,0.00,0.00,0.00
2026-06-26 19:26:48.063,994.41,994.43,1.95,1.85,0.00,1.98,0.22,9.59,-0.00,0.00,0.00,0.00
2026-06-26 19:26:48.065,994.41,994.43,1.95,1.85,0.00,1.95,0.23,9.59,-0.00,0.00,0.00,0.00
2026-06-26 19:26:48.070,994.41,994.43,1.95,1.85,0.00,1.95,0.23,9.59,-0.00,0.00,0.00,0.00
2026-06-26 19:26:48.073,994.41,994.43,1.95,1.85,0.00,1.95,0.23,9.59,-0.00,0.00,-0.00,0.00
2026-06-26 19:26:48.075,994.41,994.43,1.95,1.85,0.00,1.97,0.23,9.57,-0.00,0.00,-0.00,0.00
2026-06-26 19:26:48.161,994.41,994.43,1.55,1.65,0.00,1.98,0.21,9.61,0.00,0.00,0.00,0.00
2026-06-26 19:26:48.163,994.41,994.43,1.55,1.65,0.00,1.98,0.25,9.59,-0.00,-0.00,0.00,0.00
2026-06-26 19:26:48.165,994.41,994.43,1.55,1.65,0.00,1.98,0.25,9.59,-0.00,-0.00,0.00,0.00
2026-06-26 19:26:48.166,994.41,994.43,1.55,1.65,0.00,1.98,0.25,9.59,-0.00,-0.00,0.00,0.00
2026-06-26 19:26:48.170,994.41,994.43,1.55,1.65,0.00,1.98,0.25,9.59,-0.00,-0.00,0.00,0.00
2026-06-26 19:26:48.173,994.41,994.43,1.55,1.65,0.00,1.98,0.25,9.59,0.00,0.00,0.00,0.00
2026-06-26 19:26:48.175,994.41,994.43,1.55,1.65,0.00,1.98,0.22,9.57,0.00,0.00,0.00,0.00
2026-06-26 19:26:48.176,994.41,994.43,1.55,1.65,0.00,1.98,0.22,9.57,0.00,0.00,0.00,0.00
2026-06-26 19:26:48.177,994.41,994.43,1.55,1.65,0.00,1.98,0.22,9.57,0.00,0.00,0.00,0.00
2026-06-26 19:26:48.182,994.41,994.43,1.55,1.65,0.00,1.98,0.22,9.57,0.00,0.00,0.00,0.00
2026-06-26 19:26:48.184,994.41,994.43,1.55,1.65,0.00,1.98,0.22,9.59,0.00,0.00,-0.00,0.00
2026-06-26 19:26:48.185,994.41,994.43,1.55,1.65,0.00,1.98,0.22,9.59,0.00,0.00,-0.00,0.00
2026-06-26 19:26:48.192,994.41,994.43,1.55,1.65,0.00,1.98,0.22,9.59,0.00,0.00,-0.00,0.00
2026-06-26 19:26:48.194,994.41,994.43,1.55,1.65,0.00,1.98,0.23,9.59,0.00,-0.00,-0.00,0.00
2026-06-26 19:26:48.195,994.41,994.43,1.55,1.65,0.00,1.98,0.23,9.59,0.00,-0.00,-0.00,0.00
2026-06-26 19:26:48.196,994.41,994.43,1.55,1.65,0.00,1.98,0.23,9.59,0.00,-0.00,-0.00,0.00
2026-06-26 19:26:48.198,994.41,994.43,1.55,1.65,0.00,1.98,0.23,9.59,0.00,-0.00,-0.00,0.00
2026-06-26 19:26:48.199,994.41,994.43,1.55,1.65,0.00,1.98,0.23,9.59,0.00,-0.00,-0.00,0.00
2026-06-26 19:26:48.201,994.41,994.43,1.55,1.65,0.00,1.98,0.23,9.59,0.00,-0.00,-0.00,0.00
2026-06-26 19:26:48.203,994.41,994.43,1.55,1.65,0.00,1.98,0.23,9.59,-0.00,-0.00,0.00,0.00
2026-06-26 19:26:48.206,994.41,994.43,1.55,1.65,0.00,1.98,0.22,9.58,-0.00,-0.00,0.00,0.00
2026-06-26 19:26:48.212,994.41,994.43,1.55,1.65,0.00,1.98,0.22,9.58,-0.00,-0.00,0.00,0.00
2026-06-26 19:26:48.214,994.41,994.43,1.55,1.65,0.00,1.96,0.22,9.59,0.00,0.00,-0.00,0.00
2026-06-26 19:26:48.215,994.41,994.43,1.55,1.65,0.00,1.96,0.22,9.59,0.00,0.00,-0.00,0.00
2026-06-26 19:26:48.219,994.41,994.43,1.55,1.65,0.00,1.96,0.22,9.59,0.00,0.00,-0.00,0.00
2026-06-26 19:26:48.259,994.41,994.43,1.54,1.64,0.00,1.96,0.21,9.60,0.00,-0.00,0.00,0.00
2026-06-26 19:26:48.304,994.41,994.43,1.54,1.65,0.00,1.97,0.22,9.58,0.00,0.00,-0.00,0.00
2026-06-26 19:26:48.306,994.41,994.43,1.54,1.65,0.00,1.97,0.21,9.61,0.00,0.00,-0.00,0.00
2026-06-26 19:26:48.312,994.41,994.43,1.54,1.65,0.00,1.97,0.21,9.61,0.00,0.00,-0.00,0.00
2026-06-26 19:26:48.314,994.41,994.43,1.54,1.65,0.00,1.97,0.23,9.59,0.00,-0.00,0.00,0.00
2026-06-26 19:26:48.315,994.41,994.43,1.54,1.65,0.00,1.97,0.23,9.59,0.00,-0.00,0.00,0.00
2026-06-26 19:26:48.317,994.41,994.43,1.54,1.65,0.00,1.97,0.23,9.59,0.00,-0.00,0.00,0.00
2026-06-26 19:26:48.322,994.41,994.43,1.54,1.65,0.00,1.97,0.23,9.59,0.00,-0.00,0.00,0.00
2026-06-26 19:26:48.324,994.41,994.43,1.54,1.65,0.00,1.97,0.24,9.56,-0.00,-0.00,0.00,0.00
2026-06-26 19:26:48.326,994.41,994.43,1.54,1.65,0.00,1.97,0.24,9.56,-0.00,-0.00,0.00,0.00
2026-06-26 19:26:48.332,994.41,994.43,1.54,1.65,0.00,1.97,0.24,9.56,-0.00,-0.00,0.00,0.00
2026-06-26 19:26:48.335,994.41,994.43,1.54,1.65,0.00,1.96,0.21,9.55,0.00,-0.00,-0.00,0.00
2026-06-26 19:26:48.337,994.41,994.43,1.54,1.65,0.00,1.96,0.21,9.55,0.00,-0.00,-0.00,0.00
2026-06-26 19:26:48.343,994.41,994.43,1.54,1.65,0.00,1.96,0.21,9.55,0.00,-0.00,-0.00,0.00
2026-06-26 19:26:48.345,994.41,994.43,1.54,1.65,0.00,1.97,0.22,9.60,0.00,0.00,-0.00,0.00
2026-06-26 19:26:48.346,994.41,994.43,1.54,1.65,0.00,1.97,0.22,9.60,0.00,0.00,-0.00,0.00
2026-06-26 19:26:48.347,994.41,994.43,1.54,1.65,0.00,1.97,0.22,9.60,0.00,0.00,-0.00,0.00
2026-06-26 19:26:48.349,994.41,994.43,1.54,1.65,0.00,1.97,0.22,9.60,0.00,0.00,-0.00,0.00
2026-06-26 19:26:48.350,994.41,994.43,1.54,1.65,0.00,1.97,0.22,9.60,0.00,0.00,-0.00,0.00
2026-06-26 19:26:48.353,994.41,994.43,1.54,1.65,0.00,1.97,0.22,9.60,0.00,0.00,-0.00,0.00
2026-06-26 19:26:48.355,994.41,994.43,1.54,1.65,0.00,1.98,0.21,9.58,0.00,0.00,-0.00,0.00
2026-06-26 19:26:48.363,994.41,994.43,1.54,1.65,0.00,1.98,0.21,9.58,0.00,0.00,-0.00,0.00
2026-06-26 19:26:48.449,994.41,994.42,1.49,1.62,0.00,1.97,0.24,9.61,0.00,-0.00,-0.00,0.00
2026-06-26 19:26:48.455,994.41,994.42,1.49,1.62,0.00,1.97,0.24,9.61,-0.00,0.00,0.00,0.00
2026-06-26 19:26:48.458,994.41,994.42,1.49,1.62,0.00,1.98,0.23,9.58,-0.00,0.00,0.00,0.00
2026-06-26 19:26:48.463,994.41,994.42,1.49,1.62,0.00,1.98,0.23,9.58,-0.00,0.00,0.00,0.00
2026-06-26 19:26:48.465,994.41,994.42,1.49,1.62,0.00,1.98,0.23,9.61,0.00,0.00,0.00,0.00
2026-06-26 19:26:48.466,994.41,994.42,1.49,1.62,0.00,1.98,0.23,9.61,0.00,0.00,0.00,0.00
2026-06-26 19:26:48.469,994.41,994.42,1.49,1.62,0.00,1.98,0.23,9.61,0.00,0.00,0.00,0.00
2026-06-26 19:26:48.473,994.41,994.42,1.49,1.62,0.00,1.98,0.23,9.61,0.00,0.00,0.00,0.00
2026-06-26 19:26:48.475,994.41,994.42,1.49,1.62,0.00,1.97,0.23,9.57,0.00,0.00,0.00,0.00
2026-06-26 19:26:48.476,994.41,994.42,1.49,1.62,0.00,1.97,0.23,9.57,0.00,0.00,0.00,0.00
2026-06-26 19:26:48.483,994.41,994.42,1.49,1.62,0.00,1.97,0.23,9.57,0.00,0.00,0.00,0.00
2026-06-26 19:26:48.484,994.41,994.42,1.49,1.62,0.00,1.97,0.24,9.59,-0.00,0.00,0.00,0.00
2026-06-26 19:26:48.486,994.41,994.42,1.49,1.62,0.00,1.97,0.24,9.59,-0.00,0.00,0.00,0.00
2026-06-26 19:26:48.487,994.41,994.42,1.49,1.62,0.00,1.97,0.24,9.59,-0.00,0.00,0.00,0.00
2026-06-26 19:26:48.493,994.41,994.42,1.49,1.62,0.00,1.97,0.24,9.59,-0.00,0.00,0.00,0.00
2026-06-26 19:26:48.495,994.41,994.42,1.49,1.62,0.00,1.97,0.22,9.61,0.00,-0.00,0.00,0.00
2026-06-26 19:26:48.496,994.41,994.42,1.49,1.62,0.00,1.97,0.22,9.61,0.00,-0.00,0.00,0.00
2026-06-26 19:26:48.498,994.41,994.42,1.49,1.62,0.00,1.97,0.22,9.61,0.00,-0.00,0.00,0.00
2026-06-26 19:26:48.499,994.41,994.42,1.49,1.62,0.00,1.97,0.22,9.61,0.00,-0.00,0.00,0.00
2026-06-26 19:26:48.501,994.41,994.42,1.49,1.62,0.00,1.97,0.22,9.61,0.00,-0.00,0.00,0.00
2026-06-26 19:26:48.504,994.41,994.42,1.49,1.62,0.00,1.97,0.22,9.61,0.00,-0.00,-0.00,0.00
2026-06-26 19:26:48.505,994.41,994.42,1.49,1.62,0.00,1.97,0.22,9.56,0.00,-0.00,-0.00,0.00
2026-06-26 19:26:48.544,994.41,994.42,0.98,1.31,0.00,1.96,0.22,9.59,0.00,-0.00,0.00,0.00
2026-06-26 19:26:48.546,994.41,994.42,0.98,1.31,0.00,1.96,0.22,9.59,0.00,-0.00,0.00,0.00
2026-06-26 19:26:48.549,994.41,994.42,0.98,1.31,0.00,1.96,0.22,9.59,0.00,-0.00,0.00,0.00
2026-06-26 19:26:48.595,994.41,994.42,0.81,1.19,0.00,1.97,0.23,9.58,0.00,0.00,-0.00,0.00
2026-06-26 19:26:48.596,994.41,994.42,0.81,1.19,0.00,1.97,0.23,9.58,0.00,0.00,-0.00,0.00
2026-06-26 19:26:48.598,994.41,994.42,0.81,1.19,0.00,1.97,0.23,9.58,0.00,0.00,-0.00,0.00
2026-06-26 19:26:48.599,994.41,994.42,0.81,1.19,0.00,1.97,0.23,9.58,0.00,0.00,-0.00,0.00
2026-06-26 19:26:48.601,994.41,994.42,0.81,1.19,0.00,1.97,0.23,9.58,0.00,0.00,-0.00,0.00
2026-06-26 19:26:48.604,994.41,994.42,0.81,1.19,0.00,1.97,0.23,9.58,0.00,0.00,0.00,0.00
2026-06-26 19:26:48.605,994.41,994.42,0.81,1.19,0.00,1.98,0.22,9.61,0.00,0.00,0.00,0.00
2026-06-26 19:26:48.607,994.41,994.42,0.81,1.19,0.00,1.98,0.22,9.61,0.00,0.00,0.00,0.00
2026-06-26 19:26:48.614,994.41,994.42,0.81,1.19,0.00,1.98,0.22,9.61,0.00,0.00,-0.00,0.00
2026-06-26 19:26:48.615,994.41,994.42,0.81,1.19,0.00,1.98,0.23,9.59,0.00,0.00,-0.00,0.00
2026-06-26 19:26:48.617,994.41,994.42,0.81,1.19,0.00,1.98,0.23,9.59,0.00,0.00,-0.00,0.00
2026-06-26 19:26:48.622,994.41,994.42,0.81,1.19,0.00,1.98,0.23,9.59,0.00,0.00,-0.00,0.00
2026-06-26 19:26:48.624,994.41,994.42,0.81,1.19,0.00,1.97,0.23,9.57,0.00,-0.00,0.00,0.00
2026-06-26 19:26:48.626,994.41,994.42,0.81,1.19,0.00,1.97,0.23,9.57,0.00,-0.00,0.00,0.00
2026-06-26 19:26:48.627,994.41,994.42,0.81,1.19,0.00,1.97,0.23,9.57,0.00,-0.00,0.00,0.00
2026-06-26 19:26:48.633,994.41,994.42,0.81,1.19,0.00,1.97,0.23,9.57,0.00,-0.00,0.00,0.00
2026-06-26 19:26:48.635,994.41,994.42,0.81,1.19,0.00,1.99,0.22,9.59,0.00,-0.00,0.00,0.00
2026-06-26 19:26:48.637,994.41,994.42,0.81,1.19,0.00,1.99,0.22,9.59,0.00,-0.00,0.00,0.00
2026-06-26 19:26:48.641,994.41,994.42,0.81,1.19,0.00,1.99,0.22,9.59,0.00,-0.00,0.00,0.00
2026-06-26 19:26:48.644,994.41,994.42,0.81,1.19,0.00,1.99,0.22,9.59,0.00,0.00,-0.00,0.00
2026-06-26 19:26:48.687,994.41,994.42,0.51,0.94,0.00,1.98,0.22,9.58,0.00,-0.00,-0.00,0.00
2026-06-26 19:26:48.693,994.41,994.42,0.51,0.94,0.00,1.98,0.22,9.58,0.00,-0.00,-0.00,0.00
2026-06-26 19:26:48.734,994.41,994.42,0.33,0.77,0.00,1.98,0.23,9.57,0.00,-0.00,0.00,0.00
2026-06-26 19:26:48.736,994.41,994.42,0.33,0.77,0.00,1.98,0.22,9.58,0.00,-0.00,0.00,0.00
2026-06-26 19:26:48.738,994.41,994.42,0.33,0.77,0.00,1.98,0.22,9.58,0.00,-0.00,0.00,0.00
2026-06-26 19:26:48.743,994.41,994.42,0.33,0.77,0.00,1.98,0.22,9.58,0.00,-0.00,0.00,0.00
2026-06-26 19:26:48.745,994.41,994.42,0.33,0.77,0.00,1.97,0.23,9.59,0.00,-0.00,0.00,0.00
2026-06-26 19:26:48.747,994.41,994.42,0.33,0.77,0.00,1.97,0.23,9.59,0.00,-0.00,0.00,0.00
2026-06-26 19:26:48.748,994.41,994.42,0.33,0.77,0.00,1.97,0.23,9.59,0.00,-0.00,0.00,0.00
2026-06-26 19:26:48.750,994.41,994.42,0.33,0.77,0.00,1.97,0.23,9.59,0.00,-0.00,0.00,0.00
2026-06-26 19:26:48.751,994.41,994.42,0.33,0.77,0.00,1.97,0.23,9.59,0.00,-0.00,0.00,0.00
2026-06-26 19:26:48.754,994.41,994.42,0.33,0.77,0.00,1.97,0.23,9.59,0.00,0.00,0.00,0.00
2026-06-26 19:26:48.756,994.41,994.42,0.33,0.77,0.00,1.97,0.22,9.58,0.00,0.00,0.00,0.00
2026-06-26 19:26:48.757,994.41,994.42,0.33,0.77,0.00,1.97,0.22,9.58,0.00,0.00,0.00,0.00
2026-06-26 19:26:48.762,994.41,994.42,0.33,0.77,0.00,1.97,0.22,9.58,0.00,0.00,0.00,0.00
2026-06-26 19:26:48.764,994.41,994.42,0.33,0.77,0.00,1.97,0.22,9.58,0.00,0.00,-0.00,0.00
2026-06-26 19:26:48.766,994.41,994.42,0.33,0.77,0.00,2.00,0.23,9.59,0.00,0.00,-0.00,0.00
2026-06-26 19:26:48.767,994.41,994.42,0.33,0.77,0.00,2.00,0.23,9.59,0.00,0.00,-0.00,0.00
2026-06-26 19:26:48.772,994.41,994.42,0.33,0.77,0.00,2.00,0.23,9.59,0.00,0.00,-0.00,0.00
2026-06-26 19:26:48.774,994.41,994.42,0.33,0.77,0.00,1.97,0.23,9.55,-0.00,0.00,-0.00,0.00
2026-06-26 19:26:48.776,994.41,994.42,0.33,0.77,0.00,1.97,0.23,9.55,-0.00,0.00,-0.00,0.00
2026-06-26 19:26:48.778,994.41,994.42,0.33,0.77,0.00,1.97,0.23,9.55,-0.00,0.00,-0.00,0.00
2026-06-26 19:26:48.782,994.41,994.42,0.33,0.77,0.00,1.97,0.23,9.55,-0.00,0.00,-0.00,0.00
2026-06-26 19:26:48.785,994.41,994.42,0.33,0.77,0.00,1.97,0.23,9.59,0.00,0.00,0.00,0.00
2026-06-26 19:26:48.825,994.41,994.41,0.18,0.55,0.00,1.98,0.23,9.61,-0.00,-0.00,0.00,0.00
2026-06-26 19:26:48.826,994.41,994.41,0.18,0.55,0.00,1.96,0.23,9.57,-0.00,-0.00,0.00,0.00
2026-06-26 19:26:48.830,994.41,994.41,0.18,0.55,0.00,1.96,0.23,9.57,-0.00,-0.00,0.00,0.00
2026-06-26 19:26:48.834,994.41,994.41,0.18,0.55,0.00,1.96,0.23,9.57,-0.00,-0.00,0.00,0.00
2026-06-26 19:26:48.875,994.41,994.41,0.18,0.55,0.00,1.97,0.22,9.61,0.00,0.00,0.00,0.00
2026-06-26 19:26:48.876,994.41,994.41,0.18,0.55,0.00,1.97,0.23,9.57,0.00,0.00,0.00,0.00
2026-06-26 19:26:48.878,994.41,994.41,0.18,0.55,0.00,1.97,0.23,9.57,0.00,0.00,0.00,0.00
2026-06-26 19:26:48.882,994.41,994.41,0.18,0.55,0.00,1.97,0.23,9.57,0.00,0.00,0.00,0.00
2026-06-26 19:26:48.885,994.41,994.41,0.18,0.55,0.00,1.97,0.23,9.57,-0.00,0.00,-0.00,0.00
2026-06-26 19:26:48.886,994.41,994.41,0.18,0.55,0.00,1.98,0.22,9.58,-0.00,0.00,-0.00,0.00
2026-06-26 19:26:48.888,994.41,994.41,0.18,0.55,0.00,1.98,0.22,9.58,-0.00,0.00,-0.00,0.00
2026-06-26 19:26:48.893,994.41,994.41,0.18,0.55,0.00,1.98,0.22,9.58,-0.00,0.00,-0.00,0.00
2026-06-26 19:26:48.895,994.41,994.41,0.18,0.55,0.00,1.96,0.21,9.58,-0.00,0.00,0.00,0.00
2026-06-26 19:26:48.897,994.41,994.41,0.18,0.55,0.00,1.96,0.21,9.58,-0.00,0.00,0.00,0.00
2026-06-26 19:26:48.898,994.41,994.41,0.18,0.55,0.00,1.96,0.21,9.58,-0.00,0.00,0.00,0.00
2026-06-26 19:26:48.900,994.41,994.41,0.18,0.55,0.00,1.96,0.21,9.58,-0.00,0.00,0.00,0.00
2026-06-26 19:26:48.901,994.41,994.41,0.18,0.55,0.00,1.96,0.21,9.58,-0.00,0.00,0.00,0.00
2026-06-26 19:26:48.905,994.41,994.41,0.18,0.55,0.00,1.96,0.21,9.58,-0.00,-0.00,0.00,0.00
2026-06-26 19:26:48.913,994.41,994.41,0.18,0.55,0.00,1.98,0.21,9.59,-0.00,-0.00,0.00,0.00
2026-06-26 19:26:48.915,994.41,994.41,0.18,0.55,0.00,1.97,0.23,9.61,-0.00,0.00,0.00,0.00
2026-06-26 19:26:48.917,994.41,994.41,0.18,0.55,0.00,1.97,0.23,9.61,-0.00,0.00,0.00,0.00
2026-06-26 19:26:48.918,994.41,994.41,0.18,0.55,0.00,1.97,0.23,9.61,-0.00,0.00,0.00,0.00
2026-06-26 19:26:48.924,994.41,994.41,0.18,0.55,0.00,1.97,0.23,9.61,-0.00,0.00,0.00,0.00
2026-06-26 19:26:48.967,994.41,994.41,0.22,0.63,0.00,1.97,0.22,9.58,0.00,-0.00,0.00,0.00
2026-06-26 19:26:48.974,994.41,994.41,0.22,0.63,0.00,1.97,0.22,9.58,0.00,-0.00,0.00,0.00
2026-06-26 19:26:49.017,994.41,994.41,0.26,0.68,0.00,1.98,0.23,9.55,-0.00,0.00,-0.00,0.00
2026-06-26 19:26:49.020,994.41,994.41,0.26,0.68,0.00,1.98,0.23,9.55,-0.00,0.00,-0.00,0.00
2026-06-26 19:26:49.025,994.41,994.41,0.26,0.68,0.00,1.98,0.23,9.55,-0.00,-0.00,0.00,0.00
2026-06-26 19:26:49.027,994.41,994.41,0.26,0.68,0.00,1.97,0.23,9.55,-0.00,-0.00,0.00,0.00
2026-06-26 19:26:49.028,994.41,994.41,0.26,0.68,0.00,1.97,0.23,9.55,-0.00,-0.00,0.00,0.00
2026-06-26 19:26:49.034,994.41,994.41,0.26,0.68,0.00,1.97,0.23,9.55,-0.00,-0.00,0.00,0.00
2026-06-26 19:26:49.036,994.41,994.41,0.26,0.68,0.00,1.97,0.23,9.58,-0.00,0.00,-0.00,0.00
2026-06-26 19:26:49.038,994.41,994.41,0.26,0.68,0.00,1.97,0.23,9.58,-0.00,0.00,-0.00,0.00
2026-06-26 19:26:49.044,994.41,994.41,0.26,0.68,0.00,1.97,0.23,9.58,-0.00,0.00,-0.00,0.00
2026-06-26 19:26:49.046,994.41,994.41,0.26,0.68,0.00,1.96,0.23,9.60,-0.00,0.00,0.00,0.00
2026-06-26 19:26:49.048,994.41,994.41,0.26,0.68,0.00,1.96,0.23,9.60,-0.00,0.00,0.00,0.00
2026-06-26 19:26:49.050,994.41,994.41,0.26,0.68,0.00,1.96,0.23,9.60,-0.00,0.00,0.00,0.00
2026-06-26 19:26:49.054,994.41,994.41,0.26,0.68,0.00,1.96,0.23,9.60,-0.00,0.00,0.00,0.00
2026-06-26 19:26:49.056,994.41,994.41,0.26,0.68,0.00,1.96,0.22,9.58,-0.00,0.01,-0.00,0.00
2026-06-26 19:26:49.058,994.41,994.41,0.26,0.68,0.00,1.96,0.22,9.58,-0.00,0.01,-0.00,0.00
2026-06-26 19:26:49.064,994.41,994.41,0.26,0.68,0.00,1.96,0.22,9.58,-0.00,0.01,-0.00,0.00
2026-06-26 19:26:49.065,994.41,994.41,0.26,0.68,0.00,1.97,0.23,9.58,0.00,0.00,0.00,0.00
2026-06-26 19:26:49.067,994.41,994.41,0.26,0.68,0.00,1.97,0.23,9.58,0.00,0.00,0.00,0.00
2026-06-26 19:26:49.106,994.41,994.41,0.10,0.43,0.00,1.99,0.23,9.60,-0.00,0.00,0.00,0.00
2026-06-26 19:26:49.108,994.41,994.41,0.10,0.43,0.00,1.99,0.23,9.60,-0.00,0.00,0.00,0.00
2026-06-26 19:26:49.114,994.41,994.41,0.10,0.43,0.00,1.99,0.23,9.60,-0.00,0.00,0.00,0.00
2026-06-26 19:26:49.115,994.41,994.41,0.10,0.43,0.00,1.98,0.23,9.60,-0.00,-0.00,0.00,0.00
2026-06-26 19:26:49.157,994.41,994.41,0.34,0.77,0.00,1.99,0.24,9.63,0.00,-0.00,-0.00,0.00
2026-06-26 19:26:49.161,994.41,994.41,0.34,0.77,0.00,1.99,0.24,9.63,0.00,-0.00,-0.00,0.00
2026-06-26 19:26:49.165,994.41,994.41,0.34,0.77,0.00,1.99,0.24,9.63,-0.00,0.00,0.00,0.00
2026-06-26 19:26:49.168,994.41,994.41,0.34,0.77,0.00,1.97,0.24,9.59,-0.00,0.00,0.00,0.00
2026-06-26 19:26:49.173,994.41,994.41,0.34,0.77,0.00,1.97,0.24,9.59,-0.00,0.00,0.00,0.00
2026-06-26 19:26:49.175,994.41,994.41,0.34,0.77,0.00,1.97,0.23,9.58,-0.00,-0.00,0.00,0.00
2026-06-26 19:26:49.177,994.41,994.41,0.34,0.77,0.00,1.97,0.23,9.58,-0.00,-0.00,0.00,0.00
2026-06-26 19:26:49.180,994.41,994.41,0.34,0.77,0.00,1.97,0.23,9.58,-0.00,-0.00,0.00,0.00
2026-06-26 19:26:49.185,994.41,994.41,0.34,0.77,0.00,1.97,0.23,9.58,-0.00,-0.00,0.00,0.00
2026-06-26 19:26:49.188,994.41,994.41,0.34,0.77,0.00,1.98,0.21,9.55,0.00,-0.00,0.00,0.00
2026-06-26 19:26:49.192,994.41,994.41,0.34,0.77,0.00,1.98,0.21,9.55,0.00,-0.00,0.00,0.00
2026-06-26 19:26:49.196,994.41,994.41,0.34,0.77,0.00,1.98,0.21,9.55,0.00,-0.00,0.00,0.00
2026-06-26 19:26:49.198,994.41,994.41,0.34,0.77,0.00,1.98,0.24,9.58,0.00,-0.00,0.00,0.00
2026-06-26 19:26:49.200,994.41,994.41,0.34,0.77,0.00,1.98,0.24,9.58,0.00,-0.00,0.00,0.00
2026-06-26 19:26:49.201,994.41,994.41,0.34,0.77,0.00,1.98,0.24,9.58,0.00,-0.00,0.00,0.00
2026-06-26 19:26:49.203,994.41,994.41,0.34,0.77,0.00,1.98,0.24,9.58,0.00,-0.00,0.00,0.00
2026-06-26 19:26:49.205,994.41,994.41,0.34,0.77,0.00,1.98,0.24,9.58,-0.00,-0.00,0.00,0.00
2026-06-26 19:26:49.250,994.41,994.41,0.50,0.94,0.00,1.99,0.23,9.59,-0.00,0.00,0.00,0.00
2026-06-26 19:26:49.252,994.41,994.41,0.50,0.94,0.00,1.99,0.23,9.59,-0.00,0.00,0.00,0.00
2026-06-26 19:26:49.255,994.41,994.41,0.50,0.94,0.00,1.99,0.23,9.59,0.00,-0.00,-0.00,0.00
2026-06-26 19:26:49.299,994.41,994.41,0.84,1.22,0.00,2.00,0.24,9.59,0.00,0.00,-0.00,0.00
2026-06-26 19:26:49.301,994.41,994.41,0.84,1.22,0.00,2.00,0.24,9.59,0.00,0.00,-0.00,0.00
2026-06-26 19:26:49.303,994.41,994.41,0.84,1.22,0.00,2.00,0.24,9.59,0.00,0.00,-0.00,0.00
2026-06-26 19:26:49.307,994.41,994.41,0.84,1.22,0.00,1.96,0.23,9.58,0.00,0.00,0.00,0.00
2026-06-26 19:26:49.309,994.41,994.41,0.84,1.22,0.00,1.96,0.23,9.58,0.00,0.00,0.00,0.00
2026-06-26 19:26:49.315,994.41,994.41,0.84,1.22,0.00,1.96,0.23,9.58,0.00,0.00,0.00,0.00
2026-06-26 19:26:49.317,994.41,994.41,0.84,1.22,0.00,1.98,0.23,9.57,0.00,0.00,0.00,0.00
2026-06-26 19:26:49.318,994.41,994.41,0.84,1.22,0.00,1.98,0.23,9.57,0.00,0.00,0.00,0.00
2026-06-26 19:26:49.324,994.41,994.41,0.84,1.22,0.00,1.98,0.23,9.57,0.00,0.00,0.00,0.00
2026-06-26 19:26:49.326,994.41,994.41,0.84,1.22,0.00,1.99,0.23,9.58,0.00,0.00,0.00,0.00
2026-06-26 19:26:49.328,994.41,994.41,0.84,1.22,0.00,1.99,0.23,9.58,0.00,0.00,0.00,0.00
2026-06-26 19:26:49.335,994.41,994.41,0.84,1.22,0.00,1.99,0.23,9.58,0.00,0.00,0.00,0.00
2026-06-26 19:26:49.336,994.41,994.41,0.84,1.22,0.00,1.97,0.22,9.58,0.00,-0.00,0.00,0.00
2026-06-26 19:26:49.338,994.41,994.41,0.84,1.22,0.00,1.97,0.22,9.58,0.00,-0.00,0.00,0.00
2026-06-26 19:26:49.339,994.41,994.41,0.84,1.22,0.00,1.97,0.22,9.58,0.00,-0.00,0.00,0.00
2026-06-26 19:26:49.345,994.41,994.41,0.84,1.22,0.00,1.97,0.22,9.58,0.00,-0.00,0.00,0.00
2026-06-26 19:26:49.347,994.41,994.41,0.84,1.22,0.00,1.95,0.23,9.59,0.00,0.00,-0.00,0.00
2026-06-26 19:26:49.348,994.41,994.41,0.84,1.22,0.00,1.95,0.23,9.59,0.00,0.00,-0.00,0.00
2026-06-26 19:26:49.396,994.41,994.42,0.94,1.28,0.00,1.98,0.23,9.58,0.00,-0.00,0.00,0.00
2026-06-26 19:26:49.398,994.41,994.42,0.94,1.28,0.00,1.97,0.23,9.59,0.00,-0.00,0.00,0.00
2026-06-26 19:26:49.446,994.41,994.42,0.77,1.16,0.00,1.98,0.24,9.58,0.00,-0.00,0.00,0.00
2026-06-26 19:26:49.448,994.41,994.42,0.77,1.16,0.00,1.99,0.23,9.60,0.00,-0.00,0.00,0.00
2026-06-26 19:26:49.450,994.41,994.42,0.77,1.16,0.00,1.99,0.23,9.60,0.00,-0.00,0.00,0.00
2026-06-26 19:26:49.451,994.41,994.42,0.77,1.16,0.00,1.99,0.23,9.60,0.00,-0.00,0.00,0.00
2026-06-26 19:26:49.453,994.41,994.42,0.77,1.16,0.00,1.99,0.23,9.60,0.00,-0.00,0.00,0.00
2026-06-26 19:26:49.456,994.41,994.42,0.77,1.16,0.00,1.99,0.23,9.60,0.00,0.00,0.00,0.00
2026-06-26 19:26:49.458,994.41,994.42,0.77,1.16,0.00,1.98,0.23,9.62,0.00,0.00,0.00,0.00
2026-06-26 19:26:49.463,994.41,994.42,0.77,1.16,0.00,1.98,0.23,9.62,0.00,0.00,0.00,0.00
2026-06-26 19:26:49.466,994.41,994.42,0.77,1.16,0.00,1.98,0.23,9.62,-0.00,0.00,0.00,0.00
2026-06-26 19:26:49.468,994.41,994.42,0.77,1.16,0.00,1.97,0.22,9.61,-0.00,0.00,0.00,0.00
2026-06-26 19:26:49.469,994.41,994.42,0.77,1.16,0.00,1.97,0.22,9.61,-0.00,0.00,0.00,0.00
2026-06-26 19:26:49.475,994.41,994.42,0.77,1.16,0.00,1.97,0.22,9.61,-0.00,0.00,0.00,0.00
2026-06-26 19:26:49.477,994.41,994.42,0.77,1.16,0.00,1.97,0.20,9.60,-0.00,0.00,-0.00,0.00
2026-06-26 19:26:49.480,994.41,994.42,0.77,1.16,0.00,1.97,0.20,9.60,-0.00,0.00,-0.00,0.00
2026-06-26 19:26:49.486,994.41,994.42,0.77,1.16,0.00,1.97,0.20,9.60,0.00,0.00,0.00,0.00
2026-06-26 19:26:49.488,994.41,994.42,0.77,1.16,0.00,1.97,0.23,9.61,0.00,0.00,0.00,0.00
2026-06-26 19:26:49.536,994.41,994.42,0.99,1.32,0.00,1.96,0.24,9.58,-0.00,0.00,0.00,0.00
2026-06-26 19:26:49.538,994.41,994.42,0.99,1.32,0.00,1.96,0.24,9.58,-0.00,0.00,0.00,0.00
2026-06-26 19:26:49.539,994.41,994.42,0.99,1.32,0.00,1.96,0.24,9.58,-0.00,0.00,0.00,0.00
2026-06-26 19:26:49.545,994.41,994.42,0.99,1.32,0.00,1.96,0.24,9.58,-0.00,0.00,0.00,0.00
2026-06-26 19:26:49.588,994.41,994.42,1.06,1.36,0.00,1.97,0.23,9.57,0.00,0.00,0.00,0.00
2026-06-26 19:26:49.592,994.41,994.42,1.06,1.36,0.00,1.97,0.23,9.57,0.00,0.00,0.00,0.00
2026-06-26 19:26:49.596,994.41,994.42,1.06,1.36,0.00,1.97,0.23,9.57,0.00,0.00,0.00,0.00
2026-06-26 19:26:49.598,994.41,994.42,1.06,1.36,0.00,1.97,0.23,9.58,0.00,0.00,0.00,0.00
2026-06-26 19:26:49.600,994.41,994.42,1.06,1.36,0.00,1.97,0.23,9.58,0.00,0.00,0.00,0.00
2026-06-26 19:26:49.601,994.41,994.42,1.06,1.36,0.00,1.97,0.23,9.58,0.00,0.00,0.00,0.00
2026-06-26 19:26:49.602,994.41,994.42,1.06,1.36,0.00,1.97,0.23,9.58,0.00,0.00,0.00,0.00
2026-06-26 19:26:49.605,994.41,994.42,1.06,1.36,0.00,1.97,0.23,9.58,0.00,0.00,0.00,0.00
2026-06-26 19:26:49.607,994.41,994.42,1.06,1.36,0.00,1.97,0.23,9.60,0.00,-0.00,0.00,0.00
2026-06-26 19:26:49.608,994.41,994.42,1.06,1.36,0.00,1.97,0.23,9.60,0.00,-0.00,0.00,0.00
2026-06-26 19:26:49.610,994.41,994.42,1.06,1.36,0.00,1.97,0.23,9.60,0.00,-0.00,0.00,0.00
2026-06-26 19:26:49.616,994.41,994.42,1.06,1.36,0.00,1.97,0.23,9.60,0.00,-0.00,0.00,0.00
2026-06-26 19:26:49.619,994.41,994.42,1.06,1.36,0.00,1.97,0.22,9.58,0.00,0.00,0.00,0.00
2026-06-26 19:26:49.624,994.41,994.42,1.06,1.36,0.00,1.97,0.22,9.58,0.00,0.00,0.00,0.00
2026-06-26 19:26:49.626,994.41,994.42,1.06,1.36,0.00,1.96,0.24,9.57,0.00,-0.00,-0.00,0.00
2026-06-26 19:26:49.628,994.41,994.42,1.06,1.36,0.00,1.96,0.24,9.57,0.00,-0.00,-0.00,0.00
2026-06-26 19:26:49.629,994.41,994.42,1.06,1.36,0.00,1.96,0.24,9.57,0.00,-0.00,-0.00,0.00
2026-06-26 19:26:49.633,994.41,994.42,1.06,1.36,0.00,1.96,0.24,9.57,0.00,-0.00,-0.00,0.00
2026-06-26 19:26:49.637,994.41,994.42,1.06,1.36,0.00,1.96,0.24,9.57,-0.00,0.00,0.00,0.00
2026-06-26 19:26:49.676,994.41,994.42,1.43,1.58,0.00,1.97,0.21,9.58,0.00,-0.00,-0.00,0.00
2026-06-26 19:26:49.678,994.41,994.42,1.43,1.58,0.00,1.97,0.22,9.59,0.00,-0.00,-0.00,0.00
2026-06-26 19:26:49.680,994.41,994.42,1.43,1.58,0.00,1.97,0.22,9.59,0.00,-0.00,-0.00,0.00
2026-06-26 19:26:49.683,994.41,994.42,1.43,1.58,0.00,1.97,0.22,9.59,0.00,-0.00,-0.00,0.00
2026-06-26 19:26:49.686,994.41,994.42,1.43,1.58,0.00,1.97,0.22,9.59,0.00,-0.00,0.00,0.00
2026-06-26 19:26:49.726,994.40,994.42,1.77,1.76,0.00,1.97,0.23,9.58,0.00,0.00,0.00,0.00
2026-06-26 19:26:49.728,994.40,994.42,1.77,1.76,0.00,1.97,0.22,9.58,0.00,0.00,0.00,0.00
2026-06-26 19:26:49.730,994.40,994.42,1.77,1.76,0.00,1.97,0.22,9.58,0.00,0.00,0.00,0.00
2026-06-26 19:26:49.735,994.40,994.42,1.77,1.76,0.00,1.97,0.22,9.58,0.00,0.00,0.00,0.00
2026-06-26 19:26:49.737,994.40,994.42,1.77,1.76,0.00,1.97,0.22,9.57,-0.00,0.00,0.00,0.00
2026-06-26 19:26:49.739,994.40,994.42,1.77,1.76,0.00,1.97,0.22,9.57,-0.00,0.00,0.00,0.00
2026-06-26 19:26:49.740,994.40,994.42,1.77,1.76,0.00,1.97,0.22,9.57,-0.00,0.00,0.00,0.00
2026-06-26 19:26:49.746,994.40,994.42,1.77,1.76,0.00,1.97,0.22,9.57,0.00,-0.00,0.00,0.00
2026-06-26 19:26:49.752,994.40,994.42,1.77,1.76,0.00,1.97,0.21,9.58,0.00,-0.00,0.00,0.00
2026-06-26 19:26:49.756,994.40,994.42,1.77,1.76,0.00,1.97,0.21,9.58,0.00,0.00,0.00,0.00
2026-06-26 19:26:49.758,994.40,994.42,1.77,1.76,0.00,1.95,0.24,9.60,0.00,0.00,0.00,0.00
2026-06-26 19:26:49.759,994.40,994.42,1.77,1.76,0.00,1.95,0.24,9.60,0.00,0.00,0.00,0.00
2026-06-26 19:26:49.765,994.40,994.42,1.77,1.76,0.00,1.95,0.24,9.60,0.00,0.00,0.00,0.00
2026-06-26 19:26:49.767,994.40,994.42,1.77,1.76,0.00,1.97,0.22,9.56,-0.00,0.00,0.00,0.00
2026-06-26 19:26:49.769,994.40,994.42,1.77,1.76,0.00,1.97,0.22,9.56,-0.00,0.00,0.00,0.00
2026-06-26 19:26:49.770,994.40,994.42,1.77,1.76,0.00,1.97,0.22,9.56,-0.00,0.00,0.00,0.00
2026-06-26 19:26:49.776,994.40,994.42,1.77,1.76,0.00,1.97,0.22,9.56,0.00,0.00,0.00,0.00
2026-06-26 19:26:49.817,994.40,994.42,1.58,1.66,0.00,1.98,0.24,9.57,-0.00,0.00,0.00,0.00
2026-06-26 19:26:49.819,994.40,994.42,1.58,1.66,0.00,1.99,0.23,9.58,-0.00,0.00,0.00,0.00
2026-06-26 19:26:49.820,994.40,994.42,1.58,1.66,0.00,1.99,0.23,9.58,-0.00,0.00,0.00,0.00
2026-06-26 19:26:49.826,994.40,994.42,1.58,1.66,0.00,1.99,0.23,9.58,-0.00,0.00,0.00,0.00
2026-06-26 19:26:49.875,994.40,994.42,1.85,1.80,0.00,1.97,0.21,9.58,0.00,0.00,-0.00,0.00
2026-06-26 19:26:49.877,994.40,994.42,1.85,1.80,0.00,1.97,0.21,9.58,0.00,0.00,0.00,0.00
2026-06-26 19:26:49.879,994.40,994.42,1.85,1.80,0.00,1.97,0.21,9.58,0.00,0.00,0.00,0.00
2026-06-26 19:26:49.881,994.40,994.42,1.85,1.80,0.00,1.97,0.21,9.58,0.00,0.00,0.00,0.00
2026-06-26 19:26:49.886,994.40,994.42,1.85,1.80,0.00,1.97,0.21,9.58,-0.00,0.00,0.00,0.00
2026-06-26 19:26:49.888,994.40,994.42,1.85,1.80,0.00,1.97,0.21,9.59,-0.00,0.00,0.00,0.00
2026-06-26 19:26:49.890,994.40,994.42,1.85,1.80,0.00,1.97,0.21,9.59,-0.00,0.00,0.00,0.00
2026-06-26 19:26:49.893,994.40,994.42,1.85,1.80,0.00,1.97,0.21,9.59,-0.00,0.00,0.00,0.00
2026-06-26 19:26:49.897,994.40,994.42,1.85,1.80,0.00,1.97,0.21,9.59,0.00,0.00,0.00,0.00
2026-06-26 19:26:49.898,994.40,994.42,1.85,1.80,0.00,1.98,0.23,9.58,0.00,0.00,0.00,0.00
2026-06-26 19:26:49.900,994.40,994.42,1.85,1.80,0.00,1.98,0.23,9.58,0.00,0.00,0.00,0.00
2026-06-26 19:26:49.901,994.40,994.42,1.85,1.80,0.00,1.98,0.23,9.58,0.00,0.00,0.00,0.00
2026-06-26 19:26:49.903,994.40,994.42,1.85,1.80,0.00,1.98,0.23,9.58,0.00,0.00,0.00,0.00
2026-06-26 19:26:49.904,994.40,994.42,1.85,1.80,0.00,1.98,0.23,9.58,0.00,0.00,0.00,0.00
2026-06-26 19:26:49.907,994.40,994.42,1.85,1.80,0.00,1.98,0.23,9.58,0.00,-0.00,-0.00,0.00
2026-06-26 19:26:49.910,994.40,994.42,1.85,1.80,0.00,1.97,0.23,9.57,0.00,-0.00,-0.00,0.00
2026-06-26 19:26:49.916,994.40,994.42,1.85,1.80,0.00,1.97,0.23,9.57,0.00,-0.00,-0.00,0.00
2026-06-26 19:26:49.957,994.40,994.42,1.90,1.83,0.00,1.96,0.22,9.57,0.00,0.00,-0.00,0.00
2026-06-26 19:26:49.959,994.40,994.42,1.90,1.83,0.00,1.97,0.23,9.61,0.00,0.00,-0.00,0.00
2026-06-26 19:26:49.960,994.40,994.42,1.90,1.83,0.00,1.97,0.23,9.61,0.00,0.00,-0.00,0.00
2026-06-26 19:26:49.966,994.40,994.42,1.90,1.83,0.00,1.97,0.23,9.61,0.00,0.00,-0.00,0.00
2026-06-26 19:26:49.968,994.40,994.42,1.90,1.83,0.00,1.97,0.22,9.57,-0.00,-0.00,0.00,0.00
2026-06-26 19:26:49.970,994.40,994.42,1.90,1.83,0.00,1.97,0.22,9.57,-0.00,-0.00,0.00,0.00
2026-06-26 19:26:50.017,994.41,994.42,1.39,1.56,0.00,1.98,0.23,9.59,0.00,0.00,-0.00,0.00
2026-06-26 19:26:50.018,994.41,994.42,1.39,1.56,0.00,1.98,0.23,9.57,0.00,0.00,-0.00,0.00
2026-06-26 19:26:50.020,994.41,994.42,1.39,1.56,0.00,1.98,0.23,9.57,0.00,0.00,-0.00,0.00
2026-06-26 19:26:50.025,994.41,994.42,1.39,1.56,0.00,1.98,0.23,9.57,0.00,0.00,-0.00,0.00
2026-06-26 19:26:50.027,994.41,994.42,1.39,1.56,0.00,1.98,0.23,9.55,-0.00,-0.00,0.00,0.00
2026-06-26 19:26:50.029,994.41,994.42,1.39,1.56,0.00,1.98,0.23,9.55,-0.00,-0.00,0.00,0.00
2026-06-26 19:26:50.031,994.41,994.42,1.39,1.56,0.00,1.98,0.23,9.55,-0.00,-0.00,0.00,0.00
2026-06-26 19:26:50.037,994.41,994.42,1.39,1.56,0.00,1.98,0.23,9.55,-0.00,-0.00,0.00,0.00
2026-06-26 19:26:50.038,994.41,994.42,1.39,1.56,0.00,1.97,0.21,9.60,0.00,-0.00,0.00,0.00
2026-06-26 19:26:50.040,994.41,994.42,1.39,1.56,0.00,1.97,0.21,9.60,0.00,-0.00,0.00,0.00
2026-06-26 19:26:50.044,994.41,994.42,1.39,1.56,0.00,1.97,0.21,9.60,0.00,-0.00,0.00,0.00
2026-06-26 19:26:50.047,994.41,994.42,1.39,1.56,0.00,1.97,0.21,9.60,0.00,-0.00,0.00,0.00
2026-06-26 19:26:50.049,994.41,994.42,1.39,1.56,0.00,1.98,0.23,9.58,0.00,-0.00,0.00,0.00
2026-06-26 19:26:50.050,994.41,994.42,1.39,1.56,0.00,1.98,0.23,9.58,0.00,-0.00,0.00,0.00
2026-06-26 19:26:50.052,994.41,994.42,1.39,1.56,0.00,1.98,0.23,9.58,0.00,-0.00,0.00,0.00
2026-06-26 19:26:50.054,994.41,994.42,1.39,1.56,0.00,1.98,0.23,9.58,0.00,-0.00,0.00,0.00
2026-06-26 19:26:50.097,994.41,994.42,1.76,1.76,0.00,1.97,0.23,9.59,0.00,0.00,0.00,0.00
2026-06-26 19:26:50.099,994.41,994.42,1.76,1.76,0.00,1.98,0.23,9.59,0.00,0.00,0.00,0.00
2026-06-26 19:26:50.100,994.41,994.42,1.76,1.76,0.00,1.98,0.23,9.59,0.00,0.00,0.00,0.00
2026-06-26 19:26:50.102,994.41,994.42,1.76,1.76,0.00,1.98,0.23,9.59,0.00,0.00,0.00,0.00
2026-06-26 19:26:50.103,994.41,994.42,1.76,1.76,0.00,1.98,0.23,9.59,0.00,0.00,0.00,0.00
2026-06-26 19:26:50.106,994.41,994.42,1.76,1.76,0.00,1.98,0.23,9.59,0.00,0.00,0.00,0.00
2026-06-26 19:26:50.108,994.41,994.42,1.76,1.76,0.00,1.97,0.24,9.58,0.00,-0.00,-0.00,0.00
2026-06-26 19:26:50.110,994.41,994.42,1.76,1.76,0.00,1.97,0.24,9.58,0.00,-0.00,-0.00,0.00
2026-06-26 19:26:50.116,994.41,994.42,1.76,1.76,0.00,1.97,0.24,9.58,0.00,-0.00,-0.00,0.00
2026-06-26 19:26:50.156,994.41,994.42,1.86,1.81,0.00,1.96,0.22,9.58,-0.00,0.00,-0.00,0.00
2026-06-26 19:26:50.158,994.41,994.42,1.86,1.81,0.00,1.98,0.23,9.59,0.00,-0.00,0.00,0.00
2026-06-26 19:26:50.159,994.41,994.42,1.86,1.81,0.00,1.98,0.23,9.59,0.00,-0.00,0.00,0.00
2026-06-26 19:26:50.161,994.41,994.42,1.86,1.81,0.00,1.98,0.23,9.59,0.00,-0.00,0.00,0.00
2026-06-26 19:26:50.166,994.41,994.42,1.86,1.81,0.00,1.98,0.23,9.59,0.00,-0.00,0.00,0.00
2026-06-26 19:26:50.168,994.41,994.42,1.86,1.81,0.00,1.97,0.24,9.58,0.00,-0.00,0.00,0.00
2026-06-26 19:26:50.169,994.41,994.42,1.86,1.81,0.00,1.97,0.24,9.58,0.00,-0.00,0.00,0.00
2026-06-26 19:26:50.176,994.41,994.42,1.86,1.81,0.00,1.97,0.24,9.58,0.00,-0.00,0.00,0.00
2026-06-26 19:26:50.179,994.41,994.42,1.86,1.81,0.00,1.98,0.23,9.58,-0.00,-0.00,0.00,0.00
2026-06-26 19:26:50.180,994.41,994.42,1.86,1.81,0.00,1.98,0.23,9.58,-0.00,-0.00,0.00,0.00
2026-06-26 19:26:50.182,994.41,994.42,1.86,1.81,0.00,1.98,0.23,9.58,-0.00,-0.00,0.00,0.00
2026-06-26 19:26:50.187,994.41,994.42,1.86,1.81,0.00,1.98,0.23,9.58,-0.00,-0.00,0.00,0.00
2026-06-26 19:26:50.188,994.41,994.42,1.86,1.81,0.00,1.99,0.22,9.57,0.00,0.00,-0.00,0.00
2026-06-26 19:26:50.190,994.41,994.42,1.86,1.81,0.00,1.99,0.22,9.57,0.00,0.00,-0.00,0.00
2026-06-26 19:26:50.237,994.41,994.42,1.70,1.73,0.00,1.97,0.23,9.57,0.00,0.00,0.00,0.00
2026-06-26 19:26:50.239,994.41,994.42,1.70,1.73,0.00,1.98,0.24,9.59,-0.00,0.00,-0.00,0.00
2026-06-26 19:26:50.240,994.41,994.42,1.70,1.73,0.00,1.98,0.24,9.59,-0.00,0.00,-0.00,0.00
2026-06-26 19:26:50.244,994.41,994.42,1.70,1.73,0.00,1.98,0.24,9.59,-0.00,0.00,-0.00,0.00
2026-06-26 19:26:50.248,994.41,994.42,1.70,1.73,0.00,1.98,0.24,9.59,-0.00,0.00,-0.00,0.00
2026-06-26 19:26:50.250,994.41,994.42,1.70,1.73,0.00,1.97,0.22,9.59,-0.00,0.00,-0.00,0.00
2026-06-26 19:26:50.251,994.41,994.42,1.70,1.73,0.00,1.97,0.22,9.59,-0.00,0.00,-0.00,0.00
2026-06-26 19:26:50.253,994.41,994.42,1.70,1.73,0.00,1.97,0.22,9.59,-0.00,0.00,-0.00,0.00
2026-06-26 19:26:50.298,994.40,994.42,1.87,1.81,0.00,1.97,0.23,9.57,0.00,0.00,0.00,0.00
2026-06-26 19:26:50.299,994.40,994.42,1.87,1.81,0.00,1.97,0.21,9.58,0.00,0.00,0.00,0.00
2026-06-26 19:26:50.301,994.40,994.42,1.87,1.81,0.00,1.97,0.21,9.58,0.00,0.00,0.00,0.00
2026-06-26 19:26:50.302,994.40,994.42,1.87,1.81,0.00,1.97,0.21,9.58,0.00,0.00,0.00,0.00
2026-06-26 19:26:50.304,994.40,994.42,1.87,1.81,0.00,1.97,0.21,9.58,0.00,0.00,0.00,0.00
2026-06-26 19:26:50.307,994.40,994.42,1.87,1.81,0.00,1.97,0.21,9.58,0.00,0.00,0.00,0.00
2026-06-26 19:26:50.309,994.40,994.42,1.87,1.81,0.00,1.96,0.23,9.61,0.00,0.00,0.00,0.00
2026-06-26 19:26:50.310,994.40,994.42,1.87,1.81,0.00,1.96,0.23,9.61,0.00,0.00,0.00,0.00
2026-06-26 19:26:50.311,994.40,994.42,1.87,1.81,0.00,1.96,0.23,9.61,0.00,0.00,0.00,0.00
2026-06-26 19:26:50.318,994.40,994.42,1.87,1.81,0.00,1.96,0.23,9.61,0.00,0.00,0.00,0.00
2026-06-26 19:26:50.320,994.40,994.42,1.87,1.81,0.00,1.96,0.19,9.59,-0.00,-0.00,0.00,0.00
2026-06-26 19:26:50.322,994.40,994.42,1.87,1.81,0.00,1.96,0.19,9.59,-0.00,-0.00,0.00,0.00
2026-06-26 19:26:50.327,994.40,994.42,1.87,1.81,0.00,1.96,0.19,9.59,-0.00,-0.00,0.00,0.00
2026-06-26 19:26:50.329,994.40,994.42,1.87,1.81,0.00,1.98,0.23,9.57,0.00,0.00,0.00,0.00
2026-06-26 19:26:50.331,994.40,994.42,1.87,1.81,0.00,1.98,0.23,9.57,0.00,0.00,0.00,0.00
2026-06-26 19:26:50.334,994.40,994.42,1.87,1.81,0.00,1.98,0.23,9.57,0.00,0.00,0.00,0.00
2026-06-26 19:26:50.378,994.40,994.42,1.92,1.84,0.00,1.97,0.20,9.59,0.00,0.00,0.00,0.00
2026-06-26 19:26:50.380,994.40,994.42,1.92,1.84,0.00,1.97,0.20,9.59,0.00,0.00,0.00,0.00
2026-06-26 19:26:50.382,994.40,994.42,1.92,1.84,0.00,1.97,0.20,9.59,0.00,0.00,0.00,0.00
2026-06-26 19:26:50.386,994.40,994.42,1.92,1.84,0.00,1.97,0.20,9.59,0.00,0.00,0.00,0.00
2026-06-26 19:26:50.388,994.40,994.42,1.92,1.84,0.00,1.97,0.23,9.58,0.00,-0.00,0.00,0.00
2026-06-26 19:26:50.390,994.40,994.42,1.92,1.84,0.00,1.97,0.23,9.58,0.00,-0.00,0.00,0.00
2026-06-26 19:26:50.392,994.40,994.42,1.92,1.84,0.00,1.97,0.23,9.58,0.00,-0.00,0.00,0.00
2026-06-26 19:26:50.397,994.40,994.42,1.92,1.84,0.00,1.97,0.23,9.58,0.00,-0.00,0.00,0.00
2026-06-26 19:26:50.439,994.41,994.42,1.65,1.70,0.00,1.98,0.22,9.57,0.00,-0.00,-0.00,0.00
2026-06-26 19:26:50.445,994.41,994.42,1.65,1.70,0.00,1.97,0.23,9.59,0.00,-0.00,-0.00,0.00
2026-06-26 19:26:50.448,994.41,994.42,1.65,1.70,0.00,1.97,0.23,9.59,0.00,0.00,-0.00,0.00
2026-06-26 19:26:50.450,994.41,994.42,1.65,1.70,0.00,1.96,0.23,9.59,0.00,0.00,-0.00,0.00
2026-06-26 19:26:50.451,994.41,994.42,1.65,1.70,0.00,1.96,0.23,9.59,0.00,0.00,-0.00,0.00
2026-06-26 19:26:50.454,994.41,994.42,1.65,1.70,0.00,1.96,0.23,9.59,0.00,0.00,-0.00,0.00
2026-06-26 19:26:50.458,994.41,994.42,1.65,1.70,0.00,1.96,0.23,9.59,0.00,0.00,0.00,0.00
2026-06-26 19:26:50.460,994.41,994.42,1.65,1.70,0.00,1.99,0.22,9.59,0.00,0.00,0.00,0.00
2026-06-26 19:26:50.461,994.41,994.42,1.65,1.70,0.00,1.99,0.22,9.59,0.00,0.00,0.00,0.00
2026-06-26 19:26:50.467,994.41,994.42,1.65,1.70,0.00,1.99,0.22,9.59,0.00,0.00,0.00,0.00
2026-06-26 19:26:50.468,994.41,994.42,1.65,1.70,0.00,1.97,0.24,9.58,0.00,0.00,-0.00,0.00
2026-06-26 19:26:50.470,994.41,994.42,1.65,1.70,0.00,1.97,0.24,9.58,0.00,0.00,-0.00,0.00
2026-06-26 19:26:50.472,994.41,994.42,1.65,1.70,0.00,1.97,0.24,9.58,0.00,0.00,-0.00,0.00
2026-06-26 19:26:50.478,994.41,994.42,1.65,1.70,0.00,1.97,0.24,9.58,0.00,0.00,-0.00,0.00
2026-06-26 19:26:50.520,994.41,994.42,1.46,1.60,0.00,1.98,0.23,9.56,-0.00,-0.00,-0.00,0.00
2026-06-26 19:26:50.524,994.41,994.42,1.46,1.60,0.00,1.98,0.23,9.56,-0.00,-0.00,-0.00,0.00
2026-06-26 19:26:50.528,994.41,994.42,1.46,1.60,0.00,1.98,0.23,9.56,0.00,0.00,-0.00,0.00
2026-06-26 19:26:50.530,994.41,994.42,1.46,1.60,0.00,1.98,0.24,9.58,0.00,0.00,-0.00,0.00
2026-06-26 19:26:50.531,994.41,994.42,1.46,1.60,0.00,1.98,0.24,9.58,0.00,0.00,-0.00,0.00
2026-06-26 19:26:50.537,994.41,994.42,1.46,1.60,0.00,1.98,0.24,9.58,0.00,0.00,-0.00,0.00
2026-06-26 19:26:50.580,994.40,994.42,1.80,1.78,0.00,1.97,0.23,9.59,0.00,0.00,0.00,0.00
2026-06-26 19:26:50.583,994.40,994.42,1.80,1.78,0.00,1.97,0.23,9.59,0.00,0.00,0.00,0.00
2026-06-26 19:26:50.588,994.40,994.42,1.80,1.78,0.00,1.97,0.23,9.59,0.00,-0.00,0.00,0.00
2026-06-26 19:26:50.590,994.40,994.42,1.80,1.78,0.00,2.00,0.22,9.58,0.00,-0.00,0.00,0.00
2026-06-26 19:26:50.591,994.40,994.42,1.80,1.78,0.00,2.00,0.22,9.58,0.00,-0.00,0.00,0.00
2026-06-26 19:26:50.596,994.40,994.42,1.80,1.78,0.00,2.00,0.22,9.58,0.00,-0.00,0.00,0.00
2026-06-26 19:26:50.599,994.40,994.42,1.80,1.78,0.00,1.97,0.21,9.55,0.00,0.00,0.00,0.00
2026-06-26 19:26:50.600,994.40,994.42,1.80,1.78,0.00,1.97,0.21,9.55,0.00,0.00,0.00,0.00
2026-06-26 19:26:50.602,994.40,994.42,1.80,1.78,0.00,1.97,0.21,9.55,0.00,0.00,0.00,0.00
2026-06-26 19:26:50.603,994.40,994.42,1.80,1.78,0.00,1.97,0.21,9.55,0.00,0.00,0.00,0.00
2026-06-26 19:26:50.605,994.40,994.42,1.80,1.78,0.00,1.97,0.21,9.55,0.00,0.00,0.00,0.00
2026-06-26 19:26:50.608,994.40,994.42,1.80,1.78,0.00,1.97,0.21,9.55,-0.00,0.00,-0.00,0.00
2026-06-26 19:26:50.610,994.40,994.42,1.80,1.78,0.00,1.99,0.23,9.60,-0.00,0.00,-0.00,0.00
2026-06-26 19:26:50.615,994.40,994.42,1.80,1.78,0.00,1.99,0.23,9.60,-0.00,0.00,-0.00,0.00
2026-06-26 19:26:50.618,994.40,994.42,1.80,1.78,0.00,1.99,0.23,9.60,0.00,-0.00,0.00,0.00
2026-06-26 19:26:50.620,994.40,994.42,1.80,1.78,0.00,1.97,0.23,9.61,0.00,-0.00,0.00,0.00
2026-06-26 19:26:50.659,994.40,994.42,1.99,1.87,0.00,1.97,0.22,9.58,-0.00,0.00,-0.00,0.00
2026-06-26 19:26:50.660,994.40,994.42,1.99,1.87,0.00,1.97,0.22,9.58,-0.00,0.00,-0.00,0.00
2026-06-26 19:26:50.662,994.40,994.42,1.99,1.87,0.00,1.97,0.22,9.58,-0.00,0.00,-0.00,0.00
2026-06-26 19:26:50.668,994.40,994.42,1.99,1.87,0.00,1.97,0.22,9.58,-0.00,0.00,-0.00,0.00
2026-06-26 19:26:50.670,994.40,994.42,1.99,1.87,0.00,1.97,0.24,9.61,0.00,0.00,0.00,0.00
2026-06-26 19:26:50.674,994.40,994.42,1.99,1.87,0.00,1.97,0.24,9.61,0.00,0.00,0.00,0.00
2026-06-26 19:26:50.678,994.40,994.42,1.99,1.87,0.00,1.97,0.24,9.61,0.00,-0.00,0.00,0.00
2026-06-26 19:26:50.721,994.41,994.42,1.62,1.69,0.00,1.97,0.23,9.59,0.00,0.00,0.00,0.00
2026-06-26 19:26:50.723,994.41,994.42,1.62,1.69,0.00,1.97,0.23,9.59,0.00,0.00,0.00,0.00
2026-06-26 19:26:50.728,994.41,994.42,1.62,1.69,0.00,1.97,0.23,9.59,0.00,-0.00,-0.00,0.00
2026-06-26 19:26:50.730,994.41,994.42,1.62,1.69,0.00,1.97,0.23,9.56,0.00,-0.00,-0.00,0.00
2026-06-26 19:26:50.731,994.41,994.42,1.62,1.69,0.00,1.97,0.23,9.56,0.00,-0.00,-0.00,0.00
2026-06-26 19:26:50.733,994.41,994.42,1.62,1.69,0.00,1.97,0.23,9.56,0.00,-0.00,-0.00,0.00
2026-06-26 19:26:50.738,994.41,994.42,1.62,1.69,0.00,1.97,0.23,9.56,0.00,0.00,0.00,0.00
2026-06-26 19:26:50.746,994.41,994.42,1.62,1.69,0.00,1.99,0.22,9.59,0.00,0.00,0.00,0.00
2026-06-26 19:26:50.749,994.41,994.42,1.62,1.69,0.00,1.99,0.22,9.59,0.00,0.00,0.00,0.00
2026-06-26 19:26:50.751,994.41,994.42,1.62,1.69,0.00,1.97,0.23,9.59,0.00,0.00,0.00,0.00
2026-06-26 19:26:50.752,994.41,994.42,1.62,1.69,0.00,1.97,0.23,9.59,0.00,0.00,0.00,0.00
2026-06-26 19:26:50.754,994.41,994.42,1.62,1.69,0.00,1.97,0.23,9.59,0.00,0.00,0.00,0.00
2026-06-26 19:26:50.756,994.41,994.42,1.62,1.69,0.00,1.97,0.23,9.59,0.00,0.00,0.00,0.00
2026-06-26 19:26:50.759,994.41,994.42,1.62,1.69,0.00,1.97,0.23,9.59,0.00,-0.00,0.00,0.00
2026-06-26 19:26:50.799,994.41,994.42,1.67,1.71,0.00,1.97,0.23,9.60,0.00,0.00,0.00,0.00
2026-06-26 19:26:50.801,994.41,994.42,1.67,1.71,0.00,1.97,0.21,9.58,0.00,0.00,0.00,0.00
2026-06-26 19:26:50.804,994.41,994.42,1.67,1.71,0.00,1.97,0.21,9.58,0.00,0.00,0.00,0.00
2026-06-26 19:26:50.808,994.41,994.42,1.67,1.71,0.00,1.97,0.21,9.58,0.00,0.00,0.00,0.00
2026-06-26 19:26:50.810,994.41,994.42,1.67,1.71,0.00,1.98,0.20,9.60,0.00,0.00,0.00,0.00
2026-06-26 19:26:50.812,994.41,994.42,1.67,1.71,0.00,1.98,0.20,9.60,0.00,0.00,0.00,0.00
2026-06-26 19:26:50.818,994.41,994.42,1.67,1.71,0.00,1.98,0.20,9.60,0.00,0.00,0.00,0.00
2026-06-26 19:26:50.820,994.41,994.42,1.67,1.71,0.00,1.98,0.22,9.57,0.00,0.00,0.00,0.00
2026-06-26 19:26:50.868,994.41,994.42,1.60,1.68,0.00,1.97,0.24,9.59,0.00,0.00,0.00,0.00
2026-06-26 19:26:50.870,994.41,994.42,1.60,1.68,0.00,1.99,0.22,9.58,-0.00,0.00,-0.00,0.00
2026-06-26 19:26:50.871,994.41,994.42,1.60,1.68,0.00,1.99,0.22,9.58,-0.00,0.00,-0.00,0.00
2026-06-26 19:26:50.874,994.41,994.42,1.60,1.68,0.00,1.99,0.22,9.58,-0.00,0.00,-0.00,0.00
2026-06-26 19:26:50.878,994.41,994.42,1.60,1.68,0.00,1.99,0.22,9.58,0.00,0.00,-0.00,0.00
2026-06-26 19:26:50.880,994.41,994.42,1.60,1.68,0.00,1.98,0.20,9.57,0.00,0.00,-0.00,0.00
2026-06-26 19:26:50.881,994.41,994.42,1.60,1.68,0.00,1.98,0.20,9.57,0.00,0.00,-0.00,0.00
2026-06-26 19:26:50.883,994.41,994.42,1.60,1.68,0.00,1.98,0.20,9.57,0.00,0.00,-0.00,0.00
2026-06-26 19:26:50.887,994.41,994.42,1.60,1.68,0.00,1.98,0.20,9.57,0.00,0.00,-0.00,0.00
2026-06-26 19:26:50.889,994.41,994.42,1.60,1.68,0.00,1.97,0.24,9.59,0.00,0.00,0.00,0.00
2026-06-26 19:26:50.890,994.41,994.42,1.60,1.68,0.00,1.97,0.24,9.59,0.00,0.00,0.00,0.00
2026-06-26 19:26:50.892,994.41,994.42,1.60,1.68,0.00,1.97,0.24,9.59,0.00,0.00,0.00,0.00
2026-06-26 19:26:50.896,994.41,994.42,1.60,1.68,0.00,1.97,0.24,9.59,0.00,0.00,0.00,0.00
2026-06-26 19:26:50.943,994.41,994.43,1.97,1.86,0.00,1.96,0.23,9.57,0.00,0.00,0.00,0.00
2026-06-26 19:26:50.949,994.41,994.43,1.97,1.86,0.00,1.96,0.23,9.57,0.00,0.00,0.00,0.00
2026-06-26 19:26:50.950,994.41,994.43,1.97,1.86,0.00,1.97,0.22,9.61,0.00,0.00,0.00,0.00
2026-06-26 19:26:50.952,994.41,994.43,1.97,1.86,0.00,1.97,0.22,9.61,0.00,0.00,0.00,0.00
2026-06-26 19:26:50.954,994.41,994.43,1.97,1.86,0.00,1.97,0.22,9.61,0.00,0.00,0.00,0.00
2026-06-26 19:26:50.955,994.41,994.43,1.97,1.86,0.00,1.97,0.22,9.61,0.00,0.00,0.00,0.00
2026-06-26 19:26:50.958,994.41,994.43,1.97,1.86,0.00,1.97,0.22,9.61,0.00,0.00,0.00,0.00
2026-06-26 19:26:50.960,994.41,994.43,1.97,1.86,0.00,1.98,0.25,9.61,0.00,0.00,-0.00,0.00
2026-06-26 19:26:50.962,994.41,994.43,1.97,1.86,0.00,1.98,0.25,9.61,0.00,0.00,-0.00,0.00
2026-06-26 19:26:50.964,994.41,994.43,1.97,1.86,0.00,1.98,0.25,9.61,0.00,0.00,-0.00,0.00
2026-06-26 19:26:51.009,994.41,994.43,1.90,1.83,0.00,1.97,0.23,9.59,0.00,0.00,-0.00,0.00
2026-06-26 19:26:51.011,994.41,994.43,1.90,1.83,0.00,1.99,0.23,9.60,0.00,0.00,-0.00,0.00
2026-06-26 19:26:51.013,994.41,994.43,1.90,1.83,0.00,1.99,0.23,9.60,0.00,0.00,-0.00,0.00
2026-06-26 19:26:51.019,994.41,994.43,1.90,1.83,0.00,1.99,0.23,9.60,0.00,0.00,-0.00,0.00
2026-06-26 19:26:51.022,994.41,994.43,1.90,1.83,0.00,1.98,0.23,9.58,0.00,0.00,-0.00,0.00
2026-06-26 19:26:51.025,994.41,994.43,1.90,1.83,0.00,1.98,0.23,9.58,0.00,0.00,-0.00,0.00
2026-06-26 19:26:51.029,994.41,994.43,1.90,1.83,0.00,1.98,0.23,9.58,0.00,0.00,0.00,0.00
2026-06-26 19:26:51.030,994.41,994.43,1.90,1.83,0.00,1.96,0.23,9.57,0.00,0.00,0.00,0.00
2026-06-26 19:26:51.032,994.41,994.43,1.90,1.83,0.00,1.96,0.23,9.57,0.00,0.00,0.00,0.00
2026-06-26 19:26:51.036,994.41,994.43,1.90,1.83,0.00,1.96,0.23,9.57,0.00,0.00,0.00,0.00
2026-06-26 19:26:51.039,994.41,994.43,1.90,1.83,0.00,1.96,0.23,9.57,0.00,-0.00,0.00,0.00
2026-06-26 19:26:51.041,994.41,994.43,1.90,1.83,0.00,1.97,0.23,9.59,0.00,-0.00,0.00,0.00
2026-06-26 19:26:51.083,994.41,994.42,1.47,1.61,0.00,1.98,0.23,9.55,0.00,0.00,0.00,0.00
2026-06-26 19:26:51.089,994.41,994.42,1.47,1.61,0.00,1.98,0.23,9.55,0.00,0.00,0.00,0.00
2026-06-26 19:26:51.090,994.41,994.42,1.47,1.61,0.00,1.97,0.25,9.59,0.00,0.00,0.00,0.00
2026-06-26 19:26:51.092,994.41,994.42,1.47,1.61,0.00,1.97,0.25,9.59,0.00,0.00,0.00,0.00
2026-06-26 19:26:51.095,994.41,994.42,1.47,1.61,0.00,1.97,0.25,9.59,0.00,0.00,0.00,0.00
2026-06-26 19:26:51.099,994.41,994.42,1.47,1.61,0.00,1.97,0.25,9.59,-0.00,0.00,-0.00,0.00
2026-06-26 19:26:51.101,994.41,994.42,1.47,1.61,0.00,1.99,0.23,9.60,-0.00,0.00,-0.00,0.00
2026-06-26 19:26:51.102,994.41,994.42,1.47,1.61,0.00,1.99,0.23,9.60,-0.00,0.00,-0.00,0.00
2026-06-26 19:26:51.104,994.41,994.42,1.47,1.61,0.00,1.99,0.23,9.60,-0.00,0.00,-0.00,0.00
2026-06-26 19:26:51.106,994.41,994.42,1.47,1.61,0.00,1.99,0.23,9.60,-0.00,0.00,-0.00,0.00
2026-06-26 19:26:51.150,994.41,994.42,1.72,1.74,0.00,1.98,0.22,9.62,0.00,-0.00,0.00,0.00
2026-06-26 19:26:51.153,994.41,994.42,1.72,1.74,0.00,1.98,0.22,9.62,0.00,-0.00,0.00,0.00
2026-06-26 19:26:51.155,994.41,994.42,1.72,1.74,0.00,1.98,0.22,9.62,0.00,-0.00,0.00,0.00
2026-06-26 19:26:51.159,994.41,994.42,1.72,1.74,0.00,1.98,0.22,9.62,0.00,-0.00,0.00,0.00
2026-06-26 19:26:51.161,994.41,994.42,1.72,1.74,0.00,1.96,0.22,9.60,-0.00,0.00,0.00,0.00
2026-06-26 19:26:51.163,994.41,994.42,1.72,1.74,0.00,1.96,0.22,9.60,-0.00,0.00,0.00,0.00
2026-06-26 19:26:51.169,994.41,994.42,1.72,1.74,0.00,1.96,0.22,9.60,-0.00,0.00,0.00,0.00
2026-06-26 19:26:51.172,994.41,994.42,1.72,1.74,0.00,1.99,0.22,9.59,0.00,-0.00,0.00,0.00
2026-06-26 19:26:51.179,994.41,994.42,1.72,1.74,0.00,1.99,0.22,9.59,0.00,-0.00,0.00,0.00
2026-06-26 19:26:51.182,994.41,994.42,1.72,1.74,0.00,1.98,0.23,9.58,-0.00,0.00,-0.00,0.00
2026-06-26 19:26:51.229,994.41,994.42,1.84,1.80,0.00,1.96,0.23,9.56,0.00,-0.00,0.00,0.00
2026-06-26 19:26:51.231,994.41,994.42,1.84,1.80,0.00,1.97,0.24,9.58,0.00,0.00,-0.00,0.00
2026-06-26 19:26:51.232,994.41,994.42,1.84,1.80,0.00,1.97,0.24,9.58,0.00,0.00,-0.00,0.00
2026-06-26 19:26:51.236,994.41,994.42,1.84,1.80,0.00,1.97,0.24,9.58,0.00,0.00,-0.00,0.00
2026-06-26 19:26:51.241,994.41,994.42,1.84,1.80,0.00,1.97,0.24,9.58,0.00,0.00,0.00,0.00
2026-06-26 19:26:51.243,994.41,994.42,1.84,1.80,0.00,1.96,0.23,9.60,0.00,0.00,0.00,0.00
2026-06-26 19:26:51.249,994.41,994.42,1.84,1.80,0.00,1.96,0.23,9.60,0.00,0.00,0.00,0.00
2026-06-26 19:26:51.298,994.40,994.42,2.02,1.88,0.00,1.98,0.25,9.57,0.00,0.00,0.00,0.00
2026-06-26 19:26:51.300,994.40,994.42,2.02,1.88,0.00,1.97,0.22,9.60,0.00,0.00,0.00,0.00
2026-06-26 19:26:51.302,994.40,994.42,2.02,1.88,0.00,1.97,0.22,9.60,0.00,0.00,0.00,0.00
2026-06-26 19:26:51.304,994.40,994.42,2.02,1.88,0.00,1.97,0.22,9.60,0.00,0.00,0.00,0.00
2026-06-26 19:26:51.305,994.40,994.42,2.02,1.88,0.00,1.97,0.22,9.60,0.00,0.00,0.00,0.00
2026-06-26 19:26:51.307,994.40,994.42,2.02,1.88,0.00,1.97,0.22,9.60,0.00,0.00,0.00,0.00
2026-06-26 19:26:51.310,994.40,994.42,2.02,1.88,0.00,1.97,0.22,9.60,0.00,-0.00,-0.00,0.00
2026-06-26 19:26:51.315,994.40,994.42,2.02,1.88,0.00,1.99,0.22,9.59,0.00,-0.00,-0.00,0.00
2026-06-26 19:26:51.320,994.40,994.42,2.02,1.88,0.00,1.99,0.22,9.59,0.00,-0.00,-0.00,0.00
2026-06-26 19:26:51.322,994.40,994.42,2.02,1.88,0.00,1.99,0.22,9.57,0.00,-0.00,-0.00,0.00
2026-06-26 19:26:51.329,994.40,994.42,2.02,1.88,0.00,1.99,0.22,9.57,0.00,-0.00,-0.00,0.00
2026-06-26 19:26:51.370,994.40,994.42,1.87,1.81,0.00,1.98,0.23,9.60,-0.00,0.00,-0.00,0.00
2026-06-26 19:26:51.372,994.40,994.42,1.87,1.81,0.00,1.97,0.22,9.58,-0.00,0.00,-0.00,0.00
2026-06-26 19:26:51.373,994.40,994.42,1.87,1.81,0.00,1.97,0.22,9.58,-0.00,0.00,-0.00,0.00
2026-06-26 19:26:51.379,994.40,994.42,1.87,1.81,0.00,1.97,0.22,9.58,-0.00,0.00,-0.00,0.00
2026-06-26 19:26:51.381,994.40,994.42,1.87,1.81,0.00,1.98,0.22,9.54,0.00,-0.00,0.00,0.00
2026-06-26 19:26:51.382,994.40,994.42,1.87,1.81,0.00,1.98,0.22,9.54,0.00,-0.00,0.00,0.00
2026-06-26 19:26:51.384,994.40,994.42,1.87,1.81,0.00,1.98,0.22,9.54,0.00,-0.00,0.00,0.00
2026-06-26 19:26:51.387,994.40,994.42,1.87,1.81,0.00,1.98,0.22,9.54,0.00,-0.00,0.00,0.00
2026-06-26 19:26:51.390,994.40,994.42,1.87,1.81,0.00,1.98,0.22,9.54,0.00,-0.00,0.00,0.00
2026-06-26 19:26:51.392,994.40,994.42,1.87,1.81,0.00,1.96,0.21,9.58,0.00,-0.00,0.00,0.00
2026-06-26 19:26:51.439,994.41,994.42,1.70,1.73,0.00,1.97,0.23,9.57,0.00,0.00,0.00,0.00
2026-06-26 19:26:51.441,994.41,994.42,1.70,1.73,0.00,1.97,0.23,9.58,0.00,0.00,0.00,0.00
2026-06-26 19:26:51.443,994.41,994.42,1.70,1.73,0.00,1.97,0.23,9.58,0.00,0.00,0.00,0.00
2026-06-26 19:26:51.446,994.41,994.42,1.70,1.73,0.00,1.97,0.23,9.58,0.00,0.00,0.00,0.00
2026-06-26 19:26:51.451,994.41,994.42,1.70,1.73,0.00,1.97,0.23,9.58,0.00,0.00,-0.00,0.00
2026-06-26 19:26:51.452,994.41,994.42,1.70,1.73,0.00,1.96,0.23,9.60,0.00,0.00,-0.00,0.00
2026-06-26 19:26:51.454,994.41,994.42,1.70,1.73,0.00,1.96,0.23,9.60,0.00,0.00,-0.00,0.00
2026-06-26 19:26:51.456,994.41,994.42,1.70,1.73,0.00,1.96,0.23,9.60,0.00,0.00,-0.00,0.00
2026-06-26 19:26:51.460,994.41,994.42,1.70,1.73,0.00,1.96,0.23,9.60,0.00,0.00,-0.00,0.00
2026-06-26 19:26:51.462,994.41,994.42,1.70,1.73,0.00,1.96,0.21,9.60,0.00,0.00,-0.00,0.00
2026-06-26 19:26:51.463,994.41,994.42,1.70,1.73,0.00,1.96,0.21,9.60,0.00,0.00,-0.00,0.00
2026-06-26 19:26:51.470,994.41,994.42,1.70,1.73,0.00,1.96,0.21,9.60,-0.00,0.00,0.00,0.00
2026-06-26 19:26:51.510,994.41,994.42,1.16,1.43,0.00,1.97,0.23,9.59,0.00,0.00,0.00,0.00
2026-06-26 19:26:51.512,994.41,994.42,1.16,1.43,0.00,1.98,0.23,9.59,0.00,0.00,0.00,0.00
2026-06-26 19:26:51.514,994.41,994.42,1.16,1.43,0.00,1.98,0.23,9.59,0.00,0.00,0.00,0.00
2026-06-26 19:26:51.520,994.41,994.42,1.16,1.43,0.00,1.98,0.23,9.59,0.00,0.00,0.00,0.00
2026-06-26 19:26:51.522,994.41,994.42,1.16,1.43,0.00,1.96,0.22,9.56,0.00,0.00,0.00,0.00
2026-06-26 19:26:51.523,994.41,994.42,1.16,1.43,0.00,1.96,0.22,9.56,0.00,0.00,0.00,0.00
2026-06-26 19:26:51.530,994.41,994.42,1.16,1.43,0.00,1.96,0.22,9.56,0.00,0.00,0.00,0.00
2026-06-26 19:26:51.531,994.41,994.42,1.16,1.43,0.00,1.97,0.23,9.59,0.00,0.00,0.00,0.00
2026-06-26 19:26:51.533,994.41,994.42,1.16,1.43,0.00,1.97,0.23,9.59,0.00,0.00,0.00,0.00
2026-06-26 19:26:51.581,994.41,994.42,1.16,1.43,0.00,1.97,0.23,9.60,-0.00,0.00,-0.00,0.00
2026-06-26 19:26:51.584,994.41,994.42,1.16,1.43,0.00,1.97,0.21,9.57,-0.00,0.00,-0.00,0.00
2026-06-26 19:26:51.590,994.41,994.42,1.16,1.43,0.00,1.97,0.21,9.57,-0.00,0.00,-0.00,0.00
2026-06-26 19:26:51.591,994.41,994.42,1.16,1.43,0.00,1.98,0.23,9.59,0.00,0.00,0.00,0.00
2026-06-26 19:26:51.593,994.41,994.42,1.16,1.43,0.00,1.98,0.23,9.59,0.00,0.00,0.00,0.00
2026-06-26 19:26:51.596,994.41,994.42,1.16,1.43,0.00,1.98,0.23,9.59,0.00,0.00,0.00,0.00
2026-06-26 19:26:51.601,994.41,994.42,1.16,1.43,0.00,1.98,0.23,9.59,0.00,0.00,0.00,0.00
2026-06-26 19:26:51.603,994.41,994.42,1.16,1.43,0.00,1.96,0.22,9.60,0.00,0.00,0.00,0.00
2026-06-26 19:26:51.604,994.41,994.42,1.16,1.43,0.00,1.96,0.22,9.60,0.00,0.00,0.00,0.00
2026-06-26 19:26:51.606,994.41,994.42,1.16,1.43,0.00,1.96,0.22,9.60,0.00,0.00,0.00,0.00
2026-06-26 19:26:51.607,994.41,994.42,1.16,1.43,0.00,1.96,0.22,9.60,0.00,0.00,0.00,0.00
2026-06-26 19:26:51.612,994.41,994.42,1.16,1.43,0.00,1.96,0.22,9.60,0.00,0.00,-0.00,0.00
2026-06-26 19:26:51.655,994.41,994.42,1.70,1.73,0.00,1.97,0.22,9.59,0.00,-0.00,0.00,0.00
2026-06-26 19:26:51.661,994.41,994.42,1.70,1.73,0.00,1.97,0.22,9.59,-0.00,0.00,0.00,0.00
2026-06-26 19:26:51.664,994.41,994.42,1.70,1.73,0.00,1.98,0.24,9.59,-0.00,0.00,0.00,0.00
2026-06-26 19:26:51.670,994.41,994.42,1.70,1.73,0.00,1.98,0.24,9.59,-0.00,0.00,0.00,0.00
2026-06-26 19:26:51.672,994.41,994.42,1.70,1.73,0.00,2.00,0.23,9.59,0.00,-0.00,-0.00,0.00
2026-06-26 19:26:51.673,994.41,994.42,1.70,1.73,0.00,2.00,0.23,9.59,0.00,-0.00,-0.00,0.00
2026-06-26 19:26:51.676,994.41,994.42,1.70,1.73,0.00,2.00,0.23,9.59,0.00,-0.00,-0.00,0.00
2026-06-26 19:26:51.722,994.41,994.42,1.64,1.69,0.00,1.98,0.22,9.60,0.00,0.00,-0.00,0.00
2026-06-26 19:26:51.723,994.41,994.42,1.64,1.69,0.00,1.98,0.22,9.60,0.00,0.00,-0.00,0.00
2026-06-26 19:26:51.727,994.41,994.42,1.64,1.69,0.00,1.98,0.22,9.60,0.00,0.00,-0.00,0.00
2026-06-26 19:26:51.731,994.41,994.42,1.64,1.69,0.00,1.98,0.22,9.60,0.00,0.00,-0.00,0.00
2026-06-26 19:26:51.732,994.41,994.42,1.64,1.69,0.00,1.97,0.23,9.57,0.00,0.00,-0.00,0.00
2026-06-26 19:26:51.734,994.41,994.42,1.64,1.69,0.00,1.97,0.23,9.57,0.00,0.00,-0.00,0.00
2026-06-26 19:26:51.738,994.41,994.42,1.64,1.69,0.00,1.97,0.23,9.57,0.00,0.00,-0.00,0.00
2026-06-26 19:26:51.741,994.41,994.42,1.64,1.69,0.00,1.97,0.23,9.57,-0.00,0.00,0.00,0.00
2026-06-26 19:26:51.743,994.41,994.42,1.64,1.69,0.00,1.97,0.23,9.58,-0.00,0.00,0.00,0.00
2026-06-26 19:26:51.744,994.41,994.42,1.64,1.69,0.00,1.97,0.23,9.58,-0.00,0.00,0.00,0.00
2026-06-26 19:26:51.750,994.41,994.42,1.64,1.69,0.00,1.97,0.23,9.58,-0.00,0.00,0.00,0.00
2026-06-26 19:26:51.755,994.41,994.42,1.64,1.69,0.00,1.97,0.20,9.59,-0.00,-0.00,-0.00,0.00
2026-06-26 19:26:51.796,994.41,994.42,1.33,1.53,0.00,1.98,0.22,9.57,-0.00,-0.00,0.00,0.00
2026-06-26 19:26:51.801,994.41,994.42,1.33,1.53,0.00,1.98,0.22,9.57,0.00,-0.00,-0.00,0.00
2026-06-26 19:26:51.802,994.41,994.42,1.33,1.53,0.00,1.99,0.19,9.58,0.00,-0.00,-0.00,0.00
2026-06-26 19:26:51.804,994.41,994.42,1.33,1.53,0.00,1.99,0.19,9.58,0.00,-0.00,-0.00,0.00
2026-06-26 19:26:51.806,994.41,994.42,1.33,1.53,0.00,1.99,0.19,9.58,0.00,-0.00,-0.00,0.00
2026-06-26 19:26:51.807,994.41,994.42,1.33,1.53,0.00,1.99,0.19,9.58,0.00,-0.00,-0.00,0.00
2026-06-26 19:26:51.810,994.41,994.42,1.33,1.53,0.00,1.99,0.19,9.58,0.00,-0.00,-0.00,0.00
2026-06-26 19:26:51.816,994.41,994.42,1.33,1.53,0.00,1.97,0.21,9.60,0.00,0.00,0.00,0.00
