timestamp,pressure_bag,pressure_bme,diff_pressure,v_wind_est,speed,accel_x,accel_y,accel_z,gyro_x,gyro_y,gyro_z,power
2026-06-27 19:45:34.379,992.65,992.58,-7.58,3.63,0.00,1.62,-0.33,9.59,-0.00,-0.00,0.00,0
2026-06-27 19:45:34.389,992.65,992.58,-7.58,3.63,0.00,1.62,-0.33,9.59,-0.00,-0.00,0.00,0
2026-06-27 19:45:34.399,992.65,992.58,-7.58,3.63,0.00,1.62,-0.34,9.55,-0.00,0.00,0.00,0
2026-06-27 19:45:34.409,992.65,992.58,-7.58,3.63,0.00,1.62,-0.34,9.55,-0.00,0.00,0.00,0
2026-06-27 19:45:34.419,992.65,992.58,-7.58,3.63,0.00,1.62,-0.34,9.55,-0.00,0.00,0.00,0
2026-06-27 19:45:34.429,992.65,992.58,-7.58,3.63,0.00,1.62,-0.34,9.55,-0.00,0.00,0.00,0
2026-06-27 19:45:34.439,992.65,992.58,-7.58,3.63,0.00,1.58,-0.33,9.53,-0.00,0.00,0.00,0
2026-06-27 19:45:34.449,992.65,992.58,-7.58,3.63,0.00,1.58,-0.33,9.53,-0.00,0.00,0.00,0
2026-06-27 19:45:34.459,992.65,992.58,-7.58,3.63,0.00,1.58,-0.33,9.53,-0.00,0.00,0.00,0
2026-06-27 19:45:34.469,992.65,992.58,-7.58,3.63,0.00,1.59,-0.32,9.57,-0.00,-0.00,0.00,0
2026-06-27 19:45:34.479,992.65,992.58,-7.58,3.63,0.00,1.60,-0.30,9.56,-0.00,0.00,0.00,0
2026-06-27 19:45:34.489,992.65,992.58,-7.58,3.63,0.00,1.60,-0.30,9.56,-0.00,0.00,0.00,0
2026-06-27 19:45:34.499,992.65,992.61,-4.79,2.88,0.00,1.60,-0.35,9.59,-0.00,0.00,-0.00,0
2026-06-27 19:45:34.509,992.65,992.61,-4.79,2.88,0.00,1.60,-0.35,9.59,-0.00,0.00,-0.00,0
2026-06-27 19:45:34.519,992.69,992.61,-8.48,3.83,0.00,1.60,-0.31,9.58,-0.00,-0.00,0.00,0
2026-06-27 19:45:34.529,992.69,992.61,-8.48,3.83,0.00,1.60,-0.31,9.58,-0.00,-0.00,0.00,0
2026-06-27 19:45:34.539,992.69,992.61,-8.48,3.83,0.00,1.60,-0.31,9.58,-0.00,-0.00,0.00,0
2026-06-27 19:45:34.549,992.69,992.61,-8.48,3.83,0.00,1.60,-0.31,9.58,-0.00,-0.00,0.00,0
2026-06-27 19:45:34.559,992.69,992.61,-8.48,3.83,0.00,1.60,-0.32,9.55,-0.00,0.00,0.00,0
2026-06-27 19:45:34.569,992.69,992.61,-8.48,3.83,0.00,1.60,-0.32,9.55,-0.00,0.00,0.00,0
2026-06-27 19:45:34.579,992.69,992.61,-8.48,3.83,0.00,1.60,-0.32,9.55,-0.00,0.00,0.00,0
2026-06-27 19:45:34.589,992.69,992.61,-8.48,3.83,0.00,1.60,-0.32,9.55,-0.00,0.00,0.00,0
2026-06-27 19:45:34.599,992.69,992.61,-8.48,3.83,0.00,1.60,-0.32,9.55,-0.00,0.00,0.00,0
2026-06-27 19:45:34.609,992.69,992.61,-8.48,3.83,0.00,1.60,-0.32,9.55,-0.00,0.00,0.00,0
2026-06-27 19:45:34.619,992.69,992.61,-8.48,3.83,0.00,1.61,-0.32,9.57,-0.01,-0.00,0.00,0
2026-06-27 19:45:34.629,992.69,992.61,-8.48,3.83,0.00,1.61,-0.32,9.57,-0.01,-0.00,0.00,0
2026-06-27 19:45:34.639,992.69,992.61,-8.48,3.83,0.00,1.61,-0.32,9.57,-0.01,-0.00,0.00,0
2026-06-27 19:45:34.649,992.69,992.61,-8.48,3.83,0.00,1.61,-0.32,9.57,-0.01,-0.00,0.00,0
2026-06-27 19:45:34.659,992.69,992.61,-8.48,3.83,0.00,1.58,-0.32,9.60,-0.00,-0.00,0.00,0
2026-06-27 19:45:34.669,992.69,992.61,-8.48,3.83,0.00,1.58,-0.32,9.60,-0.00,-0.00,0.00,0
2026-06-27 19:45:34.679,992.69,992.59,-10.21,4.21,0.00,1.60,-0.31,9.53,-0.00,-0.01,-0.00,0
2026-06-27 19:45:34.689,992.69,992.59,-10.10,4.18,0.00,1.58,-0.30,9.58,-0.00,-0.01,-0.00,0
2026-06-27 19:45:34.699,992.69,992.59,-10.10,4.18,0.00,1.58,-0.30,9.58,-0.00,-0.01,-0.00,0
2026-06-27 19:45:34.709,992.69,992.59,-10.10,4.18,0.00,1.58,-0.30,9.58,-0.00,-0.01,-0.00,0
2026-06-27 19:45:34.719,992.69,992.59,-10.10,4.18,0.00,1.61,-0.33,9.58,-0.00,0.00,-0.00,0
2026-06-27 19:45:34.729,992.69,992.59,-10.10,4.18,0.00,1.61,-0.33,9.58,-0.00,0.00,-0.00,0
2026-06-27 19:45:34.739,992.69,992.59,-10.10,4.18,0.00,1.61,-0.33,9.58,-0.00,0.00,-0.00,0
2026-06-27 19:45:34.749,992.69,992.59,-10.10,4.18,0.00,1.61,-0.33,9.58,-0.00,0.00,-0.00,0
2026-06-27 19:45:34.759,992.69,992.59,-10.10,4.18,0.00,1.61,-0.33,9.58,-0.00,0.00,-0.00,0
2026-06-27 19:45:34.769,992.69,992.59,-10.10,4.18,0.00,1.60,-0.34,9.57,-0.00,-0.00,-0.00,0
2026-06-27 19:45:34.779,992.69,992.59,-10.10,4.18,0.00,1.60,-0.34,9.57,-0.00,-0.00,-0.00,0
2026-06-27 19:45:34.789,992.69,992.59,-10.10,4.18,0.00,1.60,-0.34,9.57,-0.00,-0.00,-0.00,0
2026-06-27 19:45:34.799,992.69,992.59,-10.10,4.18,0.00,1.60,-0.34,9.57,-0.00,-0.00,-0.00,0
2026-06-27 19:45:34.809,992.69,992.59,-10.10,4.18,0.00,1.60,-0.32,9.56,-0.00,0.00,0.00,0
2026-06-27 19:45:34.819,992.69,992.59,-10.10,4.18,0.00,1.61,-0.33,9.55,-0.00,0.00,0.00,0
2026-06-27 19:45:34.829,992.69,992.59,-10.10,4.18,0.00,1.60,-0.34,9.55,-0.00,-0.00,0.00,0
2026-06-27 19:45:34.839,992.69,992.59,-10.10,4.18,0.00,1.62,-0.33,9.58,-0.00,-0.00,-0.00,0
2026-06-27 19:45:34.849,992.68,992.63,-5.15,2.99,0.00,1.62,-0.33,9.58,-0.00,-0.00,-0.00,0
2026-06-27 19:45:34.859,992.68,992.63,-5.15,2.99,0.00,1.62,-0.33,9.58,-0.00,-0.00,-0.00,0
2026-06-27 19:45:34.869,992.68,992.63,-5.15,2.99,0.00,1.61,-0.31,9.55,-0.01,-0.00,0.00,0
2026-06-27 19:45:34.879,992.68,992.63,-5.15,2.99,0.00,1.61,-0.31,9.55,-0.01,-0.00,0.00,0
2026-06-27 19:45:34.889,992.68,992.63,-5.15,2.99,0.00,1.59,-0.32,9.53,-0.00,-0.00,0.00,0
2026-06-27 19:45:34.899,992.68,992.63,-5.15,2.99,0.00,1.59,-0.32,9.53,-0.00,-0.00,0.00,0
2026-06-27 19:45:34.909,992.68,992.63,-5.15,2.99,0.00,1.59,-0.32,9.53,-0.00,-0.00,0.00,0
2026-06-27 19:45:34.919,992.68,992.63,-5.15,2.99,0.00,1.59,-0.33,9.59,-0.00,-0.00,-0.00,0
2026-06-27 19:45:34.929,992.68,992.63,-5.15,2.99,0.00,1.59,-0.33,9.59,-0.00,-0.00,-0.00,0
2026-06-27 19:45:34.939,992.68,992.63,-5.15,2.99,0.00,1.59,-0.33,9.59,-0.00,-0.00,-0.00,0
2026-06-27 19:45:34.949,992.68,992.63,-5.15,2.99,0.00,1.61,-0.30,9.58,-0.00,0.00,-0.00,0
2026-06-27 19:45:34.959,992.68,992.63,-5.15,2.99,0.00,1.60,-0.34,9.55,-0.00,-0.00,-0.00,0
2026-06-27 19:45:34.969,992.68,992.63,-5.15,2.99,0.00,1.59,-0.33,9.55,-0.00,-0.00,-0.00,0
2026-06-27 19:45:34.979,992.68,992.63,-5.15,2.99,0.00,1.61,-0.33,9.56,-0.00,-0.00,-0.00,0
2026-06-27 19:45:34.989,992.70,992.63,-7.18,3.53,0.00,1.61,-0.33,9.56,-0.00,-0.00,-0.00,0
2026-06-27 19:45:34.999,992.70,992.63,-7.18,3.53,0.00,1.61,-0.33,9.55,0.00,0.00,-0.00,0
2026-06-27 19:45:35.009,992.70,992.63,-7.18,3.53,0.00,1.61,-0.33,9.55,0.00,0.00,-0.00,0
2026-06-27 19:45:35.019,992.70,992.63,-7.18,3.53,0.00,1.61,-0.33,9.55,0.00,0.00,-0.00,0
2026-06-27 19:45:35.029,992.70,992.63,-7.18,3.53,0.00,1.61,-0.33,9.55,0.00,0.00,-0.00,0
2026-06-27 19:45:35.039,992.70,992.63,-7.18,3.53,0.00,1.61,-0.33,9.55,0.00,0.00,-0.00,0
2026-06-27 19:45:35.049,992.70,992.61,-8.95,3.94,0.00,1.61,-0.33,9.55,0.00,0.00,-0.00,0
2026-06-27 19:45:35.059,992.70,992.61,-8.95,3.94,0.00,1.61,-0.33,9.55,0.00,0.00,-0.00,0
2026-06-27 19:45:35.069,992.70,992.61,-8.95,3.94,0.00,1.61,-0.33,9.55,0.00,0.00,-0.00,0
2026-06-27 19:45:35.079,992.70,992.61,-8.95,3.94,0.00,1.61,-0.33,9.58,-0.00,0.00,-0.00,0
2026-06-27 19:45:35.089,992.70,992.61,-8.95,3.94,0.00,1.61,-0.33,9.58,-0.00,0.00,-0.00,0
2026-06-27 19:45:35.099,992.70,992.61,-8.95,3.94,0.00,1.58,-0.32,9.54,-0.00,-0.00,-0.00,0
2026-06-27 19:45:35.109,992.70,992.61,-8.95,3.94,0.00,1.58,-0.32,9.54,0.00,-0.00,0.00,0
2026-06-27 19:45:35.119,992.70,992.61,-8.95,3.94,0.00,1.59,-0.32,9.54,0.00,0.00,0.00,0
2026-06-27 19:45:35.129,992.70,992.61,-9.13,3.98,0.00,1.62,-0.33,9.55,0.00,0.00,-0.00,0
2026-06-27 19:45:35.139,992.70,992.61,-9.13,3.98,0.00,1.62,-0.33,9.55,0.00,0.00,-0.00,0
2026-06-27 19:45:35.149,992.70,992.61,-9.13,3.98,0.00,1.62,-0.33,9.55,0.00,0.00,-0.00,0
2026-06-27 19:45:35.159,992.70,992.61,-9.13,3.98,0.00,1.61,-0.31,9.55,0.00,0.00,0.00,0
2026-06-27 19:45:35.169,992.70,992.61,-9.13,3.98,0.00,1.61,-0.31,9.55,0.00,0.00,0.00,0
2026-06-27 19:45:35.179,992.70,992.61,-9.13,3.98,0.00,1.61,-0.31,9.55,0.00,0.00,0.00,0
2026-06-27 19:45:35.189,992.70,992.61,-9.13,3.98,0.00,1.61,-0.31,9.55,0.00,0.00,0.00,0
2026-06-27 19:45:35.199,992.70,992.61,-9.13,3.98,0.00,1.61,-0.31,9.55,0.00,0.00,0.00,0
2026-06-27 19:45:35.209,992.70,992.61,-9.13,3.98,0.00,1.61,-0.31,9.55,0.00,0.00,0.00,0
2026-06-27 19:45:35.219,992.70,992.61,-9.13,3.98,0.00,1.61,-0.31,9.55,0.00,0.00,0.00,0
2026-06-27 19:45:35.229,992.70,992.61,-9.13,3.98,0.00,1.61,-0.31,9.55,0.00,0.00,0.00,0
2026-06-27 19:45:35.239,992.70,992.61,-9.64,4.09,0.00,1.61,-0.33,9.56,-0.00,-0.00,-0.00,0
2026-06-27 19:45:35.249,992.70,992.61,-9.64,4.09,0.00,1.60,-0.32,9.57,0.00,0.01,0.00,0
2026-06-27 19:45:35.259,992.70,992.61,-9.64,4.09,0.00,1.60,-0.33,9.55,-0.00,-0.00,0.00,0
2026-06-27 19:45:35.269,992.70,992.61,-9.64,4.09,0.00,1.60,-0.33,9.56,-0.00,0.01,0.00,0
2026-06-27 19:45:35.279,992.70,992.61,-9.01,3.95,0.00,1.60,-0.31,9.59,-0.00,0.01,0.00,0
2026-06-27 19:45:35.289,992.70,992.61,-9.01,3.95,0.00,1.60,-0.31,9.59,-0.00,0.01,0.00,0
2026-06-27 19:45:35.299,992.70,992.61,-9.01,3.95,0.00,1.60,-0.29,9.57,-0.00,-0.00,-0.00,0
2026-06-27 19:45:35.309,992.70,992.61,-9.01,3.95,0.00,1.60,-0.29,9.57,-0.00,-0.00,-0.00,0
2026-06-27 19:45:35.319,992.70,992.61,-9.01,3.95,0.00,1.60,-0.32,9.57,-0.00,-0.00,-0.00,0
2026-06-27 19:45:35.329,992.70,992.61,-9.01,3.95,0.00,1.60,-0.32,9.57,-0.00,-0.00,-0.00,0
2026-06-27 19:45:35.339,992.70,992.61,-9.01,3.95,0.00,1.60,-0.32,9.57,-0.00,-0.00,-0.00,0
2026-06-27 19:45:35.349,992.70,992.61,-9.01,3.95,0.00,1.60,-0.32,9.57,-0.00,-0.00,-0.00,0
2026-06-27 19:45:35.359,992.70,992.61,-9.01,3.95,0.00,1.60,-0.32,9.57,-0.00,-0.00,-0.00,0
2026-06-27 19:45:35.369,992.70,992.61,-9.01,3.95,0.00,1.62,-0.32,9.57,0.00,-0.00,-0.00,0
2026-06-27 19:45:35.379,992.70,992.61,-9.01,3.95,0.00,1.62,-0.32,9.57,0.00,-0.00,-0.00,0
2026-06-27 19:45:35.389,992.70,992.61,-9.01,3.95,0.00,1.61,-0.33,9.56,0.00,0.00,0.00,0
2026-06-27 19:45:35.399,992.70,992.61,-9.01,3.95,0.00,1.62,-0.33,9.58,0.00,0.00,0.00,0
2026-06-27 19:45:35.409,992.70,992.61,-9.01,3.95,0.00,1.60,-0.32,9.56,-0.00,0.00,0.00,0
2026-06-27 19:45:35.419,992.70,992.61,-8.17,3.76,0.00,1.61,-0.30,9.56,-0.00,0.00,-0.00,0
2026-06-27 19:45:35.429,992.67,992.61,-5.45,3.07,0.00,1.62,-0.35,9.57,-0.00,0.00,0.00,0
2026-06-27 19:45:35.439,992.67,992.61,-5.45,3.07,0.00,1.62,-0.35,9.57,-0.00,0.00,0.00,0
2026-06-27 19:45:35.449,992.67,992.61,-5.45,3.07,0.00,1.62,-0.35,9.57,-0.00,0.00,0.00,0
2026-06-27 19:45:35.459,992.67,992.61,-5.45,3.07,0.00,1.60,-0.32,9.56,0.00,0.00,-0.00,0
2026-06-27 19:45:35.469,992.67,992.61,-5.45,3.07,0.00,1.60,-0.32,9.56,0.00,0.00,-0.00,0
2026-06-27 19:45:35.479,992.67,992.61,-5.45,3.07,0.00,1.60,-0.32,9.56,0.00,0.00,-0.00,0
2026-06-27 19:45:35.489,992.67,992.61,-5.45,3.07,0.00,1.60,-0.32,9.56,0.00,0.00,-0.00,0
2026-06-27 19:45:35.499,992.67,992.61,-5.45,3.07,0.00,1.61,-0.31,9.56,0.00,0.00,-0.00,0
2026-06-27 19:45:35.509,992.67,992.61,-5.45,3.07,0.00,1.61,-0.31,9.56,0.00,0.00,-0.00,0
2026-06-27 19:45:35.519,992.67,992.61,-5.45,3.07,0.00,1.61,-0.31,9.56,0.00,0.00,-0.00,0
2026-06-27 19:45:35.529,992.67,992.61,-5.45,3.07,0.00,1.60,-0.31,9.54,0.00,0.00,-0.00,0
2026-06-27 19:45:35.539,992.67,992.61,-5.45,3.07,0.00,1.61,-0.31,9.55,-0.00,-0.00,0.00,0
2026-06-27 19:45:35.549,992.67,992.61,-5.45,3.07,0.00,1.61,-0.31,9.55,-0.00,-0.00,-0.00,0
2026-06-27 19:45:35.559,992.67,992.61,-5.45,3.07,0.00,1.59,-0.31,9.57,-0.00,-0.00,-0.00,0
2026-06-27 19:45:35.569,992.67,992.59,-7.77,3.67,0.00,1.60,-0.32,9.55,0.00,0.00,0.00,0
2026-06-27 19:45:35.579,992.67,992.59,-7.77,3.67,0.00,1.60,-0.32,9.55,0.00,0.00,0.00,0
2026-06-27 19:45:35.589,992.67,992.59,-7.77,3.67,0.00,1.61,-0.34,9.54,-0.00,0.00,-0.00,0
2026-06-27 19:45:35.599,992.67,992.59,-7.77,3.67,0.00,1.61,-0.34,9.54,-0.00,0.00,-0.00,0
2026-06-27 19:45:35.609,992.67,992.59,-7.77,3.67,0.00,1.61,-0.34,9.54,-0.00,0.00,-0.00,0
2026-06-27 19:45:35.619,992.67,992.59,-7.77,3.67,0.00,1.62,-0.33,9.56,0.00,0.00,0.00,0
2026-06-27 19:45:35.629,992.67,992.59,-7.77,3.67,0.00,1.62,-0.33,9.56,0.00,0.00,0.00,0
2026-06-27 19:45:35.639,992.67,992.59,-7.77,3.67,0.00,1.62,-0.33,9.56,0.00,0.00,0.00,0
2026-06-27 19:45:35.649,992.67,992.59,-7.77,3.67,0.00,1.60,-0.32,9.57,0.00,-0.00,-0.00,0
2026-06-27 19:45:35.659,992.67,992.59,-7.77,3.67,0.00,1.60,-0.32,9.57,0.00,-0.00,-0.00,0
2026-06-27 19:45:35.669,992.67,992.59,-7.77,3.67,0.00,1.59,-0.34,9.54,0.00,-0.00,0.00,0
2026-06-27 19:45:35.679,992.67,992.59,-7.77,3.67,0.00,1.59,-0.34,9.54,0.00,-0.00,0.00,0
2026-06-27 19:45:35.689,992.67,992.59,-7.77,3.67,0.00,1.61,-0.31,9.56,-0.00,-0.00,0.00,0
2026-06-27 19:45:35.699,992.67,992.59,-7.77,3.67,0.00,1.61,-0.31,9.55,-0.00,0.00,-0.00,0
2026-06-27 19:45:35.709,992.67,992.59,-7.77,3.67,0.00,1.59,-0.33,9.55,-0.00,0.00,-0.00,0
2026-06-27 19:45:35.719,992.71,992.59,-11.78,4.52,0.00,1.60,-0.32,9.55,-0.00,-0.00,-0.00,0
2026-06-27 19:45:35.729,992.71,992.59,-11.78,4.52,0.00,1.60,-0.32,9.55,-0.00,-0.00,-0.00,0
2026-06-27 19:45:35.739,992.71,992.59,-11.78,4.52,0.00,1.62,-0.32,9.56,0.00,-0.00,0.00,0
2026-06-27 19:45:35.749,992.71,992.59,-11.78,4.52,0.00,1.62,-0.32,9.56,0.00,-0.00,0.00,0
2026-06-27 19:45:35.759,992.71,992.59,-11.78,4.52,0.00,1.62,-0.32,9.56,0.00,-0.00,0.00,0
2026-06-27 19:45:35.769,992.71,992.59,-11.78,4.52,0.00,1.62,-0.32,9.56,0.00,-0.00,0.00,0
2026-06-27 19:45:35.779,992.71,992.59,-11.78,4.52,0.00,1.59,-0.32,9.56,-0.00,0.00,-0.00,0
2026-06-27 19:45:35.789,992.71,992.59,-11.78,4.52,0.00,1.59,-0.32,9.56,-0.00,0.00,-0.00,0
2026-06-27 19:45:35.799,992.71,992.59,-11.78,4.52,0.00,1.59,-0.32,9.56,-0.00,0.00,-0.00,0
2026-06-27 19:45:35.809,992.71,992.59,-11.78,4.52,0.00,1.60,-0.31,9.57,0.00,0.00,0.00,0
2026-06-27 19:45:35.819,992.71,992.59,-11.78,4.52,0.00,1.60,-0.31,9.57,0.00,0.00,0.00,0
2026-06-27 19:45:35.829,992.71,992.59,-11.78,4.52,0.00,1.59,-0.31,9.58,0.00,-0.00,-0.00,0
2026-06-27 19:45:35.839,992.71,992.59,-11.78,4.52,0.00,1.60,-0.30,9.54,-0.00,-0.00,0.00,0
2026-06-27 19:45:35.849,992.71,992.59,-11.78,4.52,0.00,1.59,-0.30,9.57,-0.00,0.00,-0.00,0
2026-06-27 19:45:35.859,992.67,992.59,-7.47,3.60,0.00,1.58,-0.31,9.56,0.00,0.00,-0.00,0
2026-06-27 19:45:35.869,992.67,992.59,-7.47,3.60,0.00,1.60,-0.32,9.55,0.00,-0.00,0.00,0
2026-06-27 19:45:35.879,992.67,992.59,-7.47,3.60,0.00,1.60,-0.32,9.55,0.00,-0.00,0.00,0
2026-06-27 19:45:35.889,992.67,992.59,-7.47,3.60,0.00,1.60,-0.32,9.55,0.00,-0.00,0.00,0
2026-06-27 19:45:35.899,992.67,992.58,-8.73,3.89,0.00,1.60,-0.32,9.55,0.00,-0.00,0.00,0
2026-06-27 19:45:35.909,992.67,992.58,-8.73,3.89,0.00,1.60,-0.32,9.55,0.00,-0.00,0.00,0
2026-06-27 19:45:35.919,992.67,992.58,-8.73,3.89,0.00,1.60,-0.32,9.55,0.00,-0.00,0.00,0
2026-06-27 19:45:35.929,992.67,992.58,-8.73,3.89,0.00,1.60,-0.32,9.55,0.00,-0.00,0.00,0
2026-06-27 19:45:35.939,992.67,992.58,-8.73,3.89,0.00,1.61,-0.30,9.56,-0.00,-0.00,0.00,0
2026-06-27 19:45:35.949,992.67,992.58,-8.73,3.89,0.00,1.61,-0.30,9.56,-0.00,-0.00,0.00,0
2026-06-27 19:45:35.959,992.67,992.58,-8.73,3.89,0.00,1.61,-0.30,9.56,-0.00,-0.00,0.00,0
2026-06-27 19:45:35.969,992.67,992.58,-8.73,3.89,0.00,1.63,-0.32,9.56,0.00,-0.00,-0.00,0
2026-06-27 19:45:35.979,992.67,992.58,-8.73,3.89,0.00,1.59,-0.32,9.55,0.00,-0.00,0.00,0
2026-06-27 19:45:35.989,992.67,992.58,-8.73,3.89,0.00,1.60,-0.33,9.57,0.00,-0.00,0.00,0
2026-06-27 19:45:35.999,992.69,992.58,-10.75,4.32,0.00,1.60,-0.32,9.55,0.00,-0.00,0.00,0
2026-06-27 19:45:36.009,992.69,992.58,-10.75,4.32,0.00,1.60,-0.32,9.55,0.00,-0.00,0.00,0
2026-06-27 19:45:36.019,992.69,992.58,-10.75,4.32,0.00,1.60,-0.32,9.55,0.00,-0.00,0.00,0
2026-06-27 19:45:36.029,992.69,992.58,-10.75,4.32,0.00,1.60,-0.32,9.55,0.00,-0.00,0.00,0
2026-06-27 19:45:36.039,992.69,992.58,-10.75,4.32,0.00,1.60,-0.32,9.55,0.00,-0.00,0.00,0
2026-06-27 19:45:36.049,992.69,992.58,-10.75,4.32,0.00,1.59,-0.33,9.57,-0.00,0.00,-0.00,0
2026-06-27 19:45:36.059,992.69,992.58,-10.75,4.32,0.00,1.59,-0.33,9.57,-0.00,0.00,-0.00,0
2026-06-27 19:45:36.069,992.69,992.58,-10.75,4.32,0.00,1.59,-0.33,9.57,-0.00,0.00,-0.00,0
2026-06-27 19:45:36.079,992.69,992.58,-10.75,4.32,0.00,1.60,-0.32,9.54,-0.00,0.00,-0.00,0
2026-06-27 19:45:36.089,992.69,992.58,-10.75,4.32,0.00,1.60,-0.32,9.54,-0.00,0.00,-0.00,0
2026-06-27 19:45:36.099,992.69,992.58,-10.75,4.32,0.00,1.60,-0.32,9.54,-0.00,0.00,-0.00,0
2026-06-27 19:45:36.109,992.69,992.58,-10.75,4.32,0.00,1.62,-0.36,9.58,-0.00,0.00,-0.00,0
2026-06-27 19:45:36.119,992.69,992.58,-10.75,4.32,0.00,1.59,-0.33,9.54,0.00,0.00,-0.00,0
2026-06-27 19:45:36.129,992.69,992.58,-10.75,4.32,0.00,1.59,-0.31,9.58,0.00,-0.00,0.00,0
2026-06-27 19:45:36.139,992.69,992.58,-10.52,4.27,0.00,1.60,-0.31,9.56,0.00,-0.00,0.00,0
2026-06-27 19:45:36.149,992.69,992.58,-11.22,4.41,0.00,1.58,-0.32,9.57,-0.00,0.00,-0.00,0
2026-06-27 19:45:36.159,992.69,992.58,-11.22,4.41,0.00,1.58,-0.32,9.57,-0.00,0.00,-0.00,0
2026-06-27 19:45:36.169,992.69,992.58,-11.22,4.41,0.00,1.58,-0.32,9.57,-0.00,0.00,-0.00,0
2026-06-27 19:45:36.179,992.69,992.58,-11.22,4.41,0.00,1.60,-0.32,9.55,0.00,0.00,0.00,0
2026-06-27 19:45:36.189,992.69,992.58,-11.22,4.41,0.00,1.60,-0.32,9.55,0.00,0.00,0.00,0
2026-06-27 19:45:36.199,992.69,992.58,-11.22,4.41,0.00,1.60,-0.33,9.57,-0.00,-0.00,-0.00,0
2026-06-27 19:45:36.209,992.69,992.58,-11.22,4.41,0.00,1.60,-0.33,9.57,-0.00,-0.00,-0.00,0
2026-06-27 19:45:36.219,992.69,992.58,-11.22,4.41,0.00,1.60,-0.33,9.57,-0.00,-0.00,-0.00,0
2026-06-27 19:45:36.229,992.69,992.58,-11.22,4.41,0.00,1.60,-0.33,9.57,-0.00,-0.00,-0.00,0
2026-06-27 19:45:36.239,992.69,992.58,-11.22,4.41,0.00,1.62,-0.30,9.57,0.00,0.00,-0.00,0
2026-06-27 19:45:36.249,992.69,992.58,-11.22,4.41,0.00,1.62,-0.30,9.57,0.00,0.00,-0.00,0
2026-06-27 19:45:36.259,992.69,992.58,-11.22,4.41,0.00,1.60,-0.32,9.57,-0.00,-0.00,-0.00,0
2026-06-27 19:45:36.269,992.69,992.58,-11.22,4.41,0.00,1.61,-0.35,9.55,-0.00,-0.00,-0.00,0
2026-06-27 19:45:36.279,992.69,992.58,-11.22,4.41,0.00,1.60,-0.33,9.55,-0.00,-0.00,-0.00,0
2026-06-27 19:45:36.289,992.69,992.57,-12.38,4.63,0.00,1.61,-0.31,9.57,-0.00,-0.00,-0.00,0
2026-06-27 19:45:36.299,992.67,992.57,-10.49,4.26,0.00,1.57,-0.32,9.56,-0.00,0.00,0.00,0
2026-06-27 19:45:36.309,992.67,992.57,-10.49,4.26,0.00,1.57,-0.32,9.56,-0.00,0.00,0.00,0
2026-06-27 19:45:36.319,992.67,992.57,-10.49,4.26,0.00,1.61,-0.30,9.57,-0.00,-0.00,-0.00,0
2026-06-27 19:45:36.329,992.67,992.57,-10.49,4.26,0.00,1.61,-0.30,9.57,-0.00,-0.00,-0.00,0
2026-06-27 19:45:36.339,992.67,992.57,-10.49,4.26,0.00,1.61,-0.30,9.57,-0.00,-0.00,-0.00,0
2026-06-27 19:45:36.349,992.67,992.57,-10.49,4.26,0.00,1.60,-0.29,9.56,-0.00,0.00,0.00,0
2026-06-27 19:45:36.359,992.67,992.57,-10.49,4.26,0.00,1.60,-0.29,9.56,-0.00,0.00,0.00,0
2026-06-27 19:45:36.369,992.67,992.57,-10.49,4.26,0.00,1.60,-0.29,9.56,-0.00,0.00,0.00,0
2026-06-27 19:45:36.379,992.67,992.57,-10.49,4.26,0.00,1.60,-0.33,9.56,-0.00,-0.00,0.00,0
2026-06-27 19:45:36.389,992.67,992.57,-10.49,4.26,0.00,1.60,-0.33,9.56,-0.00,-0.00,0.00,0
2026-06-27 19:45:36.399,992.67,992.57,-10.49,4.26,0.00,1.60,-0.33,9.56,-0.00,-0.00,0.00,0
2026-06-27 19:45:36.409,992.67,992.57,-10.49,4.26,0.00,1.59,-0.32,9.60,-0.00,-0.00,-0.00,0
2026-06-27 19:45:36.419,992.67,992.57,-10.49,4.26,0.00,1.61,-0.33,9.56,-0.00,-0.00,0.00,0
2026-06-27 19:45:36.429,992.67,992.57,-10.49,4.26,0.00,1.60,-0.32,9.54,0.00,-0.00,-0.00,0
2026-06-27 19:45:36.439,992.67,992.57,-10.49,4.26,0.00,1.60,-0.32,9.57,-0.00,0.00,0.00,0
2026-06-27 19:45:36.449,992.67,992.59,-7.73,3.66,0.00,1.60,-0.35,9.57,-0.00,0.00,0.00,0
2026-06-27 19:45:36.459,992.67,992.59,-7.73,3.66,0.00,1.60,-0.35,9.57,-0.00,0.00,0.00,0
2026-06-27 19:45:36.469,992.67,992.59,-7.73,3.66,0.00,1.60,-0.35,9.57,-0.00,0.00,0.00,0
2026-06-27 19:45:36.479,992.67,992.59,-7.73,3.66,0.00,1.60,-0.35,9.57,-0.00,0.00,0.00,0
2026-06-27 19:45:36.489,992.67,992.59,-7.73,3.66,0.00,1.60,-0.35,9.57,-0.00,0.00,0.00,0
2026-06-27 19:45:36.499,992.67,992.59,-7.73,3.66,0.00,1.59,-0.29,9.56,0.00,-0.00,-0.00,0
2026-06-27 19:45:36.509,992.67,992.59,-7.73,3.66,0.00,1.59,-0.29,9.56,0.00,-0.00,-0.00,0
2026-06-27 19:45:36.519,992.67,992.59,-7.73,3.66,0.00,1.59,-0.29,9.56,0.00,-0.00,-0.00,0
2026-06-27 19:45:36.529,992.67,992.59,-7.73,3.66,0.00,1.61,-0.32,9.56,0.00,-0.00,0.00,0
2026-06-27 19:45:36.539,992.67,992.59,-7.73,3.66,0.00,1.61,-0.32,9.56,0.00,-0.00,0.00,0
2026-06-27 19:45:36.549,992.67,992.59,-7.73,3.66,0.00,1.61,-0.32,9.56,0.00,-0.00,0.00,0
2026-06-27 19:45:36.559,992.67,992.59,-7.73,3.66,0.00,1.60,-0.33,9.55,0.00,0.00,-0.00,0
2026-06-27 19:45:36.569,992.67,992.59,-7.73,3.66,0.00,1.61,-0.33,9.56,0.00,0.00,0.00,0
2026-06-27 19:45:36.579,992.67,992.59,-7.73,3.66,0.00,1.62,-0.33,9.57,0.00,-0.00,-0.00,0
2026-06-27 19:45:36.589,992.67,992.59,-7.73,3.66,0.00,1.61,-0.31,9.55,0.00,-0.00,-0.00,0
2026-06-27 19:45:36.599,992.67,992.63,-4.52,2.80,0.00,1.59,-0.33,9.57,0.00,-0.00,-0.00,0
2026-06-27 19:45:36.609,992.69,992.63,-6.46,3.35,0.00,1.59,-0.33,9.57,0.00,-0.00,-0.00,0
2026-06-27 19:45:36.619,992.69,992.63,-6.46,3.35,0.00,1.59,-0.33,9.57,0.00,-0.00,-0.00,0
2026-06-27 19:45:36.629,992.69,992.63,-6.46,3.35,0.00,1.60,-0.29,9.58,0.00,0.00,-0.00,0
2026-06-27 19:45:36.639,992.69,992.63,-6.46,3.35,0.00,1.60,-0.29,9.58,0.00,0.00,-0.00,0
2026-06-27 19:45:36.649,992.69,992.63,-6.46,3.35,0.00,1.60,-0.29,9.58,0.00,0.00,-0.00,0
2026-06-27 19:45:36.659,992.69,992.63,-6.46,3.35,0.00,1.60,-0.31,9.57,0.00,-0.00,-0.00,0
2026-06-27 19:45:36.669,992.69,992.63,-6.46,3.35,0.00,1.60,-0.31,9.57,0.00,-0.00,-0.00,0
2026-06-27 19:45:36.679,992.69,992.63,-6.46,3.35,0.00,1.60,-0.31,9.57,0.00,-0.00,-0.00,0
2026-06-27 19:45:36.689,992.69,992.63,-6.46,3.35,0.00,1.60,-0.30,9.58,0.00,-0.00,0.00,0
2026-06-27 19:45:36.699,992.69,992.63,-6.46,3.35,0.00,1.60,-0.30,9.58,0.00,-0.00,0.00,0
2026-06-27 19:45:36.709,992.69,992.63,-6.46,3.35,0.00,1.61,-0.31,9.57,0.00,-0.00,0.00,0
2026-06-27 19:45:36.719,992.69,992.63,-6.46,3.35,0.00,1.61,-0.32,9.57,0.00,-0.00,0.00,0
2026-06-27 19:45:36.729,992.69,992.63,-6.46,3.35,0.00,1.60,-0.32,9.54,-0.00,-0.00,-0.00,0
2026-06-27 19:45:36.739,992.69,992.63,-6.46,3.35,0.00,1.59,-0.31,9.57,-0.00,0.00,-0.00,0
2026-06-27 19:45:36.749,992.71,992.63,-8.60,3.86,0.00,1.59,-0.31,9.57,-0.00,0.00,-0.00,0
2026-06-27 19:45:36.759,992.71,992.63,-8.60,3.86,0.00,1.59,-0.31,9.57,-0.00,0.00,-0.00,0
2026-06-27 19:45:36.769,992.71,992.63,-8.60,3.86,0.00,1.61,-0.31,9.55,-0.00,-0.00,-0.00,0
2026-06-27 19:45:36.779,992.71,992.63,-8.60,3.86,0.00,1.61,-0.31,9.55,-0.00,-0.00,-0.00,0
2026-06-27 19:45:36.789,992.71,992.63,-8.60,3.86,0.00,1.61,-0.31,9.55,-0.00,-0.00,-0.00,0
2026-06-27 19:45:36.799,992.71,992.63,-8.60,3.86,0.00,1.62,-0.31,9.55,0.00,0.00,0.00,0
2026-06-27 19:45:36.809,992.71,992.63,-8.60,3.86,0.00,1.62,-0.31,9.55,0.00,0.00,0.00,0
2026-06-27 19:45:36.819,992.71,992.63,-8.60,3.86,0.00,1.62,-0.31,9.55,0.00,0.00,0.00,0
2026-06-27 19:45:36.829,992.71,992.63,-8.60,3.86,0.00,1.62,-0.31,9.55,0.00,0.00,0.00,0
2026-06-27 19:45:36.839,992.71,992.63,-8.60,3.86,0.00,1.62,-0.31,9.55,0.00,0.00,0.00,0
2026-06-27 19:45:36.849,992.71,992.60,-10.79,4.32,0.00,1.61,-0.30,9.57,-0.00,0.00,0.00,0
2026-06-27 19:45:36.859,992.71,992.60,-10.79,4.32,0.00,1.59,-0.32,9.56,-0.00,0.00,0.00,0
2026-06-27 19:45:36.869,992.71,992.60,-10.79,4.32,0.00,1.60,-0.34,9.55,-0.00,0.00,-0.00,0
2026-06-27 19:45:36.879,992.71,992.60,-10.79,4.32,0.00,1.59,-0.30,9.57,0.00,0.01,-0.00,0
2026-06-27 19:45:36.889,992.65,992.60,-4.91,2.92,0.00,1.59,-0.30,9.57,0.00,0.01,-0.00,0
2026-06-27 19:45:36.899,992.65,992.60,-4.91,2.92,0.00,1.59,-0.30,9.57,0.00,0.01,-0.00,0
2026-06-27 19:45:36.909,992.65,992.60,-4.91,2.92,0.00,1.59,-0.30,9.57,0.00,0.01,-0.00,0
2026-06-27 19:45:36.919,992.65,992.60,-4.91,2.92,0.00,1.61,-0.31,9.55,0.00,0.00,-0.00,0
2026-06-27 19:45:36.929,992.65,992.60,-4.91,2.92,0.00,1.61,-0.31,9.55,0.00,0.00,-0.00,0
2026-06-27 19:45:36.939,992.65,992.60,-4.91,2.92,0.00,1.61,-0.31,9.55,0.00,0.00,-0.00,0
2026-06-27 19:45:36.949,992.65,992.60,-4.91,2.92,0.00,1.61,-0.31,9.55,0.00,0.00,-0.00,0
2026-06-27 19:45:36.959,992.65,992.60,-4.91,2.92,0.00,1.61,-0.32,9.54,0.00,0.00,0.00,0
2026-06-27 19:45:36.969,992.65,992.60,-4.91,2.92,0.00,1.61,-0.32,9.54,0.00,0.00,0.00,0
2026-06-27 19:45:36.979,992.65,992.60,-4.91,2.92,0.00,1.61,-0.32,9.54,0.00,0.00,0.00,0
2026-06-27 19:45:36.989,992.65,992.60,-4.91,2.92,0.00,1.62,-0.33,9.57,0.00,0.00,0.00,0
2026-06-27 19:45:36.999,992.65,992.60,-4.91,2.92,0.00,1.60,-0.33,9.57,0.00,0.00,-0.00,0
2026-06-27 19:45:37.009,992.65,992.60,-4.91,2.92,0.00,1.63,-0.32,9.56,0.00,-0.00,0.00,0
2026-06-27 19:45:37.019,992.65,992.60,-4.91,2.92,0.00,1.59,-0.33,9.55,0.00,-0.00,-0.00,0
2026-06-27 19:45:37.029,992.70,992.60,-9.88,4.14,0.00,1.59,-0.33,9.55,0.00,-0.00,-0.00,0
2026-06-27 19:45:37.039,992.70,992.60,-9.88,4.14,0.00,1.59,-0.33,9.57,-0.00,-0.00,0.00,0
2026-06-27 19:45:37.049,992.70,992.60,-9.88,4.14,0.00,1.59,-0.33,9.57,-0.00,-0.00,0.00,0
2026-06-27 19:45:37.059,992.70,992.60,-9.88,4.14,0.00,1.59,-0.33,9.57,-0.00,-0.00,0.00,0
2026-06-27 19:45:37.069,992.70,992.60,-9.88,4.14,0.00,1.59,-0.33,9.57,-0.00,-0.00,0.00,0
2026-06-27 19:45:37.079,992.70,992.60,-9.88,4.14,0.00,1.62,-0.35,9.59,0.00,-0.00,0.00,0
2026-06-27 19:45:37.089,992.70,992.60,-9.88,4.14,0.00,1.62,-0.35,9.59,0.00,-0.00,0.00,0
2026-06-27 19:45:37.099,992.70,992.60,-9.88,4.14,0.00,1.61,-0.32,9.56,0.00,-0.00,-0.00,0
2026-06-27 19:45:37.109,992.70,992.60,-9.88,4.14,0.00,1.61,-0.32,9.56,0.00,-0.00,-0.00,0
2026-06-27 19:45:37.119,992.70,992.60,-9.88,4.14,0.00,1.61,-0.32,9.56,0.00,-0.00,-0.00,0
2026-06-27 19:45:37.129,992.70,992.60,-9.88,4.14,0.00,1.62,-0.32,9.55,0.00,0.00,0.00,0
2026-06-27 19:45:37.139,992.70,992.60,-9.88,4.14,0.00,1.60,-0.32,9.56,0.00,-0.00,0.00,0
2026-06-27 19:45:37.149,992.70,992.60,-9.88,4.14,0.00,1.61,-0.37,9.56,0.00,0.00,0.00,0
2026-06-27 19:45:37.159,992.70,992.60,-9.88,4.14,0.00,1.61,-0.33,9.55,0.00,-0.00,-0.00,0
2026-06-27 19:45:37.169,992.70,992.60,-10.48,4.26,0.00,1.61,-0.33,9.55,0.00,-0.00,-0.00,0
2026-06-27 19:45:37.179,992.70,992.60,-10.48,4.26,0.00,1.61,-0.33,9.57,0.00,-0.00,0.00,0
2026-06-27 19:45:37.189,992.70,992.60,-10.48,4.26,0.00,1.61,-0.33,9.57,0.00,-0.00,0.00,0
2026-06-27 19:45:37.199,992.70,992.59,-10.90,4.35,0.00,1.61,-0.33,9.57,0.00,-0.00,0.00,0
2026-06-27 19:45:37.209,992.70,992.59,-10.90,4.35,0.00,1.61,-0.33,9.57,0.00,-0.00,0.00,0
2026-06-27 19:45:37.219,992.70,992.59,-10.90,4.35,0.00,1.61,-0.32,9.56,0.00,-0.00,0.00,0
2026-06-27 19:45:37.229,992.70,992.59,-10.90,4.35,0.00,1.61,-0.32,9.56,0.00,-0.00,0.00,0
2026-06-27 19:45:37.239,992.70,992.59,-10.90,4.35,0.00,1.61,-0.32,9.56,0.00,-0.00,0.00,0
2026-06-27 19:45:37.249,992.70,992.59,-10.90,4.35,0.00,1.61,-0.32,9.56,0.00,-0.00,0.00,0
2026-06-27 19:45:37.259,992.70,992.59,-10.90,4.35,0.00,1.62,-0.32,9.56,-0.00,-0.00,0.00,0
2026-06-27 19:45:37.269,992.70,992.59,-10.90,4.35,0.00,1.61,-0.31,9.56,0.00,0.00,0.00,0
2026-06-27 19:45:37.279,992.70,992.59,-10.90,4.35,0.00,1.63,-0.33,9.55,-0.00,-0.00,-0.00,0
2026-06-27 19:45:37.289,992.70,992.59,-10.90,4.35,0.00,1.59,-0.33,9.59,-0.00,0.00,-0.00,0
2026-06-27 19:45:37.299,992.70,992.59,-10.90,4.35,0.00,1.61,-0.31,9.56,-0.00,0.00,-0.00,0
2026-06-27 19:45:37.309,992.70,992.59,-10.24,4.21,0.00,1.61,-0.31,9.56,-0.00,0.00,-0.00,0
2026-06-27 19:45:37.319,992.70,992.59,-10.24,4.21,0.00,1.61,-0.31,9.56,-0.00,0.00,-0.00,0
2026-06-27 19:45:37.329,992.70,992.59,-10.24,4.21,0.00,1.60,-0.32,9.56,0.00,-0.00,0.00,0
2026-06-27 19:45:37.339,992.70,992.59,-10.24,4.21,0.00,1.60,-0.32,9.56,0.00,-0.00,0.00,0
2026-06-27 19:45:37.349,992.70,992.59,-10.24,4.21,0.00,1.60,-0.32,9.56,0.00,-0.00,0.00,0
2026-06-27 19:45:37.359,992.70,992.59,-10.24,4.21,0.00,1.60,-0.32,9.56,0.00,-0.00,0.00,0
2026-06-27 19:45:37.369,992.70,992.59,-10.24,4.21,0.00,1.60,-0.32,9.56,0.00,-0.00,0.00,0
2026-06-27 19:45:37.379,992.70,992.59,-10.24,4.21,0.00,1.60,-0.32,9.56,0.00,-0.00,0.00,0
2026-06-27 19:45:37.389,992.70,992.59,-10.24,4.21,0.00,1.60,-0.32,9.56,0.00,-0.00,0.00,0
2026-06-27 19:45:37.399,992.70,992.59,-10.24,4.21,0.00,1.60,-0.32,9.56,0.00,-0.00,0.00,0
2026-06-27 19:45:37.409,992.70,992.59,-10.24,4.21,0.00,1.63,-0.29,9.57,0.00,-0.00,0.00,0
2026-06-27 19:45:37.419,992.70,992.62,-8.02,3.73,0.00,1.59,-0.29,9.55,0.00,-0.00,-0.00,0
2026-06-27 19:45:37.429,992.70,992.62,-8.02,3.73,0.00,1.61,-0.35,9.58,0.00,-0.00,-0.00,0
2026-06-27 19:45:37.439,992.70,992.62,-8.02,3.73,0.00,1.60,-0.34,9.58,-0.00,0.00,-0.00,0
2026-06-27 19:45:37.449,992.70,992.62,-8.02,3.73,0.00,1.60,-0.32,9.56,-0.00,0.00,-0.00,0
2026-06-27 19:45:37.459,992.66,992.62,-4.71,2.86,0.00,1.60,-0.32,9.56,-0.00,0.00,-0.00,0
2026-06-27 19:45:37.469,992.66,992.62,-4.71,2.86,0.00,1.60,-0.31,9.55,-0.00,0.00,0.00,0
2026-06-27 19:45:37.479,992.66,992.62,-4.71,2.86,0.00,1.60,-0.31,9.55,-0.00,0.00,0.00,0
2026-06-27 19:45:37.489,992.66,992.62,-4.71,2.86,0.00,1.60,-0.31,9.55,-0.00,0.00,0.00,0
2026-06-27 19:45:37.499,992.66,992.62,-4.71,2.86,0.00,1.60,-0.33,9.56,-0.00,-0.00,0.00,0
2026-06-27 19:45:37.509,992.66,992.62,-4.71,2.86,0.00,1.60,-0.33,9.56,-0.00,-0.00,0.00,0
2026-06-27 19:45:37.519,992.66,992.62,-4.71,2.86,0.00,1.60,-0.33,9.56,-0.00,-0.00,0.00,0
2026-06-27 19:45:37.529,992.66,992.62,-4.71,2.86,0.00,1.60,-0.33,9.56,-0.00,-0.00,0.00,0
2026-06-27 19:45:37.539,992.66,992.62,-4.71,2.86,0.00,1.59,-0.32,9.57,-0.00,-0.00,-0.00,0
2026-06-27 19:45:37.549,992.66,992.62,-4.71,2.86,0.00,1.59,-0.32,9.57,-0.00,-0.00,-0.00,0
2026-06-27 19:45:37.559,992.66,992.62,-4.71,2.86,0.00,1.60,-0.32,9.56,0.00,-0.00,-0.00,0
2026-06-27 19:45:37.569,992.66,992.62,-4.71,2.86,0.00,1.60,-0.32,9.56,0.00,0.00,0.00,0
2026-06-27 19:45:37.579,992.66,992.62,-4.71,2.86,0.00,1.59,-0.29,9.57,0.00,0.00,-0.00,0
2026-06-27 19:45:37.589,992.66,992.62,-4.71,2.86,0.00,1.61,-0.32,9.57,-0.00,-0.00,0.00,0
2026-06-27 19:45:37.599,992.67,992.60,-7.14,3.52,0.00,1.61,-0.32,9.57,-0.00,-0.00,0.00,0
2026-06-27 19:45:37.609,992.67,992.60,-7.14,3.52,0.00,1.61,-0.32,9.57,-0.00,-0.00,0.00,0
2026-06-27 19:45:37.619,992.67,992.60,-7.14,3.52,0.00,1.61,-0.32,9.56,0.00,0.00,0.00,0
2026-06-27 19:45:37.629,992.67,992.60,-7.14,3.52,0.00,1.61,-0.32,9.56,0.00,0.00,0.00,0
2026-06-27 19:45:37.639,992.67,992.60,-7.14,3.52,0.00,1.61,-0.32,9.56,0.00,0.00,0.00,0
2026-06-27 19:45:37.649,992.67,992.60,-7.14,3.52,0.00,1.61,-0.32,9.56,0.00,0.00,0.00,0
2026-06-27 19:45:37.659,992.67,992.60,-7.14,3.52,0.00,1.61,-0.32,9.56,0.00,0.00,0.00,0
2026-06-27 19:45:37.669,992.67,992.60,-7.14,3.52,0.00,1.61,-0.31,9.59,-0.00,-0.00,-0.00,0
2026-06-27 19:45:37.679,992.67,992.60,-7.14,3.52,0.00,1.61,-0.31,9.59,-0.00,-0.00,-0.00,0
2026-06-27 19:45:37.689,992.67,992.60,-7.14,3.52,0.00,1.61,-0.31,9.59,-0.00,-0.00,-0.00,0
2026-06-27 19:45:37.699,992.67,992.60,-7.14,3.52,0.00,1.60,-0.34,9.57,0.00,-0.00,-0.00,0
2026-06-27 19:45:37.709,992.67,992.60,-7.14,3.52,0.00,1.61,-0.32,9.56,0.00,0.00,0.00,0
2026-06-27 19:45:37.719,992.67,992.60,-7.14,3.52,0.00,1.59,-0.31,9.55,-0.00,0.00,-0.00,0
2026-06-27 19:45:37.729,992.67,992.60,-7.14,3.52,0.00,1.61,-0.34,9.57,-0.00,-0.00,-0.00,0
2026-06-27 19:45:37.739,992.70,992.60,-9.72,4.10,0.00,1.61,-0.34,9.57,-0.00,-0.00,-0.00,0
2026-06-27 19:45:37.749,992.70,992.60,-9.72,4.10,0.00,1.59,-0.30,9.59,0.00,0.00,0.00,0
2026-06-27 19:45:37.759,992.70,992.60,-9.72,4.10,0.00,1.59,-0.30,9.59,0.00,0.00,0.00,0
2026-06-27 19:45:37.769,992.70,992.60,-9.72,4.10,0.00,1.59,-0.30,9.59,0.00,0.00,0.00,0
2026-06-27 19:45:37.779,992.70,992.60,-9.72,4.10,0.00,1.59,-0.30,9.59,0.00,0.00,0.00,0
2026-06-27 19:45:37.789,992.70,992.59,-10.88,4.34,0.00,1.59,-0.30,9.59,0.00,0.00,0.00,0
2026-06-27 19:45:37.799,992.70,992.59,-10.88,4.34,0.00,1.61,-0.31,9.57,0.00,-0.00,-0.00,0
2026-06-27 19:45:37.809,992.70,992.59,-10.88,4.34,0.00,1.61,-0.31,9.57,0.00,-0.00,-0.00,0
2026-06-27 19:45:37.819,992.70,992.59,-10.88,4.34,0.00,1.61,-0.31,9.57,0.00,-0.00,-0.00,0
2026-06-27 19:45:37.829,992.70,992.59,-10.88,4.34,0.00,1.60,-0.32,9.55,-0.00,-0.00,-0.00,0
2026-06-27 19:45:37.839,992.70,992.59,-10.88,4.34,0.00,1.60,-0.32,9.55,-0.00,-0.00,-0.00,0
2026-06-27 19:45:37.849,992.70,992.59,-10.88,4.34,0.00,1.60,-0.31,9.58,0.00,-0.00,-0.00,0
2026-06-27 19:45:37.859,992.70,992.59,-10.88,4.34,0.00,1.60,-0.32,9.57,0.00,-0.00,-0.00,0
2026-06-27 19:45:37.869,992.70,992.59,-10.88,4.34,0.00,1.60,-0.33,9.54,-0.00,-0.00,0.00,0
2026-06-27 19:45:37.879,992.72,992.59,-12.72,4.69,0.00,1.60,-0.33,9.54,-0.00,-0.00,0.00,0
2026-06-27 19:45:37.889,992.72,992.59,-12.72,4.69,0.00,1.60,-0.33,9.54,-0.00,-0.00,0.00,0
2026-06-27 19:45:37.899,992.72,992.59,-12.72,4.69,0.00,1.60,-0.33,9.54,-0.00,-0.00,0.00,0
2026-06-27 19:45:37.909,992.72,992.59,-12.72,4.69,0.00,1.61,-0.32,9.55,-0.00,-0.00,0.00,0
2026-06-27 19:45:37.919,992.72,992.59,-12.72,4.69,0.00,1.61,-0.32,9.55,-0.00,-0.00,0.00,0
2026-06-27 19:45:37.929,992.72,992.59,-12.72,4.69,0.00,1.61,-0.32,9.55,-0.00,-0.00,0.00,0
2026-06-27 19:45:37.939,992.72,992.59,-12.72,4.69,0.00,1.61,-0.32,9.55,-0.00,-0.00,0.00,0
2026-06-27 19:45:37.949,992.72,992.59,-12.72,4.69,0.00,1.61,-0.32,9.55,-0.00,-0.00,0.00,0
2026-06-27 19:45:37.959,992.72,992.59,-12.72,4.69,0.00,1.60,-0.32,9.55,0.00,0.00,0.00,0
2026-06-27 19:45:37.969,992.72,992.59,-12.72,4.69,0.00,1.60,-0.32,9.55,0.00,0.00,0.00,0
2026-06-27 19:45:37.979,992.72,992.59,-12.72,4.69,0.00,1.58,-0.32,9.57,0.00,-0.00,0.00,0
2026-06-27 19:45:37.989,992.72,992.59,-12.72,4.69,0.00,1.58,-0.35,9.56,-0.00,0.00,0.00,0
2026-06-27 19:45:37.999,992.72,992.59,-12.72,4.69,0.00,1.59,-0.33,9.56,0.00,-0.00,0.00,0
2026-06-27 19:45:38.009,992.72,992.59,-12.72,4.69,0.00,1.61,-0.33,9.58,-0.00,-0.00,0.00,0
2026-06-27 19:45:38.019,992.66,992.61,-5.28,3.02,0.00,1.61,-0.33,9.58,-0.00,-0.00,0.00,0
2026-06-27 19:45:38.029,992.66,992.61,-5.28,3.02,0.00,1.61,-0.33,9.58,-0.00,-0.00,0.00,0
2026-06-27 19:45:38.039,992.66,992.61,-5.28,3.02,0.00,1.61,-0.33,9.58,-0.00,-0.00,0.00,0
2026-06-27 19:45:38.049,992.66,992.61,-5.28,3.02,0.00,1.61,-0.31,9.57,-0.00,-0.00,0.00,0
2026-06-27 19:45:38.059,992.66,992.61,-5.28,3.02,0.00,1.61,-0.31,9.57,-0.00,-0.00,0.00,0
2026-06-27 19:45:38.069,992.66,992.61,-5.28,3.02,0.00,1.61,-0.31,9.57,-0.00,-0.00,0.00,0
2026-06-27 19:45:38.079,992.66,992.61,-5.28,3.02,0.00,1.61,-0.31,9.57,-0.00,-0.00,0.00,0
2026-06-27 19:45:38.089,992.66,992.61,-5.28,3.02,0.00,1.61,-0.31,9.57,-0.00,-0.00,0.00,0
2026-06-27 19:45:38.099,992.66,992.61,-5.28,3.02,0.00,1.61,-0.31,9.57,-0.00,-0.00,0.00,0
2026-06-27 19:45:38.109,992.66,992.61,-5.28,3.02,0.00,1.61,-0.31,9.57,-0.00,-0.00,0.00,0
2026-06-27 19:45:38.119,992.66,992.61,-5.28,3.02,0.00,1.60,-0.34,9.54,-0.00,-0.00,-0.00,0
2026-06-27 19:45:38.129,992.66,992.61,-5.28,3.02,0.00,1.60,-0.32,9.57,-0.00,0.00,0.00,0
2026-06-27 19:45:38.139,992.66,992.61,-5.28,3.02,0.00,1.60,-0.32,9.57,-0.00,0.00,0.00,0
2026-06-27 19:45:38.149,992.66,992.61,-5.28,3.02,0.00,1.60,-0.32,9.56,-0.00,0.00,-0.00,0
2026-06-27 19:45:38.159,992.66,992.61,-5.28,3.02,0.00,1.61,-0.30,9.55,-0.00,-0.00,0.00,0
2026-06-27 19:45:38.169,992.69,992.61,-8.20,3.77,0.00,1.61,-0.30,9.55,-0.00,-0.00,0.00,0
2026-06-27 19:45:38.179,992.69,992.61,-8.20,3.77,0.00,1.60,-0.31,9.56,0.00,0.00,0.00,0
2026-06-27 19:45:38.189,992.69,992.61,-8.20,3.77,0.00,1.60,-0.31,9.56,0.00,0.00,0.00,0
2026-06-27 19:45:38.199,992.69,992.61,-8.20,3.77,0.00,1.61,-0.33,9.58,-0.00,0.00,-0.00,0
2026-06-27 19:45:38.209,992.69,992.61,-8.20,3.77,0.00,1.61,-0.33,9.58,-0.00,0.00,-0.00,0
2026-06-27 19:45:38.219,992.69,992.61,-8.20,3.77,0.00,1.61,-0.33,9.58,-0.00,0.00,-0.00,0
2026-06-27 19:45:38.229,992.69,992.61,-8.20,3.77,0.00,1.61,-0.33,9.58,-0.00,0.00,-0.00,0
2026-06-27 19:45:38.239,992.69,992.61,-8.20,3.77,0.00,1.61,-0.31,9.55,0.00,0.00,0.00,0
2026-06-27 19:45:38.249,992.69,992.61,-8.20,3.77,0.00,1.61,-0.31,9.55,0.00,0.00,0.00,0
2026-06-27 19:45:38.259,992.69,992.61,-8.20,3.77,0.00,1.61,-0.31,9.55,0.00,0.00,0.00,0
2026-06-27 19:45:38.269,992.69,992.61,-8.20,3.77,0.00,1.60,-0.31,9.54,0.00,0.00,0.00,0
2026-06-27 19:45:38.279,992.69,992.61,-8.20,3.77,0.00,1.61,-0.30,9.57,-0.00,0.00,0.00,0
2026-06-27 19:45:38.289,992.69,992.61,-8.20,3.77,0.00,1.60,-0.32,9.53,-0.00,0.00,0.00,0
2026-06-27 19:45:38.299,992.69,992.61,-8.20,3.77,0.00,1.59,-0.32,9.57,-0.00,0.00,-0.00,0
2026-06-27 19:45:38.309,992.69,992.61,-7.71,3.66,0.00,1.59,-0.32,9.57,-0.00,0.00,-0.00,0
2026-06-27 19:45:38.319,992.69,992.62,-6.78,3.43,0.00,1.60,-0.31,9.55,0.00,0.00,-0.00,0
2026-06-27 19:45:38.329,992.69,992.62,-6.78,3.43,0.00,1.60,-0.31,9.55,0.00,0.00,-0.00,0
2026-06-27 19:45:38.339,992.69,992.62,-6.78,3.43,0.00,1.60,-0.31,9.55,0.00,0.00,-0.00,0
2026-06-27 19:45:38.349,992.69,992.62,-6.78,3.43,0.00,1.60,-0.31,9.55,0.00,0.00,-0.00,0
2026-06-27 19:45:38.359,992.69,992.62,-6.78,3.43,0.00,1.60,-0.34,9.53,-0.00,-0.00,0.00,0
2026-06-27 19:45:38.369,992.69,992.62,-6.78,3.43,0.00,1.60,-0.34,9.53,-0.00,-0.00,0.00,0
2026-06-27 19:45:38.379,992.69,992.62,-6.78,3.43,0.00,1.60,-0.34,9.53,-0.00,-0.00,0.00,0
2026-06-27 19:45:38.389,992.69,992.62,-6.78,3.43,0.00,1.60,-0.34,9.53,-0.00,-0.00,0.00,0
2026-06-27 19:45:38.399,992.69,992.62,-6.78,3.43,0.00,1.60,-0.30,9.58,-0.00,-0.00,0.00,0
2026-06-27 19:45:38.409,992.69,992.62,-6.78,3.43,0.00,1.60,-0.30,9.58,-0.00,-0.00,0.00,0
2026-06-27 19:45:38.419,992.69,992.62,-6.78,3.43,0.00,1.59,-0.30,9.56,-0.00,0.00,0.00,0
2026-06-27 19:45:38.429,992.69,992.62,-6.78,3.43,0.00,1.58,-0.32,9.56,-0.00,-0.00,-0.00,0
2026-06-27 19:45:38.439,992.69,992.62,-6.78,3.43,0.00,1.61,-0.30,9.57,0.00,-0.00,0.00,0
2026-06-27 19:45:38.449,992.69,992.62,-6.58,3.38,0.00,1.61,-0.33,9.57,-0.00,-0.00,-0.00,0
2026-06-27 19:45:38.459,992.69,992.62,-6.58,3.38,0.00,1.61,-0.33,9.57,-0.00,-0.00,-0.00,0
2026-06-27 19:45:38.469,992.69,992.62,-6.58,3.38,0.00,1.60,-0.35,9.55,-0.00,-0.00,-0.00,0
2026-06-27 19:45:38.479,992.69,992.62,-6.58,3.38,0.00,1.60,-0.35,9.55,-0.00,-0.00,-0.00,0
2026-06-27 19:45:38.489,992.69,992.58,-11.05,4.38,0.00,1.60,-0.35,9.55,-0.00,-0.00,-0.00,0
2026-06-27 19:45:38.499,992.69,992.58,-11.05,4.38,0.00,1.60,-0.35,9.55,-0.00,-0.00,-0.00,0
2026-06-27 19:45:38.509,992.69,992.58,-11.05,4.38,0.00,1.61,-0.31,9.55,-0.00,0.00,0.00,0
2026-06-27 19:45:38.519,992.69,992.58,-11.05,4.38,0.00,1.61,-0.31,9.55,-0.00,0.00,0.00,0
2026-06-27 19:45:38.529,992.69,992.58,-11.05,4.38,0.00,1.61,-0.31,9.55,-0.00,0.00,0.00,0
2026-06-27 19:45:38.539,992.69,992.58,-11.05,4.38,0.00,1.61,-0.31,9.55,-0.00,0.00,0.00,0
2026-06-27 19:45:38.549,992.69,992.58,-11.05,4.38,0.00,1.60,-0.31,9.56,-0.00,0.00,0.00,0
2026-06-27 19:45:38.559,992.69,992.58,-11.05,4.38,0.00,1.59,-0.31,9.55,0.00,-0.00,-0.00,0
2026-06-27 19:45:38.569,992.69,992.58,-11.05,4.38,0.00,1.59,-0.31,9.55,-0.00,0.00,-0.00,0
2026-06-27 19:45:38.579,992.69,992.58,-11.05,4.38,0.00,1.58,-0.30,9.55,-0.00,0.00,-0.00,0
2026-06-27 19:45:38.589,992.68,992.58,-10.63,4.29,0.00,1.60,-0.31,9.58,-0.00,0.00,-0.00,0
2026-06-27 19:45:38.599,992.68,992.58,-10.63,4.29,0.00,1.60,-0.31,9.58,-0.00,0.00,-0.00,0
2026-06-27 19:45:38.609,992.68,992.58,-10.63,4.29,0.00,1.60,-0.30,9.57,0.00,0.00,-0.00,0
2026-06-27 19:45:38.619,992.68,992.58,-10.63,4.29,0.00,1.60,-0.30,9.57,0.00,0.00,-0.00,0
2026-06-27 19:45:38.629,992.68,992.58,-10.63,4.29,0.00,1.60,-0.30,9.57,0.00,0.00,-0.00,0
2026-06-27 19:45:38.639,992.68,992.58,-10.63,4.29,0.00,1.60,-0.30,9.57,0.00,0.00,-0.00,0
2026-06-27 19:45:38.649,992.68,992.58,-10.63,4.29,0.00,1.58,-0.33,9.54,0.00,0.00,0.00,0
2026-06-27 19:45:38.659,992.68,992.58,-10.63,4.29,0.00,1.58,-0.33,9.54,0.00,0.00,0.00,0
2026-06-27 19:45:38.669,992.68,992.58,-10.63,4.29,0.00,1.58,-0.33,9.54,0.00,0.00,0.00,0
2026-06-27 19:45:38.679,992.68,992.58,-10.63,4.29,0.00,1.58,-0.33,9.54,0.00,0.00,0.00,0
2026-06-27 19:45:38.689,992.68,992.58,-10.63,4.29,0.00,1.58,-0.33,9.54,0.00,0.00,0.00,0
2026-06-27 19:45:38.699,992.68,992.58,-10.63,4.29,0.00,1.59,-0.35,9.58,0.00,-0.00,-0.00,0
2026-06-27 19:45:38.709,992.68,992.58,-10.63,4.29,0.00,1.59,-0.35,9.58,-0.00,-0.00,0.00,0
2026-06-27 19:45:38.719,992.68,992.58,-10.63,4.29,0.00,1.61,-0.33,9.55,-0.00,-0.00,0.00,0
2026-06-27 19:45:38.729,992.68,992.63,-4.78,2.88,0.00,1.61,-0.33,9.55,-0.00,0.00,-0.00,0
2026-06-27 19:45:38.739,992.68,992.63,-4.78,2.88,0.00,1.61,-0.33,9.55,-0.00,0.00,-0.00,0
2026-06-27 19:45:38.749,992.68,992.63,-4.78,2.88,0.00,1.59,-0.33,9.56,0.00,0.00,-0.00,0
2026-06-27 19:45:38.759,992.68,992.63,-4.78,2.88,0.00,1.59,-0.33,9.56,0.00,0.00,-0.00,0
2026-06-27 19:45:38.769,992.68,992.63,-4.78,2.88,0.00,1.59,-0.33,9.56,0.00,0.00,-0.00,0
2026-06-27 19:45:38.779,992.68,992.63,-4.78,2.88,0.00,1.59,-0.33,9.56,0.00,0.00,-0.00,0
2026-06-27 19:45:38.789,992.68,992.63,-4.78,2.88,0.00,1.59,-0.33,9.56,0.00,0.00,-0.00,0
2026-06-27 19:45:38.799,992.68,992.63,-4.78,2.88,0.00,1.61,-0.32,9.53,-0.00,0.00,-0.00,0
2026-06-27 19:45:38.809,992.68,992.63,-4.78,2.88,0.00,1.61,-0.32,9.53,-0.00,0.00,-0.00,0
2026-06-27 19:45:38.819,992.68,992.63,-4.78,2.88,0.00,1.61,-0.32,9.53,-0.00,0.00,-0.00,0
2026-06-27 19:45:38.829,992.68,992.63,-4.78,2.88,0.00,1.61,-0.34,9.56,-0.00,-0.00,-0.00,0
2026-06-27 19:45:38.839,992.68,992.63,-4.78,2.88,0.00,1.60,-0.32,9.54,0.00,0.00,-0.00,0
2026-06-27 19:45:38.849,992.68,992.63,-4.78,2.88,0.00,1.60,-0.32,9.54,-0.00,-0.00,0.00,0
2026-06-27 19:45:38.859,992.68,992.63,-4.78,2.88,0.00,1.59,-0.34,9.58,-0.00,-0.00,-0.00,0
2026-06-27 19:45:38.869,992.70,992.63,-6.96,3.47,0.00,1.59,-0.34,9.54,-0.00,-0.00,-0.00,0
2026-06-27 19:45:38.879,992.70,992.63,-6.96,3.47,0.00,1.59,-0.34,9.54,-0.00,-0.00,-0.00,0
2026-06-27 19:45:38.889,992.70,992.63,-6.96,3.47,0.00,1.61,-0.31,9.57,-0.00,-0.00,-0.00,0
2026-06-27 19:45:38.899,992.70,992.63,-6.96,3.47,0.00,1.61,-0.31,9.57,-0.00,-0.00,-0.00,0
2026-06-27 19:45:38.909,992.70,992.63,-6.96,3.47,0.00,1.61,-0.31,9.57,-0.00,-0.00,-0.00,0
2026-06-27 19:45:38.919,992.70,992.62,-7.37,3.57,0.00,1.61,-0.31,9.57,-0.00,-0.00,-0.00,0
2026-06-27 19:45:38.929,992.70,992.62,-7.37,3.57,0.00,1.61,-0.31,9.57,-0.00,-0.00,-0.00,0
2026-06-27 19:45:38.939,992.70,992.62,-7.37,3.57,0.00,1.59,-0.31,9.57,-0.00,0.00,-0.00,0
2026-06-27 19:45:38.949,992.70,992.62,-7.37,3.57,0.00,1.59,-0.31,9.57,-0.00,0.00,-0.00,0
2026-06-27 19:45:38.959,992.70,992.62,-7.37,3.57,0.00,1.59,-0.31,9.57,-0.00,0.00,-0.00,0
2026-06-27 19:45:38.969,992.70,992.62,-7.37,3.57,0.00,1.60,-0.34,9.53,-0.00,-0.00,-0.00,0
2026-06-27 19:45:38.979,992.70,992.62,-7.37,3.57,0.00,1.61,-0.30,9.56,0.00,-0.00,0.00,0
2026-06-27 19:45:38.989,992.70,992.62,-7.37,3.57,0.00,1.61,-0.30,9.56,0.00,0.00,-0.00,0
2026-06-27 19:45:38.999,992.70,992.62,-7.37,3.57,0.00,1.61,-0.31,9.57,-0.00,0.00,-0.00,0
2026-06-27 19:45:39.009,992.67,992.62,-4.44,2.77,0.00,1.61,-0.33,9.58,-0.00,0.00,0.00,0
2026-06-27 19:45:39.019,992.67,992.62,-4.44,2.77,0.00,1.61,-0.33,9.58,-0.00,0.00,0.00,0
2026-06-27 19:45:39.029,992.67,992.62,-4.44,2.77,0.00,1.62,-0.31,9.55,0.00,0.00,-0.00,0
2026-06-27 19:45:39.039,992.67,992.62,-4.44,2.77,0.00,1.62,-0.31,9.55,0.00,0.00,-0.00,0
2026-06-27 19:45:39.049,992.67,992.62,-4.44,2.77,0.00,1.62,-0.31,9.55,0.00,0.00,-0.00,0
2026-06-27 19:45:39.059,992.67,992.62,-4.44,2.77,0.00,1.62,-0.31,9.55,0.00,0.00,-0.00,0
2026-06-27 19:45:39.069,992.67,992.62,-4.44,2.77,0.00,1.62,-0.31,9.55,0.00,0.00,-0.00,0
2026-06-27 19:45:39.079,992.67,992.62,-4.44,2.77,0.00,1.62,-0.31,9.55,0.00,0.00,-0.00,0
2026-06-27 19:45:39.089,992.67,992.62,-4.44,2.77,0.00,1.62,-0.31,9.55,0.00,0.00,-0.00,0
2026-06-27 19:45:39.099,992.67,992.62,-4.44,2.77,0.00,1.62,-0.31,9.55,0.00,0.00,-0.00,0
2026-06-27 19:45:39.109,992.67,992.62,-4.44,2.77,0.00,1.62,-0.31,9.55,0.00,0.00,-0.00,0
2026-06-27 19:45:39.119,992.67,992.63,-3.75,2.55,0.00,1.60,-0.33,9.55,-0.00,-0.00,-0.00,0
2026-06-27 19:45:39.129,992.67,992.63,-3.75,2.55,0.00,1.60,-0.32,9.54,-0.00,0.00,-0.00,0
2026-06-27 19:45:39.139,992.67,992.63,-3.75,2.55,0.00,1.61,-0.31,9.55,-0.00,0.00,-0.00,0
2026-06-27 19:45:39.149,992.64,992.63,-0.49,0.93,0.00,1.62,-0.31,9.56,-0.00,0.00,-0.00,0
2026-06-27 19:45:39.159,992.64,992.63,-0.49,0.93,0.00,1.60,-0.31,9.57,-0.00,0.00,-0.00,0
2026-06-27 19:45:39.169,992.64,992.63,-0.49,0.93,0.00,1.60,-0.31,9.57,-0.00,0.00,-0.00,0
2026-06-27 19:45:39.179,992.64,992.63,-0.49,0.93,0.00,1.60,-0.31,9.57,-0.00,0.00,-0.00,0
2026-06-27 19:45:39.189,992.64,992.63,-0.49,0.93,0.00,1.60,-0.31,9.57,-0.00,0.00,-0.00,0
2026-06-27 19:45:39.199,992.64,992.63,-0.49,0.93,0.00,1.59,-0.32,9.54,-0.00,0.00,-0.00,0
2026-06-27 19:45:39.209,992.64,992.63,-0.49,0.93,0.00,1.59,-0.32,9.54,-0.00,0.00,-0.00,0
2026-06-27 19:45:39.219,992.64,992.63,-0.49,0.93,0.00,1.61,-0.33,9.55,-0.00,-0.00,0.00,0
2026-06-27 19:45:39.229,992.64,992.63,-0.49,0.93,0.00,1.61,-0.33,9.55,-0.00,-0.00,0.00,0
2026-06-27 19:45:39.239,992.64,992.63,-0.49,0.93,0.00,1.61,-0.33,9.55,-0.00,-0.00,0.00,0
2026-06-27 19:45:39.249,992.64,992.63,-0.49,0.93,0.00,1.61,-0.33,9.55,-0.00,-0.00,0.00,0
2026-06-27 19:45:39.259,992.64,992.63,-0.49,0.93,0.00,1.61,-0.34,9.54,0.00,0.00,0.00,0
2026-06-27 19:45:39.269,992.64,992.63,-0.49,0.93,0.00,1.61,-0.32,9.55,-0.00,0.00,-0.00,0
2026-06-27 19:45:39.279,992.64,992.63,-0.49,0.93,0.00,1.61,-0.33,9.56,0.00,0.00,-0.00,0
2026-06-27 19:45:39.289,992.68,992.62,-6.61,3.39,0.00,1.59,-0.33,9.54,0.00,0.00,-0.00,0
2026-06-27 19:45:39.299,992.68,992.62,-6.61,3.39,0.00,1.59,-0.33,9.54,0.00,0.00,-0.00,0
2026-06-27 19:45:39.309,992.68,992.62,-6.61,3.39,0.00,1.59,-0.33,9.54,0.00,0.00,-0.00,0
2026-06-27 19:45:39.319,992.68,992.62,-6.61,3.39,0.00,1.60,-0.30,9.54,0.00,0.00,0.00,0
2026-06-27 19:45:39.329,992.68,992.62,-6.61,3.39,0.00,1.60,-0.30,9.54,0.00,0.00,0.00,0
2026-06-27 19:45:39.339,992.68,992.62,-6.61,3.39,0.00,1.60,-0.30,9.54,0.00,0.00,0.00,0
2026-06-27 19:45:39.349,992.68,992.62,-6.61,3.39,0.00,1.60,-0.32,9.56,-0.00,0.00,-0.00,0
2026-06-27 19:45:39.359,992.68,992.62,-6.61,3.39,0.00,1.60,-0.32,9.56,-0.00,0.00,-0.00,0
2026-06-27 19:45:39.369,992.68,992.62,-6.61,3.39,0.00,1.60,-0.32,9.56,-0.00,0.00,-0.00,0
2026-06-27 19:45:39.379,992.68,992.62,-6.61,3.39,0.00,1.60,-0.32,9.56,-0.00,0.00,-0.00,0
2026-06-27 19:45:39.389,992.68,992.62,-6.61,3.39,0.00,1.60,-0.32,9.56,-0.00,0.00,-0.00,0
2026-06-27 19:45:39.399,992.68,992.62,-6.61,3.39,0.00,1.58,-0.31,9.56,-0.00,0.00,0.00,0
2026-06-27 19:45:39.409,992.68,992.62,-6.61,3.39,0.00,1.61,-0.33,9.56,0.00,0.00,-0.00,0
2026-06-27 19:45:39.419,992.68,992.62,-6.61,3.39,0.00,1.61,-0.33,9.55,0.00,-0.00,-0.00,0
2026-06-27 19:45:39.429,992.68,992.62,-6.75,3.42,0.00,1.58,-0.33,9.54,-0.00,0.00,0.00,0
2026-06-27 19:45:39.439,992.68,992.62,-6.75,3.42,0.00,1.58,-0.33,9.54,-0.00,0.00,0.00,0
2026-06-27 19:45:39.449,992.68,992.62,-6.75,3.42,0.00,1.58,-0.33,9.54,-0.00,0.00,0.00,0
2026-06-27 19:45:39.459,992.68,992.62,-6.75,3.42,0.00,1.59,-0.34,9.54,0.00,0.00,-0.00,0
2026-06-27 19:45:39.469,992.68,992.62,-6.75,3.42,0.00,1.59,-0.34,9.54,0.00,0.00,-0.00,0
2026-06-27 19:45:39.479,992.68,992.62,-6.75,3.42,0.00,1.59,-0.34,9.54,0.00,0.00,-0.00,0
2026-06-27 19:45:39.489,992.68,992.62,-6.75,3.42,0.00,1.59,-0.34,9.54,0.00,0.00,-0.00,0
2026-06-27 19:45:39.499,992.68,992.62,-6.75,3.42,0.00,1.59,-0.34,9.54,0.00,0.00,-0.00,0
2026-06-27 19:45:39.509,992.68,992.62,-6.01,3.23,0.00,1.59,-0.34,9.54,0.00,0.00,-0.00,0
2026-06-27 19:45:39.519,992.68,992.62,-6.01,3.23,0.00,1.59,-0.34,9.54,0.00,0.00,-0.00,0
2026-06-27 19:45:39.529,992.68,992.62,-6.01,3.23,0.00,1.58,-0.34,9.53,-0.00,-0.00,-0.00,0
2026-06-27 19:45:39.539,992.68,992.62,-6.01,3.23,0.00,1.59,-0.32,9.55,-0.00,0.00,-0.00,0
2026-06-27 19:45:39.549,992.68,992.62,-6.01,3.23,0.00,1.61,-0.31,9.56,0.00,0.00,0.00,0
2026-06-27 19:45:39.559,992.68,992.62,-6.01,3.23,0.00,1.60,-0.31,9.57,0.00,-0.00,-0.00,0
2026-06-27 19:45:39.569,992.66,992.62,-4.22,2.70,0.00,1.58,-0.32,9.57,0.00,-0.00,-0.00,0
2026-06-27 19:45:39.579,992.66,992.62,-4.22,2.70,0.00,1.58,-0.32,9.57,0.00,-0.00,-0.00,0
2026-06-27 19:45:39.589,992.66,992.62,-4.22,2.70,0.00,1.57,-0.32,9.55,-0.00,-0.00,-0.00,0
2026-06-27 19:45:39.599,992.66,992.62,-4.22,2.70,0.00,1.57,-0.32,9.55,-0.00,-0.00,-0.00,0
2026-06-27 19:45:39.609,992.66,992.62,-4.22,2.70,0.00,1.57,-0.32,9.55,-0.00,-0.00,-0.00,0
2026-06-27 19:45:39.619,992.66,992.62,-4.22,2.70,0.00,1.61,-0.32,9.57,-0.00,-0.00,-0.00,0
2026-06-27 19:45:39.629,992.66,992.62,-4.22,2.70,0.00,1.61,-0.32,9.57,-0.00,-0.00,-0.00,0
2026-06-27 19:45:39.639,992.66,992.62,-4.22,2.70,0.00,1.61,-0.32,9.57,-0.00,-0.00,-0.00,0
2026-06-27 19:45:39.649,992.66,992.62,-4.22,2.70,0.00,1.61,-0.32,9.57,-0.00,-0.00,-0.00,0
2026-06-27 19:45:39.659,992.66,992.62,-4.22,2.70,0.00,1.61,-0.32,9.57,-0.00,-0.00,-0.00,0
2026-06-27 19:45:39.669,992.66,992.62,-4.22,2.70,0.00,1.61,-0.32,9.57,-0.00,-0.00,-0.00,0
2026-06-27 19:45:39.679,992.66,992.62,-4.22,2.70,0.00,1.60,-0.34,9.56,0.00,0.00,-0.00,0
2026-06-27 19:45:39.689,992.66,992.62,-4.22,2.70,0.00,1.60,-0.35,9.55,0.00,0.00,0.00,0
2026-06-27 19:45:39.699,992.66,992.62,-4.22,2.70,0.00,1.57,-0.32,9.53,0.00,0.00,0.00,0
2026-06-27 19:45:39.709,992.66,992.62,-4.22,2.70,0.00,1.59,-0.31,9.55,0.00,0.00,-0.00,0
2026-06-27 19:45:39.719,992.67,992.59,-8.44,3.82,0.00,1.59,-0.31,9.55,0.00,0.00,-0.00,0
2026-06-27 19:45:39.729,992.67,992.59,-8.44,3.82,0.00,1.59,-0.33,9.56,-0.00,0.00,0.00,0
2026-06-27 19:45:39.739,992.67,992.59,-8.44,3.82,0.00,1.59,-0.33,9.56,-0.00,0.00,0.00,0
2026-06-27 19:45:39.749,992.67,992.59,-8.44,3.82,0.00,1.59,-0.33,9.56,-0.00,0.00,0.00,0
2026-06-27 19:45:39.759,992.67,992.59,-8.44,3.82,0.00,1.58,-0.32,9.53,-0.00,0.00,0.00,0
2026-06-27 19:45:39.769,992.67,992.59,-8.44,3.82,0.00,1.58,-0.32,9.53,-0.00,0.00,0.00,0
2026-06-27 19:45:39.779,992.67,992.59,-8.44,3.82,0.00,1.58,-0.32,9.53,-0.00,0.00,0.00,0
2026-06-27 19:45:39.789,992.67,992.59,-8.44,3.82,0.00,1.58,-0.32,9.53,-0.00,0.00,0.00,0
2026-06-27 19:45:39.799,992.67,992.59,-8.44,3.82,0.00,1.58,-0.34,9.55,-0.00,0.00,-0.00,0
2026-06-27 19:45:39.809,992.67,992.59,-8.44,3.82,0.00,1.58,-0.34,9.55,-0.00,0.00,-0.00,0
2026-06-27 19:45:39.819,992.67,992.59,-8.44,3.82,0.00,1.59,-0.33,9.54,0.00,0.00,-0.00,0
2026-06-27 19:45:39.829,992.67,992.59,-8.44,3.82,0.00,1.59,-0.33,9.58,0.00,-0.00,0.00,0
2026-06-27 19:45:39.839,992.67,992.59,-8.44,3.82,0.00,1.61,-0.33,9.55,0.00,0.00,-0.00,0
2026-06-27 19:45:39.849,992.67,992.59,-8.44,3.82,0.00,1.61,-0.31,9.55,0.00,0.00,0.00,0
2026-06-27 19:45:39.859,992.67,992.59,-8.64,3.87,0.00,1.61,-0.31,9.55,0.00,0.00,0.00,0
2026-06-27 19:45:39.869,992.67,992.59,-8.64,3.87,0.00,1.62,-0.34,9.56,-0.00,-0.00,-0.00,0
2026-06-27 19:45:39.879,992.67,992.59,-8.64,3.87,0.00,1.62,-0.34,9.56,-0.00,-0.00,-0.00,0
2026-06-27 19:45:39.889,992.67,992.60,-7.52,3.61,0.00,1.62,-0.34,9.56,-0.00,-0.00,-0.00,0
2026-06-27 19:45:39.899,992.67,992.60,-7.52,3.61,0.00,1.62,-0.34,9.56,-0.00,-0.00,-0.00,0
2026-06-27 19:45:39.909,992.67,992.60,-7.52,3.61,0.00,1.61,-0.31,9.56,-0.00,-0.00,0.00,0
2026-06-27 19:45:39.919,992.67,992.60,-7.52,3.61,0.00,1.61,-0.31,9.56,-0.00,-0.00,0.00,0
2026-06-27 19:45:39.929,992.67,992.60,-7.52,3.61,0.00,1.61,-0.31,9.56,-0.00,-0.00,0.00,0
2026-06-27 19:45:39.939,992.67,992.60,-7.52,3.61,0.00,1.61,-0.31,9.56,-0.00,-0.00,0.00,0
2026-06-27 19:45:39.949,992.67,992.60,-7.52,3.61,0.00,1.60,-0.35,9.55,-0.00,-0.00,0.00,0
2026-06-27 19:45:39.959,992.67,992.60,-7.52,3.61,0.00,1.58,-0.32,9.57,-0.00,-0.00,-0.00,0
2026-06-27 19:45:39.969,992.67,992.60,-7.52,3.61,0.00,1.61,-0.31,9.56,-0.00,-0.00,0.00,0
2026-06-27 19:45:39.979,992.67,992.60,-7.52,3.61,0.00,1.59,-0.32,9.56,-0.00,-0.00,0.00,0
2026-06-27 19:45:39.989,992.67,992.60,-7.52,3.61,0.00,1.59,-0.31,9.55,0.00,0.00,0.00,0
2026-06-27 19:45:39.999,992.69,992.60,-9.12,3.97,0.00,1.59,-0.31,9.55,0.00,0.00,0.00,0
2026-06-27 19:45:40.009,992.69,992.60,-9.12,3.97,0.00,1.59,-0.31,9.55,0.00,0.00,0.00,0
2026-06-27 19:45:40.019,992.69,992.60,-9.12,3.97,0.00,1.61,-0.31,9.55,-0.00,0.00,0.00,0
2026-06-27 19:45:40.029,992.69,992.60,-9.12,3.97,0.00,1.61,-0.31,9.55,-0.00,0.00,0.00,0
2026-06-27 19:45:40.039,992.69,992.60,-9.12,3.97,0.00,1.61,-0.31,9.55,-0.00,0.00,0.00,0
2026-06-27 19:45:40.049,992.69,992.61,-8.51,3.84,0.00,1.61,-0.31,9.55,-0.00,0.00,0.00,0
2026-06-27 19:45:40.059,992.69,992.61,-8.51,3.84,0.00,1.59,-0.31,9.57,0.00,0.00,0.00,0
2026-06-27 19:45:40.069,992.69,992.61,-8.51,3.84,0.00,1.59,-0.31,9.57,0.00,0.00,0.00,0
2026-06-27 19:45:40.079,992.69,992.61,-8.51,3.84,0.00,1.59,-0.31,9.57,0.00,0.00,0.00,0
2026-06-27 19:45:40.089,992.69,992.61,-8.51,3.84,0.00,1.59,-0.31,9.57,0.00,0.00,0.00,0
2026-06-27 19:45:40.099,992.69,992.61,-8.51,3.84,0.00,1.59,-0.33,9.56,-0.00,0.00,0.00,0
2026-06-27 19:45:40.109,992.69,992.61,-8.51,3.84,0.00,1.61,-0.33,9.56,-0.00,-0.00,-0.00,0
2026-06-27 19:45:40.119,992.69,992.61,-8.51,3.84,0.00,1.60,-0.30,9.57,0.00,0.00,-0.00,0
2026-06-27 19:45:40.129,992.69,992.61,-8.51,3.84,0.00,1.61,-0.32,9.59,0.00,-0.00,0.00,0
2026-06-27 19:45:40.139,992.66,992.61,-5.83,3.18,0.00,1.61,-0.32,9.59,0.00,-0.00,0.00,0
2026-06-27 19:45:40.149,992.66,992.61,-5.83,3.18,0.00,1.61,-0.32,9.59,0.00,-0.00,0.00,0
2026-06-27 19:45:40.159,992.66,992.61,-5.83,3.18,0.00,1.60,-0.32,9.55,-0.00,0.00,0.00,0
2026-06-27 19:45:40.169,992.66,992.61,-5.83,3.18,0.00,1.60,-0.32,9.55,-0.00,0.00,0.00,0
2026-06-27 19:45:40.179,992.66,992.61,-5.83,3.18,0.00,1.60,-0.32,9.55,-0.00,0.00,0.00,0
2026-06-27 19:45:40.189,992.66,992.61,-5.83,3.18,0.00,1.60,-0.32,9.55,-0.00,0.00,0.00,0
2026-06-27 19:45:40.199,992.66,992.61,-5.83,3.18,0.00,1.60,-0.32,9.55,-0.00,0.00,0.00,0
2026-06-27 19:45:40.209,992.66,992.61,-5.83,3.18,0.00,1.60,-0.32,9.55,-0.00,0.00,0.00,0
2026-06-27 19:45:40.219,992.66,992.61,-5.83,3.18,0.00,1.60,-0.32,9.55,-0.00,0.00,0.00,0
2026-06-27 19:45:40.229,992.66,992.61,-5.83,3.18,0.00,1.60,-0.32,9.55,-0.00,0.00,0.00,0
2026-06-27 19:45:40.239,992.66,992.61,-5.83,3.18,0.00,1.62,-0.32,9.57,-0.00,0.00,-0.00,0
2026-06-27 19:45:40.249,992.66,992.61,-5.83,3.18,0.00,1.60,-0.33,9.56,0.00,-0.00,-0.00,0
2026-06-27 19:45:40.259,992.66,992.61,-5.83,3.18,0.00,1.60,-0.34,9.54,-0.00,0.00,-0.00,0
2026-06-27 19:45:40.269,992.66,992.61,-5.83,3.18,0.00,1.61,-0.31,9.56,0.00,0.00,0.00,0
2026-06-27 19:45:40.279,992.67,992.60,-6.94,3.47,0.00,1.61,-0.31,9.56,0.00,0.00,0.00,0
2026-06-27 19:45:40.289,992.67,992.60,-6.94,3.47,0.00,1.60,-0.33,9.53,-0.00,0.00,-0.00,0
2026-06-27 19:45:40.299,992.67,992.60,-6.94,3.47,0.00,1.60,-0.33,9.53,-0.00,0.00,-0.00,0
2026-06-27 19:45:40.309,992.67,992.60,-6.94,3.47,0.00,1.60,-0.33,9.53,-0.00,0.00,-0.00,0
2026-06-27 19:45:40.319,992.67,992.60,-6.94,3.47,0.00,1.60,-0.33,9.53,-0.00,0.00,-0.00,0
2026-06-27 19:45:40.329,992.67,992.60,-6.94,3.47,0.00,1.60,-0.30,9.57,0.00,0.00,0.00,0
2026-06-27 19:45:40.339,992.67,992.60,-6.94,3.47,0.00,1.60,-0.30,9.57,0.00,0.00,0.00,0
2026-06-27 19:45:40.349,992.67,992.60,-6.94,3.47,0.00,1.60,-0.30,9.57,0.00,0.00,0.00,0
2026-06-27 19:45:40.359,992.67,992.60,-6.94,3.47,0.00,1.60,-0.30,9.57,0.00,0.00,0.00,0
2026-06-27 19:45:40.369,992.67,992.60,-6.94,3.47,0.00,1.61,-0.30,9.56,-0.00,-0.00,0.00,0
2026-06-27 19:45:40.379,992.67,992.60,-6.94,3.47,0.00,1.61,-0.35,9.58,-0.00,0.00,0.00,0
2026-06-27 19:45:40.389,992.67,992.60,-6.94,3.47,0.00,1.61,-0.31,9.55,-0.00,0.00,0.00,0
2026-06-27 19:45:40.399,992.67,992.60,-6.94,3.47,0.00,1.60,-0.32,9.56,-0.00,-0.00,0.00,0
2026-06-27 19:45:40.409,992.67,992.60,-6.94,3.47,0.00,1.61,-0.34,9.55,0.00,0.00,0.00,0
2026-06-27 19:45:40.419,992.67,992.60,-6.94,3.47,0.00,1.59,-0.31,9.55,0.00,0.00,0.00,0
2026-06-27 19:45:40.429,992.68,992.58,-9.58,4.07,0.00,1.59,-0.31,9.55,0.00,0.00,0.00,0
2026-06-27 19:45:40.439,992.68,992.58,-9.58,4.07,0.00,1.59,-0.31,9.55,0.00,0.00,0.00,0
2026-06-27 19:45:40.449,992.68,992.58,-9.58,4.07,0.00,1.59,-0.32,9.56,-0.00,0.00,-0.00,0
2026-06-27 19:45:40.459,992.68,992.58,-9.58,4.07,0.00,1.59,-0.32,9.56,-0.00,0.00,-0.00,0
2026-06-27 19:45:40.469,992.68,992.58,-9.58,4.07,0.00,1.59,-0.32,9.56,-0.00,0.00,-0.00,0
2026-06-27 19:45:40.479,992.68,992.58,-9.58,4.07,0.00,1.59,-0.32,9.56,-0.00,0.00,-0.00,0
2026-06-27 19:45:40.489,992.68,992.58,-9.58,4.07,0.00,1.59,-0.31,9.57,0.00,0.00,0.00,0
2026-06-27 19:45:40.499,992.68,992.58,-9.58,4.07,0.00,1.59,-0.31,9.57,0.00,0.00,0.00,0
2026-06-27 19:45:40.509,992.68,992.58,-9.58,4.07,0.00,1.59,-0.31,9.57,0.00,0.00,0.00,0
2026-06-27 19:45:40.519,992.68,992.58,-9.58,4.07,0.00,1.60,-0.30,9.56,0.00,-0.00,-0.00,0
2026-06-27 19:45:40.529,992.68,992.58,-9.58,4.07,0.00,1.59,-0.34,9.55,-0.00,-0.00,-0.00,0
2026-06-27 19:45:40.539,992.68,992.58,-9.58,4.07,0.00,1.61,-0.31,9.57,0.00,-0.00,-0.00,0
2026-06-27 19:45:40.549,992.68,992.58,-9.58,4.07,0.00,1.59,-0.30,9.57,0.00,-0.00,-0.00,0
2026-06-27 19:45:40.559,992.68,992.58,-9.58,4.07,0.00,1.59,-0.34,9.54,-0.00,0.00,0.00,0
2026-06-27 19:45:40.569,992.68,992.63,-5.17,2.99,0.00,1.59,-0.34,9.54,-0.00,0.00,0.00,0
2026-06-27 19:45:40.579,992.68,992.63,-5.17,2.99,0.00,1.59,-0.34,9.54,-0.00,0.00,0.00,0
2026-06-27 19:45:40.589,992.68,992.63,-5.17,2.99,0.00,1.59,-0.34,9.54,-0.00,0.00,0.00,0
2026-06-27 19:45:40.599,992.68,992.63,-5.17,2.99,0.00,1.61,-0.31,9.55,0.00,-0.00,0.00,0
2026-06-27 19:45:40.609,992.68,992.63,-5.17,2.99,0.00,1.61,-0.31,9.55,0.00,-0.00,0.00,0
2026-06-27 19:45:40.619,992.68,992.63,-5.17,2.99,0.00,1.61,-0.31,9.55,0.00,-0.00,0.00,0
2026-06-27 19:45:40.629,992.68,992.63,-5.17,2.99,0.00,1.59,-0.32,9.53,-0.00,0.00,-0.00,0
2026-06-27 19:45:40.639,992.68,992.63,-5.17,2.99,0.00,1.59,-0.32,9.53,-0.00,0.00,-0.00,0
2026-06-27 19:45:40.649,992.68,992.63,-5.17,2.99,0.00,1.59,-0.32,9.53,-0.00,0.00,-0.00,0
2026-06-27 19:45:40.659,992.68,992.63,-5.17,2.99,0.00,1.59,-0.32,9.53,-0.00,0.00,-0.00,0
2026-06-27 19:45:40.669,992.68,992.63,-5.17,2.99,0.00,1.60,-0.33,9.54,0.00,0.00,0.00,0
2026-06-27 19:45:40.679,992.68,992.63,-5.17,2.99,0.00,1.60,-0.34,9.56,0.00,0.00,0.00,0
2026-06-27 19:45:40.689,992.68,992.63,-5.17,2.99,0.00,1.59,-0.31,9.58,0.00,0.00,-0.00,0
2026-06-27 19:45:40.699,992.68,992.63,-5.17,2.99,0.00,1.61,-0.31,9.55,0.00,0.00,0.00,0
2026-06-27 19:45:40.709,992.66,992.63,-2.98,2.27,0.00,1.61,-0.31,9.55,0.00,0.00,0.00,0
2026-06-27 19:45:40.719,992.66,992.63,-2.98,2.27,0.00,1.61,-0.31,9.55,0.00,0.00,0.00,0
2026-06-27 19:45:40.729,992.66,992.63,-2.98,2.27,0.00,1.61,-0.31,9.55,0.00,0.00,0.00,0
2026-06-27 19:45:40.739,992.66,992.63,-2.98,2.27,0.00,1.60,-0.33,9.53,-0.00,0.00,-0.00,0
2026-06-27 19:45:40.749,992.66,992.63,-2.98,2.27,0.00,1.60,-0.33,9.53,-0.00,0.00,-0.00,0
2026-06-27 19:45:40.759,992.66,992.63,-3.35,2.41,0.00,1.60,-0.33,9.53,-0.00,0.00,-0.00,0
2026-06-27 19:45:40.769,992.66,992.63,-3.35,2.41,0.00,1.60,-0.33,9.53,-0.00,0.00,-0.00,0
2026-06-27 19:45:40.779,992.66,992.63,-3.35,2.41,0.00,1.59,-0.33,9.57,0.00,0.00,-0.00,0
2026-06-27 19:45:40.789,992.66,992.63,-3.35,2.41,0.00,1.59,-0.33,9.57,0.00,0.00,-0.00,0
2026-06-27 19:45:40.799,992.66,992.63,-3.35,2.41,0.00,1.59,-0.33,9.57,0.00,0.00,-0.00,0
2026-06-27 19:45:40.809,992.66,992.63,-3.35,2.41,0.00,1.60,-0.32,9.55,0.00,-0.00,0.00,0
2026-06-27 19:45:40.819,992.66,992.63,-3.35,2.41,0.00,1.60,-0.33,9.54,-0.00,0.00,-0.00,0
2026-06-27 19:45:40.829,992.66,992.63,-3.35,2.41,0.00,1.60,-0.32,9.56,-0.00,0.00,0.00,0
2026-06-27 19:45:40.839,992.66,992.63,-3.35,2.41,0.00,1.59,-0.32,9.60,-0.00,-0.00,-0.00,0
2026-06-27 19:45:40.849,992.69,992.63,-6.43,3.34,0.00,1.59,-0.32,9.60,-0.00,-0.00,-0.00,0
2026-06-27 19:45:40.859,992.69,992.63,-6.43,3.34,0.00,1.61,-0.32,9.57,0.00,-0.00,0.00,0
2026-06-27 19:45:40.869,992.69,992.63,-6.43,3.34,0.00,1.61,-0.32,9.57,0.00,-0.00,0.00,0
2026-06-27 19:45:40.879,992.69,992.63,-6.43,3.34,0.00,1.61,-0.32,9.57,0.00,-0.00,0.00,0
2026-06-27 19:45:40.889,992.69,992.63,-6.43,3.34,0.00,1.61,-0.32,9.57,0.00,-0.00,0.00,0
2026-06-27 19:45:40.899,992.69,992.63,-6.43,3.34,0.00,1.61,-0.32,9.57,0.00,-0.00,0.00,0
2026-06-27 19:45:40.909,992.69,992.63,-6.43,3.34,0.00,1.61,-0.32,9.57,0.00,-0.00,0.00,0
2026-06-27 19:45:40.919,992.69,992.63,-6.43,3.34,0.00,1.61,-0.32,9.57,0.00,-0.00,0.00,0
2026-06-27 19:45:40.929,992.69,992.63,-6.43,3.34,0.00,1.61,-0.32,9.57,0.00,-0.00,0.00,0
2026-06-27 19:45:40.939,992.69,992.63,-6.43,3.34,0.00,1.61,-0.32,9.57,0.00,-0.00,0.00,0
2026-06-27 19:45:40.949,992.69,992.63,-6.43,3.34,0.00,1.60,-0.31,9.56,0.00,0.00,0.00,0
2026-06-27 19:45:40.959,992.69,992.63,-6.43,3.34,0.00,1.60,-0.33,9.52,0.00,0.00,0.00,0
2026-06-27 19:45:40.969,992.69,992.59,-10.48,4.26,0.00,1.60,-0.34,9.54,0.00,0.00,0.00,0
2026-06-27 19:45:40.979,992.69,992.59,-10.48,4.26,0.00,1.60,-0.32,9.55,0.00,-0.00,-0.00,0
2026-06-27 19:45:40.989,992.69,992.59,-10.48,4.26,0.00,1.61,-0.32,9.56,-0.00,-0.00,-0.00,0
2026-06-27 19:45:40.999,992.64,992.59,-5.38,3.05,0.00,1.61,-0.32,9.56,-0.00,-0.00,-0.00,0
2026-06-27 19:45:41.009,992.64,992.59,-5.38,3.05,0.00,1.61,-0.32,9.56,-0.00,-0.00,-0.00,0
2026-06-27 19:45:41.019,992.64,992.59,-5.38,3.05,0.00,1.59,-0.32,9.55,-0.00,0.00,-0.00,0
2026-06-27 19:45:41.029,992.64,992.59,-5.38,3.05,0.00,1.59,-0.32,9.55,-0.00,0.00,-0.00,0
2026-06-27 19:45:41.039,992.64,992.59,-5.38,3.05,0.00,1.59,-0.32,9.55,-0.00,0.00,-0.00,0
2026-06-27 19:45:41.049,992.64,992.59,-5.38,3.05,0.00,1.59,-0.32,9.55,-0.00,0.00,-0.00,0
2026-06-27 19:45:41.059,992.64,992.59,-5.38,3.05,0.00,1.62,-0.30,9.56,0.00,0.00,0.00,0
2026-06-27 19:45:41.069,992.64,992.59,-5.38,3.05,0.00,1.62,-0.30,9.56,0.00,0.00,0.00,0
2026-06-27 19:45:41.079,992.64,992.59,-5.38,3.05,0.00,1.62,-0.30,9.56,0.00,0.00,0.00,0
2026-06-27 19:45:41.089,992.64,992.59,-5.38,3.05,0.00,1.59,-0.33,9.56,0.00,0.00,0.00,0
2026-06-27 19:45:41.099,992.64,992.59,-5.38,3.05,0.00,1.58,-0.33,9.54,0.00,0.00,0.00,0
2026-06-27 19:45:41.109,992.64,992.59,-5.38,3.05,0.00,1.60,-0.31,9.55,0.00,0.00,0.00,0
2026-06-27 19:45:41.119,992.64,992.59,-5.38,3.05,0.00,1.61,-0.32,9.55,0.00,0.00,0.00,0
2026-06-27 19:45:41.129,992.64,992.59,-5.38,3.05,0.00,1.60,-0.33,9.56,0.00,0.00,0.00,0
2026-06-27 19:45:41.139,992.66,992.59,-7.42,3.59,0.00,1.60,-0.33,9.56,0.00,0.00,0.00,0
2026-06-27 19:45:41.149,992.66,992.59,-7.42,3.59,0.00,1.60,-0.33,9.56,0.00,0.00,0.00,0
2026-06-27 19:45:41.159,992.66,992.59,-7.42,3.59,0.00,1.59,-0.32,9.54,0.00,-0.00,0.00,0
2026-06-27 19:45:41.169,992.66,992.59,-7.42,3.59,0.00,1.59,-0.32,9.54,0.00,-0.00,0.00,0
2026-06-27 19:45:41.179,992.66,992.59,-7.42,3.59,0.00,1.59,-0.32,9.54,0.00,-0.00,0.00,0
2026-06-27 19:45:41.189,992.66,992.59,-7.42,3.59,0.00,1.59,-0.32,9.54,0.00,-0.00,0.00,0
2026-06-27 19:45:41.199,992.66,992.59,-7.42,3.59,0.00,1.61,-0.31,9.56,-0.00,-0.00,-0.00,0
2026-06-27 19:45:41.209,992.66,992.59,-7.42,3.59,0.00,1.61,-0.31,9.56,-0.00,-0.00,-0.00,0
2026-06-27 19:45:41.219,992.66,992.59,-7.42,3.59,0.00,1.61,-0.31,9.56,-0.00,-0.00,-0.00,0
2026-06-27 19:45:41.229,992.66,992.58,-8.31,3.80,0.00,1.61,-0.31,9.56,-0.00,-0.00,-0.00,0
2026-06-27 19:45:41.239,992.66,992.58,-8.31,3.80,0.00,1.61,-0.33,9.56,0.00,-0.00,-0.00,0
2026-06-27 19:45:41.249,992.66,992.58,-8.31,3.80,0.00,1.61,-0.31,9.56,0.00,0.00,-0.00,0
2026-06-27 19:45:41.259,992.66,992.58,-8.31,3.80,0.00,1.61,-0.32,9.56,0.00,0.00,0.00,0
2026-06-27 19:45:41.269,992.66,992.58,-8.31,3.80,0.00,1.62,-0.32,9.55,-0.00,0.00,-0.00,0
2026-06-27 19:45:41.279,992.66,992.58,-8.31,3.80,0.00,1.60,-0.30,9.58,-0.00,0.00,-0.00,0
2026-06-27 19:45:41.289,992.70,992.58,-12.20,4.60,0.00,1.60,-0.30,9.58,-0.00,0.00,-0.00,0
2026-06-27 19:45:41.299,992.70,992.58,-12.20,4.60,0.00,1.60,-0.30,9.58,-0.00,0.00,-0.00,0
2026-06-27 19:45:41.309,992.70,992.58,-12.20,4.60,0.00,1.61,-0.32,9.55,-0.00,0.00,-0.00,0
2026-06-27 19:45:41.319,992.70,992.58,-12.20,4.60,0.00,1.61,-0.32,9.55,-0.00,0.00,-0.00,0
2026-06-27 19:45:41.329,992.70,992.58,-12.20,4.60,0.00,1.61,-0.32,9.55,-0.00,0.00,-0.00,0
2026-06-27 19:45:41.339,992.70,992.58,-12.20,4.60,0.00,1.61,-0.32,9.55,-0.00,0.00,-0.00,0
2026-06-27 19:45:41.349,992.70,992.58,-12.20,4.60,0.00,1.61,-0.30,9.58,-0.00,0.00,-0.00,0
2026-06-27 19:45:41.359,992.70,992.58,-12.20,4.60,0.00,1.61,-0.30,9.58,-0.00,0.00,-0.00,0
2026-06-27 19:45:41.369,992.70,992.58,-12.20,4.60,0.00,1.61,-0.30,9.58,-0.00,0.00,-0.00,0
2026-06-27 19:45:41.379,992.70,992.58,-12.20,4.60,0.00,1.61,-0.30,9.58,-0.00,0.00,-0.00,0
2026-06-27 19:45:41.389,992.70,992.58,-12.20,4.60,0.00,1.61,-0.30,9.58,-0.00,0.00,-0.00,0
2026-06-27 19:45:41.399,992.70,992.58,-12.20,4.60,0.00,1.60,-0.33,9.56,-0.00,-0.00,-0.00,0
2026-06-27 19:45:41.409,992.70,992.58,-12.20,4.60,0.00,1.60,-0.33,9.56,0.00,0.00,-0.00,0
2026-06-27 19:45:41.419,992.70,992.58,-12.20,4.60,0.00,1.60,-0.30,9.59,0.00,0.00,-0.00,0
2026-06-27 19:45:41.429,992.70,992.59,-10.84,4.33,0.00,1.59,-0.33,9.55,0.00,0.00,-0.00,0
2026-06-27 19:45:41.439,992.69,992.59,-9.83,4.13,0.00,1.60,-0.33,9.58,0.00,0.00,-0.00,0
2026-06-27 19:45:41.449,992.69,992.59,-9.83,4.13,0.00,1.60,-0.33,9.58,0.00,0.00,-0.00,0
2026-06-27 19:45:41.459,992.69,992.59,-9.83,4.13,0.00,1.60,-0.33,9.58,0.00,0.00,-0.00,0
2026-06-27 19:45:41.469,992.69,992.59,-9.83,4.13,0.00,1.60,-0.33,9.58,0.00,0.00,-0.00,0
2026-06-27 19:45:41.479,992.69,992.59,-9.83,4.13,0.00,1.59,-0.32,9.56,0.00,0.00,-0.00,0
2026-06-27 19:45:41.489,992.69,992.59,-9.83,4.13,0.00,1.59,-0.32,9.56,0.00,0.00,-0.00,0
2026-06-27 19:45:41.499,992.69,992.59,-9.83,4.13,0.00,1.59,-0.32,9.56,0.00,0.00,-0.00,0
2026-06-27 19:45:41.509,992.69,992.59,-9.83,4.13,0.00,1.59,-0.33,9.55,-0.00,0.00,0.00,0
2026-06-27 19:45:41.519,992.69,992.59,-9.83,4.13,0.00,1.59,-0.33,9.55,-0.00,0.00,0.00,0
2026-06-27 19:45:41.529,992.69,992.59,-9.83,4.13,0.00,1.59,-0.33,9.55,-0.00,0.00,0.00,0
2026-06-27 19:45:41.539,992.69,992.59,-9.83,4.13,0.00,1.59,-0.32,9.54,0.00,-0.00,0.00,0
2026-06-27 19:45:41.549,992.69,992.59,-9.83,4.13,0.00,1.60,-0.34,9.57,0.00,-0.00,0.00,0
2026-06-27 19:45:41.559,992.69,992.59,-9.83,4.13,0.00,1.60,-0.34,9.57,0.00,-0.00,0.00,0
2026-06-27 19:45:41.569,992.69,992.59,-9.83,4.13,0.00,1.58,-0.32,9.53,-0.00,-0.00,-0.00,0
2026-06-27 19:45:41.579,992.69,992.56,-13.20,4.78,0.00,1.60,-0.32,9.57,-0.00,0.00,-0.00,0
2026-06-27 19:45:41.589,992.69,992.56,-13.20,4.78,0.00,1.61,-0.32,9.56,0.00,0.00,0.00,0
2026-06-27 19:45:41.599,992.69,992.56,-13.20,4.78,0.00,1.61,-0.32,9.56,0.00,0.00,0.00,0
2026-06-27 19:45:41.609,992.69,992.56,-13.20,4.78,0.00,1.61,-0.32,9.56,0.00,0.00,0.00,0
2026-06-27 19:45:41.619,992.69,992.56,-13.20,4.78,0.00,1.61,-0.32,9.56,0.00,0.00,0.00,0
2026-06-27 19:45:41.629,992.69,992.56,-13.20,4.78,0.00,1.60,-0.32,9.56,0.00,-0.00,-0.00,0
2026-06-27 19:45:41.639,992.69,992.56,-13.20,4.78,0.00,1.60,-0.32,9.56,0.00,-0.00,-0.00,0
2026-06-27 19:45:41.649,992.69,992.56,-13.20,4.78,0.00,1.61,-0.32,9.58,0.00,-0.00,0.00,0
2026-06-27 19:45:41.659,992.69,992.56,-13.20,4.78,0.00,1.61,-0.32,9.58,0.00,-0.00,0.00,0
2026-06-27 19:45:41.669,992.69,992.56,-13.20,4.78,0.00,1.61,-0.32,9.58,0.00,-0.00,0.00,0
2026-06-27 19:45:41.679,992.69,992.56,-13.20,4.78,0.00,1.61,-0.35,9.56,0.00,-0.00,-0.00,0
2026-06-27 19:45:41.689,992.69,992.56,-13.20,4.78,0.00,1.60,-0.31,9.56,0.00,0.00,0.00,0
2026-06-27 19:45:41.699,992.69,992.56,-13.20,4.78,0.00,1.60,-0.31,9.56,0.00,0.00,0.00,0
2026-06-27 19:45:41.709,992.69,992.56,-13.20,4.78,0.00,1.60,-0.31,9.56,0.00,0.00,0.00,0
2026-06-27 19:45:41.719,992.67,992.56,-10.92,4.35,0.00,1.60,-0.32,9.59,-0.00,0.00,-0.00,0
2026-06-27 19:45:41.729,992.67,992.56,-10.92,4.35,0.00,1.60,-0.32,9.59,-0.00,0.00,-0.00,0
2026-06-27 19:45:41.739,992.67,992.57,-10.31,4.23,0.00,1.60,-0.32,9.59,-0.00,0.00,-0.00,0
2026-06-27 19:45:41.749,992.67,992.57,-10.31,4.23,0.00,1.61,-0.32,9.56,0.00,-0.00,-0.00,0
2026-06-27 19:45:41.759,992.67,992.57,-10.31,4.23,0.00,1.61,-0.32,9.56,0.00,-0.00,-0.00,0
2026-06-27 19:45:41.769,992.67,992.57,-10.31,4.23,0.00,1.60,-0.31,9.58,0.00,-0.00,-0.00,0
2026-06-27 19:45:41.779,992.67,992.57,-10.31,4.23,0.00,1.60,-0.31,9.58,0.00,-0.00,-0.00,0
2026-06-27 19:45:41.789,992.67,992.57,-10.31,4.23,0.00,1.60,-0.31,9.58,0.00,-0.00,-0.00,0
2026-06-27 19:45:41.799,992.67,992.57,-10.31,4.23,0.00,1.60,-0.31,9.58,0.00,-0.00,-0.00,0
2026-06-27 19:45:41.809,992.67,992.57,-10.31,4.23,0.00,1.60,-0.31,9.58,0.00,-0.00,-0.00,0
2026-06-27 19:45:41.819,992.67,992.57,-10.31,4.23,0.00,1.60,-0.31,9.58,0.00,-0.00,-0.00,0
2026-06-27 19:45:41.829,992.67,992.57,-10.31,4.23,0.00,1.58,-0.32,9.54,-0.00,-0.00,-0.00,0
2026-06-27 19:45:41.839,992.67,992.57,-10.31,4.23,0.00,1.58,-0.32,9.54,-0.00,-0.00,-0.00,0
2026-06-27 19:45:41.849,992.67,992.57,-10.31,4.23,0.00,1.60,-0.30,9.55,0.00,-0.00,0.00,0
2026-06-27 19:45:41.859,992.65,992.57,-8.40,3.82,0.00,1.61,-0.31,9.55,0.00,-0.00,0.00,0
2026-06-27 19:45:41.869,992.65,992.57,-8.40,3.82,0.00,1.61,-0.31,9.55,0.00,-0.00,0.00,0
2026-06-27 19:45:41.879,992.65,992.57,-8.40,3.82,0.00,1.59,-0.32,9.52,-0.00,0.00,0.00,0
2026-06-27 19:45:41.889,992.65,992.57,-8.40,3.82,0.00,1.59,-0.32,9.52,-0.00,0.00,0.00,0
2026-06-27 19:45:41.899,992.65,992.62,-3.51,2.47,0.00,1.59,-0.32,9.52,-0.00,0.00,0.00,0
2026-06-27 19:45:41.909,992.65,992.62,-3.51,2.47,0.00,1.59,-0.32,9.52,-0.00,0.00,0.00,0
2026-06-27 19:45:41.919,992.65,992.62,-3.51,2.47,0.00,1.59,-0.32,9.52,-0.00,0.00,0.00,0
2026-06-27 19:45:41.929,992.65,992.62,-3.51,2.47,0.00,1.59,-0.32,9.52,-0.00,0.00,0.00,0
2026-06-27 19:45:41.939,992.65,992.62,-3.51,2.47,0.00,1.57,-0.29,9.57,0.00,-0.00,0.00,0
2026-06-27 19:45:41.949,992.65,992.62,-3.51,2.47,0.00,1.57,-0.29,9.57,0.00,-0.00,0.00,0
2026-06-27 19:45:41.959,992.65,992.62,-3.51,2.47,0.00,1.60,-0.34,9.57,-0.00,0.00,-0.00,0
2026-06-27 19:45:41.969,992.65,992.62,-3.51,2.47,0.00,1.60,-0.34,9.57,-0.00,0.00,-0.00,0
2026-06-27 19:45:41.979,992.65,992.62,-3.51,2.47,0.00,1.59,-0.32,9.56,0.00,0.00,-0.00,0
2026-06-27 19:45:41.989,992.65,992.62,-3.51,2.47,0.00,1.59,-0.33,9.56,-0.00,-0.00,0.00,0
2026-06-27 19:45:41.999,992.69,992.62,-7.35,3.57,0.00,1.60,-0.32,9.55,-0.00,-0.00,-0.00,0
2026-06-27 19:45:42.009,992.69,992.62,-7.35,3.57,0.00,1.60,-0.32,9.55,-0.00,-0.00,-0.00,0
2026-06-27 19:45:42.019,992.69,992.62,-7.35,3.57,0.00,1.57,-0.33,9.54,0.00,0.00,0.00,0
2026-06-27 19:45:42.029,992.69,992.62,-7.35,3.57,0.00,1.57,-0.33,9.54,0.00,0.00,0.00,0
2026-06-27 19:45:42.039,992.69,992.62,-7.35,3.57,0.00,1.57,-0.33,9.54,0.00,0.00,0.00,0
2026-06-27 19:45:42.049,992.69,992.62,-7.35,3.57,0.00,1.57,-0.33,9.54,0.00,0.00,0.00,0
2026-06-27 19:45:42.059,992.69,992.62,-7.35,3.57,0.00,1.57,-0.33,9.54,0.00,0.00,0.00,0
2026-06-27 19:45:42.069,992.69,992.62,-7.35,3.57,0.00,1.57,-0.33,9.54,0.00,0.00,0.00,0
2026-06-27 19:45:42.079,992.69,992.62,-7.35,3.57,0.00,1.57,-0.33,9.54,0.00,0.00,0.00,0
2026-06-27 19:45:42.089,992.69,992.62,-7.35,3.57,0.00,1.57,-0.33,9.54,0.00,0.00,0.00,0
2026-06-27 19:45:42.099,992.69,992.62,-7.35,3.57,0.00,1.60,-0.33,9.56,-0.00,0.00,0.00,0
2026-06-27 19:45:42.109,992.69,992.57,-11.96,4.55,0.00,1.61,-0.33,9.57,-0.00,0.00,0.00,0
2026-06-27 19:45:42.119,992.69,992.57,-11.96,4.55,0.00,1.61,-0.33,9.57,-0.00,-0.00,-0.00,0
2026-06-27 19:45:42.129,992.69,992.57,-11.96,4.55,0.00,1.60,-0.32,9.56,0.00,0.00,0.00,0
2026-06-27 19:45:42.139,992.66,992.57,-9.00,3.95,0.00,1.60,-0.32,9.56,0.00,0.00,0.00,0
2026-06-27 19:45:42.149,992.66,992.57,-9.00,3.95,0.00,1.60,-0.32,9.56,0.00,0.00,0.00,0
2026-06-27 19:45:42.159,992.66,992.57,-9.00,3.95,0.00,1.60,-0.32,9.56,0.00,0.00,0.00,0
2026-06-27 19:45:42.169,992.66,992.57,-9.00,3.95,0.00,1.61,-0.31,9.56,-0.00,-0.00,-0.00,0
2026-06-27 19:45:42.179,992.66,992.57,-9.00,3.95,0.00,1.61,-0.31,9.56,-0.00,-0.00,-0.00,0
2026-06-27 19:45:42.189,992.66,992.57,-9.00,3.95,0.00,1.61,-0.31,9.56,-0.00,-0.00,-0.00,0
2026-06-27 19:45:42.199,992.66,992.57,-9.00,3.95,0.00,1.61,-0.31,9.56,-0.00,-0.00,-0.00,0
2026-06-27 19:45:42.209,992.66,992.57,-9.00,3.95,0.00,1.61,-0.31,9.56,-0.00,-0.00,-0.00,0
2026-06-27 19:45:42.219,992.66,992.57,-9.00,3.95,0.00,1.59,-0.31,9.56,0.00,0.00,0.00,0
2026-06-27 19:45:42.229,992.66,992.57,-9.00,3.95,0.00,1.59,-0.31,9.56,0.00,0.00,0.00,0
2026-06-27 19:45:42.239,992.66,992.57,-9.00,3.95,0.00,1.59,-0.31,9.56,0.00,0.00,0.00,0
2026-06-27 19:45:42.249,992.66,992.57,-9.00,3.95,0.00,1.61,-0.32,9.55,-0.00,0.00,-0.00,0
2026-06-27 19:45:42.259,992.66,992.57,-9.00,3.95,0.00,1.61,-0.32,9.55,0.00,-0.00,0.00,0
2026-06-27 19:45:42.269,992.66,992.57,-9.00,3.95,0.00,1.60,-0.32,9.56,0.00,0.00,0.00,0
2026-06-27 19:45:42.279,992.67,992.57,-10.01,4.17,0.00,1.61,-0.33,9.58,0.00,-0.00,-0.00,0
2026-06-27 19:45:42.289,992.67,992.61,-5.91,3.20,0.00,1.60,-0.32,9.56,0.00,-0.00,0.00,0
2026-06-27 19:45:42.299,992.67,992.61,-5.91,3.20,0.00,1.60,-0.32,9.56,0.00,-0.00,0.00,0
2026-06-27 19:45:42.309,992.67,992.61,-5.91,3.20,0.00,1.60,-0.32,9.56,0.00,-0.00,0.00,0
2026-06-27 19:45:42.319,992.67,992.61,-5.91,3.20,0.00,1.60,-0.32,9.56,0.00,-0.00,0.00,0
2026-06-27 19:45:42.329,992.67,992.61,-5.91,3.20,0.00,1.60,-0.32,9.56,0.00,-0.00,0.00,0
2026-06-27 19:45:42.339,992.67,992.61,-5.91,3.20,0.00,1.61,-0.32,9.56,0.00,0.00,0.00,0
2026-06-27 19:45:42.349,992.67,992.61,-5.91,3.20,0.00,1.61,-0.32,9.56,0.00,0.00,0.00,0
2026-06-27 19:45:42.359,992.67,992.61,-5.91,3.20,0.00,1.61,-0.32,9.56,0.00,0.00,0.00,0
2026-06-27 19:45:42.369,992.67,992.61,-5.91,3.20,0.00,1.61,-0.32,9.56,0.00,0.00,0.00,0
2026-06-27 19:45:42.379,992.67,992.61,-5.91,3.20,0.00,1.61,-0.33,9.56,-0.00,-0.00,-0.00,0
2026-06-27 19:45:42.389,992.67,992.61,-5.91,3.20,0.00,1.60,-0.32,9.55,-0.00,-0.00,0.00,0
2026-06-27 19:45:42.399,992.67,992.61,-5.91,3.20,0.00,1.60,-0.32,9.55,0.00,0.00,-0.00,0
2026-06-27 19:45:42.409,992.67,992.61,-5.91,3.20,0.00,1.63,-0.31,9.55,0.00,-0.00,-0.00,0
2026-06-27 19:45:42.419,992.70,992.61,-8.53,3.85,0.00,1.60,-0.34,9.56,-0.00,-0.00,-0.00,0
2026-06-27 19:45:42.429,992.70,992.61,-8.53,3.85,0.00,1.60,-0.34,9.56,-0.00,-0.00,-0.00,0
2026-06-27 19:45:42.439,992.70,992.61,-8.53,3.85,0.00,1.60,-0.32,9.57,0.00,-0.00,-0.00,0
2026-06-27 19:45:42.449,992.70,992.61,-8.53,3.85,0.00,1.60,-0.32,9.57,0.00,-0.00,-0.00,0
2026-06-27 19:45:42.459,992.70,992.61,-8.53,3.85,0.00,1.60,-0.32,9.57,0.00,-0.00,-0.00,0
2026-06-27 19:45:42.469,992.70,992.61,-8.53,3.85,0.00,1.60,-0.32,9.57,0.00,-0.00,-0.00,0
2026-06-27 19:45:42.479,992.70,992.61,-8.53,3.85,0.00,1.60,-0.31,9.56,0.00,-0.00,-0.00,0
2026-06-27 19:45:42.489,992.70,992.61,-8.53,3.85,0.00,1.60,-0.31,9.56,0.00,-0.00,-0.00,0
2026-06-27 19:45:42.499,992.70,992.61,-8.53,3.85,0.00,1.60,-0.31,9.56,0.00,-0.00,-0.00,0
2026-06-27 19:45:42.509,992.70,992.61,-8.53,3.85,0.00,1.60,-0.31,9.56,0.00,-0.00,-0.00,0
2026-06-27 19:45:42.519,992.70,992.61,-8.53,3.85,0.00,1.59,-0.34,9.58,0.00,0.00,0.00,0
2026-06-27 19:45:42.529,992.70,992.59,-11.10,4.39,0.00,1.57,-0.29,9.54,-0.00,0.00,0.00,0
2026-06-27 19:45:42.539,992.70,992.59,-11.10,4.39,0.00,1.57,-0.29,9.54,-0.00,0.00,-0.00,0
2026-06-27 19:45:42.549,992.70,992.59,-11.10,4.39,0.00,1.61,-0.31,9.56,-0.00,0.00,-0.00,0
2026-06-27 19:45:42.559,992.67,992.59,-7.82,3.68,0.00,1.59,-0.32,9.54,0.00,0.00,0.00,0
2026-06-27 19:45:42.569,992.67,992.59,-7.82,3.68,0.00,1.59,-0.32,9.54,0.00,0.00,0.00,0
2026-06-27 19:45:42.579,992.67,992.59,-7.82,3.68,0.00,1.60,-0.32,9.56,0.00,-0.00,-0.00,0
2026-06-27 19:45:42.589,992.67,992.59,-7.82,3.68,0.00,1.60,-0.32,9.56,0.00,-0.00,-0.00,0
2026-06-27 19:45:42.599,992.67,992.59,-7.82,3.68,0.00,1.60,-0.32,9.56,0.00,-0.00,-0.00,0
2026-06-27 19:45:42.609,992.67,992.59,-7.82,3.68,0.00,1.60,-0.32,9.56,0.00,-0.00,-0.00,0
2026-06-27 19:45:42.619,992.67,992.59,-7.82,3.68,0.00,1.60,-0.33,9.55,0.00,0.00,-0.00,0
2026-06-27 19:45:42.629,992.67,992.59,-7.82,3.68,0.00,1.60,-0.33,9.55,0.00,0.00,-0.00,0
2026-06-27 19:45:42.639,992.67,992.59,-7.82,3.68,0.00,1.60,-0.33,9.55,0.00,0.00,-0.00,0
2026-06-27 19:45:42.649,992.67,992.59,-7.82,3.68,0.00,1.60,-0.33,9.55,0.00,0.00,-0.00,0
2026-06-27 19:45:42.659,992.67,992.59,-7.82,3.68,0.00,1.61,-0.32,9.56,0.00,-0.01,-0.00,0
2026-06-27 19:45:42.669,992.67,992.59,-7.82,3.68,0.00,1.59,-0.31,9.58,0.00,0.00,-0.00,0
2026-06-27 19:45:42.679,992.67,992.59,-7.82,3.68,0.00,1.60,-0.33,9.55,0.00,0.00,-0.00,0
2026-06-27 19:45:42.689,992.67,992.59,-7.82,3.68,0.00,1.61,-0.30,9.57,0.00,0.00,-0.00,0
2026-06-27 19:45:42.699,992.67,992.60,-6.69,3.41,0.00,1.62,-0.32,9.55,0.00,0.00,0.00,0
2026-06-27 19:45:42.709,992.70,992.60,-9.85,4.13,0.00,1.62,-0.32,9.55,0.00,0.00,0.00,0
2026-06-27 19:45:42.719,992.70,992.60,-9.85,4.13,0.00,1.62,-0.32,9.55,0.00,0.00,0.00,0
2026-06-27 19:45:42.729,992.70,992.60,-9.85,4.13,0.00,1.62,-0.32,9.55,0.00,0.00,0.00,0
2026-06-27 19:45:42.739,992.70,992.60,-9.85,4.13,0.00,1.60,-0.33,9.55,-0.00,0.00,0.00,0
2026-06-27 19:45:42.749,992.70,992.60,-9.85,4.13,0.00,1.60,-0.33,9.55,-0.00,0.00,0.00,0
2026-06-27 19:45:42.759,992.70,992.60,-9.85,4.13,0.00,1.60,-0.33,9.55,-0.00,0.00,0.00,0
2026-06-27 19:45:42.769,992.70,992.60,-9.85,4.13,0.00,1.60,-0.33,9.55,-0.00,0.00,0.00,0
2026-06-27 19:45:42.779,992.70,992.60,-9.85,4.13,0.00,1.60,-0.34,9.54,-0.00,-0.00,0.00,0
2026-06-27 19:45:42.789,992.70,992.60,-9.85,4.13,0.00,1.60,-0.34,9.54,-0.00,-0.00,0.00,0
2026-06-27 19:45:42.799,992.70,992.60,-9.85,4.13,0.00,1.60,-0.34,9.54,-0.00,-0.00,0.00,0
